"acc_1","acc_2","age","avg_rt","correct_1","correct_2","count_block_loop","count_trial_sequence","cue_position","detection","dis_position","dis_shape","gender","hand","high_loc","practice","response_keyboard_response_1","response_keyboard_response_2","response_time_keyboard_response_1","response_time_keyboard_response_2","subject_nr","tar_color","tar_position"
"100","0","23","2267.95769261","1","0","0","0","0","right","2","out","Female","Right-handed","2","yes","right","None","1535.71429717","3000.20108806","26","red","0"
"100","0","23","1635.3244846","1","0","0","1","1","left","3","out","Female","Right-handed","2","yes","left","s","1364.22948156","641.153071628","26","green","1"
"100","33","23","1520.72137053","1","1","0","2","3","right","2","in","Female","Right-handed","2","yes","right","s","1597.31138534","985.718899423","26","green","1"
"100","50","23","1331.85566752","1","1","0","3","0","left","2","out","Female","Right-handed","2","yes","left","s","873.253909431","657.263207589","26","green","3"
"80","40","23","1551.26725565","0","0","0","4","3","right","3","in","Female","Right-handed","2","yes","left","None","1857.73260548","3000.09461081","26","green","2"
"83","50","23","1488.59776733","1","1","0","5","3","left","1","out","Female","Right-handed","2","yes","left","s","1133.1748148","1217.32583674","26","red","0"
"85","57","23","1430.90753665","1","1","0","6","2","left","0","in","Female","Right-handed","2","yes","left","d","1111.76583216","1057.76647294","26","red","3"
"87","50","23","1423.81286287","1","0","0","7","1","left","1","out","Female","Right-handed","2","yes","left","s","1794.9998669","953.300425877","26","green","2"
"88","55","23","1452.23440617","1","1","0","8","2","right","1","in","Female","Right-handed","2","yes","right","s","2581.69963987","777.513865294","26","red","0"
"90","60","23","1399.493303","1","1","0","9","0","left","1","out","Female","Right-handed","2","yes","left","s","872.290482762","977.356266138","26","green","0"
"90","54","23","1385.47223199","1","0","0","10","2","right","1","out","Female","Right-handed","2","yes","right","s","1617.59690472","872.926139106","26","green","2"
"91","58","23","1348.50155723","1","1","0","11","2","left","0","in","Female","Right-handed","2","yes","left","s","1250.34244302","633.305826711","26","green","1"
"92","61","23","1306.76602224","1","1","0","12","1","left","1","out","Female","Right-handed","2","yes","left","s","961.940156579","649.93904819","26","green","0"
"92","64","23","1292.92490069","1","1","0","13","0","right","1","in","Female","Right-handed","2","yes","right","d","1520.50184138","705.478799642","26","red","3"
"93","60","23","1264.73143199","1","0","0","14","1","left","0","out","Female","Right-handed","2","yes","left","s","963.035076236","777.010664081","26","red","3"
"93","62","23","1263.47297996","1","1","0","15","2","left","1","in","Female","Right-handed","2","yes","left","s","1927.59354684","561.598852098","26","red","2"
"94","64","23","1245.81028346","1","1","0","16","2","left","3","in","Female","Right-handed","2","yes","left","s","677.255914539","1249.1583647","26","red","0"
"94","66","23","1239.08345397","1","1","0","17","3","right","0","out","Female","Right-handed","2","yes","right","d","895.82291679","1353.63178821","26","red","3"
"94","68","23","1228.5423658","1","1","0","18","2","right","0","out","Female","Right-handed","2","yes","right","s","1316.31568195","761.289875649","26","green","2"
"95","65","23","1218.41237772","1","0","0","19","1","left","2","in","Female","Right-handed","2","yes","left","d","1249.94796406","801.937244491","26","red","1"
"95","61","23","1208.12641323","1","0","0","20","0","left","3","out","Female","Right-handed","2","yes","left","s","963.432762344","1041.38148457","26","red","2"
"95","63","23","1193.54980539","1","1","0","21","0","left","0","in","Female","Right-handed","2","yes","left","s","829.964814401","944.917266857","26","green","3"
"100","100","23","989.759261997","1","1","1","22","1","left","1","out","Female","Right-handed","2","no","left","s","1346.29319665","633.225327345","26","green","2"
"100","100","23","1130.77137956","1","1","1","23","0","left","2","in","Female","Right-handed","2","no","left","d","1149.76794695","1393.79904729","26","red","0"
"100","100","23","1150.43808011","1","1","1","24","2","right","0","in","Female","Right-handed","2","no","right","s","1354.27642456","1025.26653789","26","red","1"
"100","100","23","1113.78689541","1","1","1","25","1","right","2","in","Female","Right-handed","2","no","right","d","1085.80077786","921.865904734","26","green","1"
"100","100","23","1046.01888945","1","1","1","26","0","left","2","out","Female","Right-handed","2","no","left","s","828.456493621","721.437237595","26","green","0"
"100","100","23","1085.84140171","1","1","1","27","0","left","1","out","Female","Right-handed","2","no","left","s","1584.9285945","984.979331547","26","red","2"
"100","85","23","1087.79608086","1","0","1","28","1","right","3","out","Female","Right-handed","2","no","right","d","925.496394045","1273.55191744","26","green","0"
"100","87","23","1076.84191608","1","1","1","29","2","left","2","out","Female","Right-handed","2","no","left","d","943.186370143","1057.13915518","26","green","1"
"100","88","23","1083.48445227","1","1","1","30","2","left","1","in","Female","Right-handed","2","no","left","d","1279.58744556","993.662038006","26","green","2"
"100","90","23","1071.20564958","1","1","1","31","3","left","2","out","Female","Right-handed","2","no","left","d","920.114482285","1001.27836841","26","green","3"
"100","90","23","1061.84300338","1","1","1","32","2","right","3","in","Female","Right-handed","2","no","right","d","1014.82278754","921.610295195","26","red","2"
"100","91","23","1058.26287233","1","1","1","33","1","right","2","in","Female","Right-handed","2","no","right","d","1068.40233134","969.360530359","26","green","1"
"100","84","23","1038.45574093","1","0","1","34","0","left","3","in","Female","Right-handed","2","no","left","d","776.792898866","824.747429232","26","red","2"
"100","85","23","1037.14150006","1","1","1","35","1","left","0","out","Female","Right-handed","2","no","left","s","870.628860402","1169.4838772","26","red","1"
"100","86","23","1053.83145443","1","1","1","36","2","right","2","in","Female","Right-handed","2","no","right","s","1374.02442627","1200.95720481","26","green","3"
"100","87","23","1048.53911291","1","1","1","37","1","right","2","in","Female","Right-handed","2","no","right","d","1120.57939017","817.728590135","26","green","0"
"100","88","23","1057.36862648","1","1","1","38","3","left","2","out","Female","Right-handed","2","no","left","d","1052.17802098","1345.10366618","26","red","3"
"100","88","23","1053.3630169","1","1","1","39","1","left","2","out","Female","Right-handed","2","no","left","s","672.81465871","1297.72064924","26","red","3"
"100","89","23","1043.25316655","1","1","1","40","1","left","1","out","Female","Right-handed","2","no","left","s","753.232883382","969.318837461","26","green","0"
"100","90","23","1042.58139015","1","1","1","41","2","left","2","in","Female","Right-handed","2","no","left","d","914.789016295","1144.84626064","26","green","3"
"100","85","23","1055.35801318","1","0","1","42","1","right","2","in","Female","Right-handed","2","no","right","s","1364.4103646","1257.37058284","26","red","1"
"100","86","23","1042.65511515","1","1","1","43","3","left","1","in","Female","Right-handed","2","no","left","d","734.886083776","816.902429317","26","red","0"
"100","86","23","1029.47810629","1","1","1","44","1","right","2","out","Female","Right-handed","2","no","right","d","765.612467075","713.555355501","26","red","0"
"100","87","23","1025.81902893","1","1","1","45","0","right","2","out","Female","Right-handed","2","no","right","s","714.101211756","1169.21928765","26","red","1"
"100","88","23","1027.19457787","1","1","1","46","2","left","3","out","Female","Right-handed","2","no","left","s","1134.71071703","985.70478798","26","green","1"
"100","84","23","1027.19432253","1","0","1","47","1","left","3","out","Female","Right-handed","2","no","left","d","1173.16985013","881.206028023","26","red","1"
"100","81","23","1016.84366965","1","0","1","48","3","left","3","out","Female","Right-handed","2","no","left","s","686.79011827","808.663271154","26","green","0"
"100","82","23","1025.26810137","1","1","1","49","0","right","2","out","Female","Right-handed","2","no","right","s","1200.27889342","1305.17662234","26","red","1"
"100","79","23","1027.08593525","1","0","1","50","3","left","2","in","Female","Right-handed","2","no","left","s","994.968950016","1161.00161736","26","red","0"
"100","80","23","1028.96420087","1","1","1","51","1","left","0","in","Female","Right-handed","2","no","left","d","1341.39363965","825.474168523","26","red","2"
"100","80","23","1020.64327135","1","1","1","52","1","right","2","out","Female","Right-handed","2","no","right","d","764.987073598","777.043697685","26","red","0"
"100","81","23","1012.67686107","1","1","1","53","0","right","2","in","Female","Right-handed","2","no","right","d","666.748341986","864.687943087","26","red","0"
"100","81","23","1017.35786155","1","1","1","54","0","left","0","in","Female","Right-handed","2","no","left","s","1261.13032013","1073.1694332","26","green","2"
"100","82","23","1009.26741163","1","1","1","55","3","left","0","in","Female","Right-handed","2","no","left","d","795.808388419","688.756740218","26","red","3"
"100","82","23","1003.94271414","1","1","1","56","2","right","3","out","Female","Right-handed","2","no","right","s","788.410143946","857.395855149","26","red","0"
"100","83","23","1010.99931713","1","1","1","57","3","right","0","in","Female","Right-handed","2","no","right","s","1250.94763147","1265.01321184","26","red","2"
"100","83","23","1010.87877804","1","1","1","58","0","right","2","out","Female","Right-handed","2","no","right","d","1107.51379794","905.564943585","26","green","1"
"100","84","23","1013.94850687","1","1","1","59","3","right","3","in","Female","Right-handed","2","no","right","d","1285.97543903","969.081508654","26","red","2"
"100","84","23","1011.43935949","1","1","1","60","3","left","0","in","Female","Right-handed","2","no","left","d","967.669081541","864.514436487","26","green","1"
"100","82","23","1014.74597239","1","0","1","61","1","right","2","in","Female","Right-handed","2","no","right","s","918.20590968","1369.20184077","26","red","3"
"100","82","23","1015.19571996","1","1","1","62","3","left","2","in","Female","Right-handed","2","no","left","d","1129.66427275","936.706973009","26","red","1"
"100","83","23","1013.95929402","1","1","1","63","1","right","2","out","Female","Right-handed","2","no","right","s","957.339826307","969.191834478","26","green","3"
"100","83","23","1009.17873262","1","1","1","64","3","left","2","in","Female","Right-handed","2","no","left","s","775.890728686","840.899578806","26","green","0"
"100","84","23","1007.66088422","1","1","1","65","2","left","1","in","Female","Right-handed","2","no","left","s","1236.29899196","648.487814609","26","green","2"
"100","82","23","1002.30330458","1","0","1","66","2","right","2","in","Female","Right-handed","2","no","right","d","524.071394919","1009.06820541","26","red","0"
"100","82","23","1000.13514635","1","1","1","67","3","right","0","in","Female","Right-handed","2","no","right","d","820.553444363","984.582607583","26","green","2"
"100","82","23","993.669325734","1","1","1","68","2","left","2","in","Female","Right-handed","2","no","left","s","559.196379004","833.286776263","26","red","1"
"100","83","23","986.318358447","1","1","1","69","3","right","2","in","Female","Right-handed","2","no","right","d","584.845529415","696.800262473","26","green","3"
"100","81","23","989.539965206","1","0","1","70","3","right","3","in","Female","Right-handed","2","no","right","d","1591.19760285","697.156576397","26","red","2"
"100","82","23","986.156649199","1","1","1","71","2","right","2","out","Female","Right-handed","2","no","right","d","839.822298452","800.926031346","26","red","0"
"100","82","23","984.623105662","1","1","1","72","2","right","3","out","Female","Right-handed","2","no","right","s","879.440494131","936.45136347","26","red","2"
"100","82","23","981.768130323","1","1","1","73","0","left","2","in","Female","Right-handed","2","no","left","d","679.137226402","993.191549683","26","green","3"
"100","83","23","978.746191794","1","1","1","74","3","right","1","out","Female","Right-handed","2","no","right","d","722.644407363","920.566369161","26","green","2"
"100","83","23","975.544558252","1","1","1","75","1","left","1","out","Female","Right-handed","2","no","left","d","1018.37694678","593.339014258","26","red","2"
"100","83","23","973.133495675","1","1","1","76","3","right","2","out","Female","Right-handed","2","no","right","d","972.919179599","712.953053476","26","green","1"
"100","83","23","973.164655129","1","1","1","77","0","right","3","out","Female","Right-handed","2","no","right","d","1157.37850449","792.378345735","26","red","1"
"100","84","23","974.573822197","1","1","1","78","0","right","2","in","Female","Right-handed","2","no","right","s","817.962391081","1289.0119649","26","green","3"
"100","84","23","973.306846141","1","1","1","79","1","right","2","in","Female","Right-handed","2","no","right","s","801.44815472","1000.73026715","26","green","1"
"100","84","23","976.735126207","1","1","1","80","0","right","3","in","Female","Right-handed","2","no","right","d","958.112427787","1393.03831225","26","red","2"
"100","85","23","972.818817309","1","1","1","81","0","left","2","out","Female","Right-handed","2","no","left","s","586.664622646","896.848562092","26","red","0"
"100","85","23","969.162554812","1","1","1","82","0","left","2","in","Female","Right-handed","2","no","left","d","771.370897779","728.202712155","26","green","1"
"100","83","23","966.002956244","1","0","1","83","0","right","2","in","Female","Right-handed","2","no","right","s","569.748530887","976.786356288","26","red","3"
"100","84","23","961.930728588","1","1","1","84","1","left","0","in","Female","Right-handed","2","no","left","d","754.42690385","664.478324022","26","green","3"
"100","84","23","959.19705952","1","1","1","85","2","right","2","in","Female","Right-handed","2","no","right","d","845.006970732","728.944845747","26","green","1"
"100","84","23","952.835994126","1","1","1","86","2","left","0","in","Female","Right-handed","2","no","left","s","514.679267757","576.776349992","26","green","3"
"100","84","23","949.744556164","1","1","1","87","3","left","2","out","Female","Right-handed","2","no","left","d","577.305849802","920.296327465","26","green","0"
"100","85","23","946.649034767","1","1","1","88","2","left","1","out","Female","Right-handed","2","no","left","d","755.802128069","728.887117119","26","red","0"
"100","83","23","947.404649143","1","0","1","89","3","left","1","out","Female","Right-handed","2","no","left","d","539.568645273","1456.4929794","26","red","3"
"100","82","23","948.232839992","1","0","1","90","2","left","0","in","Female","Right-handed","2","no","left","d","1192.06250599","817.03712945","26","red","2"
"100","82","23","946.580820378","1","1","1","91","0","left","0","out","Female","Right-handed","2","no","left","s","672.461231217","992.721702789","26","green","2"
"100","83","23","943.794160453","1","1","1","92","1","right","0","out","Female","Right-handed","2","no","right","s","665.240983349","832.214948059","26","green","2"
"100","83","23","939.364318444","1","1","1","93","3","left","2","out","Female","Right-handed","2","no","left","s","528.832082493","720.858989165","26","green","3"
"100","83","23","936.721047108","1","1","1","94","1","left","3","in","Female","Right-handed","2","no","left","s","772.407447378","720.403574428","26","green","2"
"100","83","23","933.313197079","1","1","1","95","1","right","2","out","Female","Right-handed","2","no","right","s","639.983425469","729.096864469","26","green","3"
"100","84","23","929.303252869","1","1","1","96","1","left","2","out","Female","Right-handed","2","no","left","s","704.542633715","560.592128958","26","red","0"
"100","84","23","926.058541336","1","1","1","97","2","right","2","out","Female","Right-handed","2","no","right","s","661.174322178","704.236030554","26","green","0"
"100","84","23","925.983680317","1","1","1","98","2","right","2","out","Female","Right-handed","2","no","right","d","903.834367585","936.754118056","26","green","1"
"100","84","23","926.353538773","1","1","1","99","0","right","0","out","Female","Right-handed","2","no","right","d","845.372264665","1064.29301512","26","green","1"
"100","84","23","924.917362097","1","1","1","100","0","right","1","in","Female","Right-handed","2","no","right","s","665.934047607","959.85711523","26","green","0"
"100","85","23","921.601421423","1","1","1","101","0","left","0","out","Female","Right-handed","2","no","left","d","686.57972949","632.704486829","26","red","3"
"100","85","23","922.385955342","1","1","1","102","3","right","2","out","Female","Right-handed","2","no","right","s","698.146301663","1272.15103605","26","red","0"
"100","85","23","922.610562976","1","1","1","103","3","right","3","out","Female","Right-handed","2","no","right","s","1024.80887815","856.798684557","26","red","1"
"100","85","23","921.203801028","1","1","1","104","2","right","1","out","Female","Right-handed","2","no","right","s","571.352103904","1040.34653854","26","red","3"
"100","85","23","918.568006012","1","1","1","105","2","right","0","out","Female","Right-handed","2","no","right","d","719.688060148","679.905979307","26","red","2"
"100","84","23","915.539067765","1","0","1","106","3","left","1","in","Female","Right-handed","2","no","left","s","593.557741618","728.658768321","26","red","2"
"100","84","23","918.046121087","1","1","1","107","2","right","2","in","Female","Right-handed","2","no","right","s","518.108989726","1744.18231727","26","green","3"
"100","85","23","917.29949464","1","1","1","108","0","left","3","in","Female","Right-handed","2","no","left","d","721.529924116","984.649316221","26","red","0"
"100","84","23","918.492083685","1","0","1","109","1","left","3","out","Female","Right-handed","2","no","left","d","956.338555315","1088.15610591","26","green","2"
"100","83","23","915.07406311","1","0","1","110","0","right","2","out","Female","Right-handed","2","no","right","s","667.872446671","560.704058355","26","green","3"
"100","83","23","913.527170032","1","1","1","111","3","left","2","in","Female","Right-handed","2","no","left","s","855.337829538","696.36954276","26","green","1"
"100","83","23","911.967025591","1","1","1","112","2","right","2","out","Female","Right-handed","2","no","right","s","599.144910724","943.963140912","26","green","3"
"100","83","23","909.599972536","1","1","1","113","0","left","1","out","Female","Right-handed","2","no","left","d","547.682404025","840.71388505","26","red","3"
"98","82","23","921.777785811","0","0","1","114","1","right","1","in","Female","Right-handed","2","no","left","None","1084.16705767","3000.10615653","26","green","3"
"98","82","23","924.148277033","1","1","1","115","3","left","2","out","Female","Right-handed","2","no","left","s","1160.69886278","1128.50905874","26","green","1"
"98","82","23","922.547637639","1","0","1","116","2","left","2","in","Female","Right-handed","2","no","left","s","584.116224407","960.058844716","26","red","0"
"98","82","23","924.388139677","1","1","1","117","0","right","1","in","Female","Right-handed","2","no","right","s","629.75615748","1568.71550915","26","red","2"
"100","100","23","767.185411847","1","1","2","118","0","right","2","out","Female","Right-handed","2","no","right","s","661.133270708","873.237552986","26","green","3"
"100","50","23","824.738369044","1","0","2","119","1","left","3","in","Female","Right-handed","2","no","left","s","811.755922075","952.826730408","26","red","0"
"100","66","23","844.935665185","1","1","2","120","1","left","2","in","Female","Right-handed","2","no","left","d","857.305413631","913.355101302","26","red","0"
"100","75","23","836.576225683","1","1","2","121","3","left","3","in","Female","Right-handed","2","no","left","d","813.983926425","809.011887928","26","green","2"
"100","80","23","798.677052261","1","1","2","122","2","left","1","in","Female","Right-handed","2","no","left","d","565.62093394","728.539783203","26","green","2"
"100","66","23","814.763743984","1","0","2","123","2","left","1","out","Female","Right-handed","2","no","left","d","685.186865967","1105.20753923","26","green","0"
"100","71","23","817.761829913","1","1","2","124","3","right","2","in","Female","Right-handed","2","no","right","s","566.715212167","1104.78547881","26","red","0"
"87","75","23","876.827311542","0","1","2","125","0","right","3","out","Female","Right-handed","2","no","left","d","528.275321941","2052.29604395","26","green","1"
"88","77","23","853.053308148","1","1","2","126","1","left","2","out","Female","Right-handed","2","no","left","s","596.80722198","728.915340004","26","green","0"
"90","80","23","859.482023465","1","1","2","127","1","right","3","in","Female","Right-handed","2","no","right","d","1129.41539821","705.265524431","26","red","1"
"90","72","23","851.619843452","1","0","2","128","2","left","1","out","Female","Right-handed","2","no","left","d","928.944717462","617.051369179","26","green","2"
"91","75","23","837.655617407","1","1","2","129","0","right","2","in","Female","Right-handed","2","no","right","d","695.568718396","672.529543428","26","red","3"
"92","76","23","826.162397392","1","1","2","130","3","left","0","in","Female","Right-handed","2","no","left","s","439.231798725","937.255715695","26","red","3"
"92","78","23","808.423972244","1","1","2","131","3","right","2","in","Female","Right-handed","2","no","right","s","458.867871035","696.781019597","26","green","3"
"93","80","23","803.554854117","1","1","2","132","3","right","2","out","Female","Right-handed","2","no","right","d","430.438125013","1040.33627568","26","red","3"
"93","81","23","808.676250073","1","1","2","133","1","right","2","in","Female","Right-handed","2","no","right","s","809.984936035","961.0094428","26","green","1"
"94","82","23","813.172075138","1","1","2","134","3","right","3","in","Female","Right-handed","2","no","right","d","1113.5653618","656.645190548","26","red","1"
"94","77","23","826.93906811","1","0","2","135","1","left","0","in","Female","Right-handed","2","no","left","d","1344.8426045","777.113292754","26","green","2"
"94","78","23","842.087151223","1","1","2","136","3","left","2","out","Female","Right-handed","2","no","left","d","972.762991587","1256.74230293","26","red","1"
"95","75","23","834.84701272","1","0","2","137","0","left","1","in","Female","Right-handed","2","no","left","d","649.312692569","745.256069764","26","red","0"
"95","76","23","850.678663409","1","1","2","138","3","right","2","out","Female","Right-handed","2","no","right","d","1493.80780279","840.815551579","26","green","1"
"95","77","23","849.976042619","1","1","2","139","3","left","1","in","Female","Right-handed","2","no","left","s","1142.2516795","528.190332572","26","red","2"
"95","78","23","847.783034507","1","1","2","140","0","left","0","in","Female","Right-handed","2","no","left","d","901.962997873","697.110714209","26","red","2"
"95","79","23","844.685153672","1","1","2","141","1","right","1","out","Female","Right-handed","2","no","right","s","842.41303102","704.454757913","26","red","2"
"96","80","23","836.048013542","1","1","2","142","3","left","2","out","Female","Right-handed","2","no","left","d","568.300183737","689.213117099","26","red","3"
"96","80","23","830.366484771","1","1","2","143","3","right","1","in","Female","Right-handed","2","no","right","s","551.862598167","824.793932849","26","red","3"
"96","81","23","820.483403857","1","1","2","144","0","right","1","out","Female","Right-handed","2","no","right","s","470.524243298","656.522356855","26","red","3"
"96","82","23","819.305520932","1","1","2","145","2","left","2","out","Female","Right-handed","2","no","left","s","893.969827811","681.03553614","26","red","1"
"96","82","23","815.731035816","1","1","2","146","2","right","3","out","Female","Right-handed","2","no","right","s","782.717459735","648.573445408","26","red","0"
"96","83","23","811.34983859","1","1","2","147","2","left","3","out","Female","Right-handed","2","no","left","s","896.276727954","472.31351007","26","red","1"
"96","83","23","821.735717366","1","1","2","148","0","right","2","out","Female","Right-handed","2","no","right","d","785.823259955","1480.80090134","26","green","3"
"96","81","23","808.943270037","1","0","2","149","0","left","2","out","Female","Right-handed","2","no","left","s","464.361712192","360.393093475","26","green","0"
"96","81","23","809.65377391","1","1","2","150","3","left","1","in","Female","Right-handed","2","no","left","s","1039.92704384","624.852751907","26","green","2"
"97","82","23","810.400615176","1","1","2","151","0","left","2","in","Female","Right-handed","2","no","left","s","869.548372903","800.544380968","26","red","0"
"97","82","23","811.323433851","1","1","2","152","0","left","1","out","Female","Right-handed","2","no","left","s","941.162660995","744.235876611","26","green","2"
"97","83","23","815.821429565","1","1","2","153","0","left","0","out","Female","Right-handed","2","no","left","d","1113.79178631","832.710772835","26","green","1"
"97","83","23","810.349211483","1","1","2","154","2","right","2","in","Female","Right-handed","2","no","right","s","570.369113644","656.329607378","26","red","0"
"97","81","23","811.444980827","1","0","2","155","1","left","2","in","Female","Right-handed","2","no","left","d","862.93876564","841.038127514","26","green","1"
"97","82","23","808.049448074","1","1","2","156","1","right","2","in","Female","Right-handed","2","no","right","d","709.489656473","648.548750384","26","green","0"
"97","82","23","804.402401254","1","1","2","157","2","right","2","out","Female","Right-handed","2","no","right","d","756.202700609","568.13245","26","green","1"
"97","82","23","800.019895257","1","1","2","158","1","left","2","in","Female","Right-handed","2","no","left","d","648.675432652","600.763878042","26","red","3"
"97","83","23","804.05127298","1","1","2","159","0","right","3","out","Female","Right-handed","2","no","right","d","930.303585237","1008.37193401","26","red","2"
"97","83","23","811.835996307","1","1","2","160","3","right","0","out","Female","Right-handed","2","no","right","d","1724.85797956","552.730772598","26","green","2"
"97","84","23","808.985902756","1","1","2","161","1","right","0","out","Female","Right-handed","2","no","right","s","636.486994863","736.376765253","26","green","2"
"97","84","23","805.621998713","1","1","2","162","3","left","3","in","Female","Right-handed","2","no","left","s","643.086018543","672.134423036","26","green","2"
"97","84","23","806.874143823","1","1","2","163","0","right","2","in","Female","Right-handed","2","no","right","d","773.707303666","952.734043888","26","green","0"
"97","85","23","801.425847996","1","1","2","164","0","left","0","out","Female","Right-handed","2","no","left","d","605.265107502","496.343372449","26","red","3"
"97","85","23","798.480699422","1","1","2","165","2","right","3","out","Female","Right-handed","2","no","right","s","663.081932639","657.03550022","26","green","2"
"97","83","23","797.186557977","1","0","2","166","0","left","3","out","Female","Right-handed","2","no","left","s","533.622917239","936.51261996","26","green","2"
"98","84","23","796.995215259","1","1","2","167","1","left","1","out","Female","Right-handed","2","no","left","d","511.14242711","1064.09641707","26","red","0"
"98","82","23","795.276322892","1","0","2","168","2","left","2","in","Female","Right-handed","2","no","left","s","537.845124993","880.818284068","26","green","0"
"98","80","23","793.977826557","1","0","2","169","3","left","2","out","Female","Right-handed","2","no","left","d","607.297155229","848.211871764","26","red","0"
"98","81","23","799.360892646","1","1","2","170","0","right","2","out","Female","Right-handed","2","no","right","s","1141.79658548","1016.76407304","26","red","1"
"98","79","23","798.741878779","1","0","2","171","0","right","0","in","Female","Right-handed","2","no","right","s","651.441275392","880.427012252","26","green","2"
"98","80","23","798.900858573","1","1","2","172","3","left","1","out","Female","Right-handed","2","no","left","d","567.040416775","1047.9311182","26","green","0"
"98","80","23","794.448693086","1","1","2","173","1","right","2","out","Female","Right-handed","2","no","right","s","530.530587033","568.628595491","26","green","0"
"98","80","23","794.899531058","1","1","2","174","3","right","0","in","Female","Right-handed","2","no","right","s","1232.16947073","408.123444334","26","red","1"
"98","81","23","789.916369022","1","1","2","175","1","left","0","in","Female","Right-handed","2","no","left","s","530.853546639","480.898719291","26","green","3"
"98","81","23","789.604360105","1","1","2","176","1","right","2","in","Female","Right-handed","2","no","right","d","934.554015876","608.461669954","26","red","1"
"98","81","23","795.810767052","1","1","2","177","2","right","1","in","Female","Right-handed","2","no","right","s","627.942516397","1696.03503743","26","green","3"
"98","81","23","795.888727427","1","1","2","178","3","left","2","in","Female","Right-handed","2","no","left","d","720.475093785","880.657606052","26","red","0"
"98","82","23","791.336183631","1","1","2","179","2","left","0","in","Female","Right-handed","2","no","left","d","475.165945754","552.096078398","26","green","3"
"98","82","23","788.288336031","1","1","2","180","2","right","2","in","Female","Right-handed","2","no","right","s","702.826810586","495.81675907","26","red","3"
"98","81","23","784.860412076","1","0","2","181","3","right","2","out","Female","Right-handed","2","no","right","d","721.508115522","416.294290286","26","red","0"
"98","80","23","782.048631633","1","0","2","182","1","right","3","in","Female","Right-handed","2","no","right","d","612.107874281","592.081492298","26","green","2"
"98","80","23","777.93636305","1","1","2","183","1","right","2","in","Female","Right-handed","2","no","right","s","460.654892806","560.62291756","26","green","3"
"98","79","23","775.717322608","1","0","2","184","1","right","2","in","Female","Right-handed","2","no","right","s","578.263182893","680.258123942","26","green","3"
"98","77","23","772.911356049","1","0","2","185","2","right","2","in","Female","Right-handed","2","no","right","s","441.883787781","727.939405465","26","green","3"
"98","78","23","773.491339565","1","1","2","186","3","right","2","in","Female","Right-handed","2","no","right","s","897.456316266","728.404120926","26","red","1"
"98","78","23","772.814661001","1","1","2","187","1","left","1","out","Female","Right-handed","2","no","left","d","644.16361961","808.084060581","26","red","2"
"98","78","23","771.215062102","1","1","2","188","1","left","0","in","Female","Right-handed","2","no","left","s","854.764391827","463.721886559","26","green","1"
"98","77","23","775.208729082","1","0","2","189","2","right","2","out","Female","Right-handed","2","no","right","d","749.28328304","1368.23488624","26","red","0"
"98","78","23","775.628992619","1","1","2","190","2","left","2","out","Female","Right-handed","2","no","left","d","531.836216184","1079.93971848","26","green","3"
"98","78","23","775.275392213","1","1","2","191","2","right","0","out","Female","Right-handed","2","no","right","d","946.49261699","552.432508017","26","red","1"
"98","78","23","771.305403581","1","1","2","192","1","left","2","in","Female","Right-handed","2","no","left","s","515.026601673","440.025888083","26","red","3"
"98","78","23","769.506461412","1","1","2","193","2","right","0","in","Female","Right-handed","2","no","right","d","541.483952885","727.687644502","26","red","2"
"98","79","23","769.775530058","1","1","2","194","2","left","0","in","Female","Right-handed","2","no","left","d","1020.2024543","560.247040045","26","green","2"
"98","79","23","772.814742589","1","1","2","195","3","left","3","in","Female","Right-handed","2","no","left","d","1325.77547989","687.892735077","26","red","0"
"98","79","23","776.283872014","1","1","2","196","1","left","3","in","Female","Right-handed","2","no","left","d","669.408990336","1424.34294397","26","green","2"
"98","80","23","774.89371518","1","1","2","197","1","right","1","out","Female","Right-handed","2","no","right","s","570.111900532","760.030750116","26","red","3"
"98","79","23","773.983112286","1","0","2","198","0","left","1","out","Female","Right-handed","2","no","left","d","650.615435288","751.654326104","26","green","2"
"98","79","23","774.246659583","1","1","2","199","3","right","0","out","Female","Right-handed","2","no","right","d","559.231336896","1031.95664452","26","red","2"
"98","79","23","778.891280419","1","1","2","200","0","right","2","out","Female","Right-handed","2","no","right","d","975.831909628","1343.66846833","26","green","1"
"98","78","23","779.979803609","1","0","2","201","0","right","2","out","Female","Right-handed","2","no","right","d","692.334632335","1048.3198243","26","green","0"
"97","78","23","787.26648699","0","1","2","202","3","left","2","out","Female","Right-handed","2","no","right","d","578.866767778","2219.82901422","26","red","1"
"97","79","23","787.383243755","1","1","2","203","0","right","2","in","Female","Right-handed","2","no","right","s","931.231733299","663.383404366","26","green","1"
"97","79","23","785.544942347","1","1","2","204","2","left","2","out","Female","Right-handed","2","no","left","s","462.902140032","791.999902502","26","red","3"
"97","79","23","786.154428761","1","1","2","205","2","right","2","in","Female","Right-handed","2","no","right","s","798.669483396","879.690010093","26","green","1"
"97","79","23","786.30605435","1","1","2","206","0","left","2","out","Female","Right-handed","2","no","left","d","479.108811089","1120.18940122","26","red","1"
"97","80","23","784.478516095","1","1","2","207","1","right","2","out","Female","Right-handed","2","no","right","d","571.782182187","671.873040634","26","red","1"
"97","80","23","783.790893275","1","1","2","208","2","left","3","out","Female","Right-handed","2","no","left","d","651.434219671","792.375459303","26","green","2"
"97","80","23","787.440193176","1","1","2","209","0","left","3","out","Female","Right-handed","2","no","left","s","647.027280305","1592.02568796","26","red","0"
"97","80","23","789.38612504","1","1","2","210","2","right","2","out","Female","Right-handed","2","no","right","d","761.367488583","1175.45622454","26","green","1"
"97","80","23","788.240166912","1","1","2","211","0","left","2","out","Female","Right-handed","2","no","left","d","475.139967871","888.19215423","26","green","3"
"97","81","23","788.718563365","1","1","2","212","2","left","2","in","Female","Right-handed","2","no","left","s","587.652744339","1079.72291541","26","red","0"
"97","81","23","789.912442976","1","1","2","213","3","right","2","in","Female","Right-handed","2","no","right","s","702.290255054","1104.37175697","26","red","3"
"100","0","23","866.983778576","1","0","3","214","2","left","2","out","Female","Right-handed","2","no","left","s","965.548837297","768.418719855","26","red","0"
"100","50","23","802.513007383","1","1","3","215","2","left","2","out","Female","Right-handed","2","no","left","d","867.030763265","609.053709113","26","green","1"
"100","66","23","763.017885933","1","1","3","216","0","right","2","in","Female","Right-handed","2","no","right","d","559.499133589","808.556152477","26","red","1"
"100","75","23","691.831591479","1","1","3","217","3","left","1","in","Female","Right-handed","2","no","left","s","476.327574047","480.217842187","26","green","3"
"100","80","23","712.238469268","1","1","3","218","2","right","3","out","Female","Right-handed","2","no","right","d","914.816277036","672.91568381","26","red","1"
"100","83","23","734.931491619","1","1","3","219","1","right","2","in","Female","Right-handed","2","no","right","s","528.417398511","1168.37580824","26","green","0"
"100","85","23","693.374549436","1","1","3","220","0","left","2","out","Female","Right-handed","2","no","left","s","455.063233695","433.002558982","26","green","3"
"100","87","23","678.912866493","1","1","3","221","2","left","2","in","Female","Right-handed","2","no","left","d","434.638844888","720.723326888","26","red","3"
"100","88","23","661.128228362","1","1","3","222","1","right","1","in","Female","Right-handed","2","no","right","d","533.351913399","504.350333238","26","red","0"
"90","90","23","661.959688099","0","1","3","223","1","right","3","in","Female","Right-handed","2","no","left","d","424.036020099","914.849631354","26","red","2"
"90","90","23","663.823832984","1","1","3","224","0","right","2","out","Female","Right-handed","2","no","right","s","460.437769019","904.492794665","26","red","0"
"91","91","23","664.434573205","1","1","3","225","1","right","2","out","Female","Right-handed","2","no","right","s","478.082524358","864.222906912","26","green","3"
"92","92","23","663.766547301","1","1","3","226","1","right","2","in","Female","Right-handed","2","no","right","s","454.702750481","856.797722413","26","green","1"
"92","85","23","674.877701213","1","0","3","227","1","left","2","in","Female","Right-handed","2","no","left","d","694.31985573","944.325548414","26","red","1"
"93","86","23","683.043669249","1","1","3","228","0","left","2","in","Female","Right-handed","2","no","left","d","554.882767587","1039.85167591","26","red","0"
"93","87","23","705.195077464","1","1","3","229","0","right","3","in","Female","Right-handed","2","no","right","d","1210.50006783","864.432333548","26","green","2"
"94","82","23","718.77707975","1","0","3","230","0","right","0","in","Female","Right-handed","2","no","right","s","504.117173722","1368.06105893","26","green","3"
"94","83","23","705.490853166","1","1","3","231","3","right","2","out","Female","Right-handed","2","no","right","s","414.620160056","544.62984243","26","green","0"
"94","84","23","702.108899386","1","1","3","232","0","right","3","out","Female","Right-handed","2","no","right","d","594.29217806","688.175284642","26","green","2"
"95","85","23","701.174761557","1","1","3","233","2","left","0","out","Female","Right-handed","2","no","left","d","702.017326927","664.834958662","26","red","2"
"95","85","23","699.949786784","1","1","3","234","2","left","1","in","Female","Right-handed","2","no","left","s","758.35341274","592.547169902","26","green","2"
"95","81","23","701.345633924","1","0","3","235","3","right","3","in","Female","Right-handed","2","no","right","s","597.141406597","864.175441151","26","green","2"
"95","82","23","699.101884769","1","1","3","236","2","right","3","in","Female","Right-handed","2","no","right","s","570.650059637","728.828747061","26","green","2"
"95","83","23","691.382290364","1","1","3","237","0","right","2","out","Female","Right-handed","2","no","right","s","451.307024259","576.356213861","26","green","3"
"96","84","23","726.080870753","1","1","3","238","0","left","2","out","Female","Right-handed","2","no","left","s","1781.89290249","1335.80069768","26","red","1"
"96","84","23","719.632255807","1","1","3","239","3","right","2","out","Female","Right-handed","2","no","right","d","412.343086371","704.490677949","26","red","0"
"96","85","23","717.256966245","1","1","3","240","0","right","2","out","Female","Right-handed","2","no","right","s","479.046271741","831.952603513","26","red","0"
"96","85","23","708.591478045","1","1","3","241","3","right","1","in","Female","Right-handed","2","no","right","s","572.753947435","376.492645854","26","red","0"
"96","86","23","703.306323155","1","1","3","242","3","left","2","out","Female","Right-handed","2","no","left","s","406.289277516","704.354694957","26","green","3"
"96","83","23","705.111308814","1","0","3","243","0","right","1","in","Female","Right-handed","2","no","right","s","522.945686661","991.966099184","26","red","2"
"96","83","23","701.736422317","1","1","3","244","0","right","1","in","Female","Right-handed","2","no","right","d","552.443733028","648.535921799","26","green","2"
"96","84","23","698.075338546","1","1","3","245","2","left","0","out","Female","Right-handed","2","no","left","s","409.064100265","760.099383041","26","green","2"
"96","81","23","697.47736389","1","0","3","246","0","left","1","out","Female","Right-handed","2","no","left","d","372.808917918","983.875431882","26","green","3"
"97","82","23","694.471907466","1","1","3","247","3","left","2","out","Female","Right-handed","2","no","left","d","494.294006133","696.289684824","26","red","1"
"97","82","23","696.654112828","1","1","3","248","3","left","2","out","Female","Right-handed","2","no","left","d","437.896343115","1103.80184712","26","green","0"
"97","83","23","692.306173368","1","1","3","249","2","left","2","in","Female","Right-handed","2","no","left","s","391.584512949","688.672071563","26","green","3"
"97","83","23","695.93607097","1","1","3","250","0","right","0","in","Female","Right-handed","2","no","right","d","1045.17874547","608.046023829","26","green","2"
"97","84","23","703.615418257","1","1","3","251","1","right","1","in","Female","Right-handed","2","no","right","s","727.707849523","1247.79468621","26","red","2"
"97","84","23","699.877239496","1","1","3","252","1","left","2","in","Female","Right-handed","2","no","left","s","579.249059585","536.403833566","26","red","0"
"97","85","23","696.677336574","1","1","3","253","2","right","0","out","Female","Right-handed","2","no","right","d","567.911156923","575.851088361","26","red","3"
"97","82","23","698.980194833","1","0","3","254","3","left","0","out","Female","Right-handed","2","no","left","d","525.6521972","1056.53685316","26","red","2"
"97","83","23","695.686015944","1","1","3","255","2","right","2","out","Female","Right-handed","2","no","right","s","473.149933757","648.099429224","26","red","3"
"97","83","23","697.152403378","1","1","3","256","1","left","3","in","Female","Right-handed","2","no","left","s","789.755862422","727.725488825","26","red","2"
"97","81","23","706.155820881","1","0","3","257","0","right","2","out","Female","Right-handed","2","no","right","d","1674.28385231","512.321694707","26","green","1"
"97","82","23","711.570167741","1","1","3","258","2","left","3","out","Female","Right-handed","2","no","left","d","467.81292204","1431.78993707","26","green","2"
"97","80","23","709.156751229","1","0","3","259","3","left","3","in","Female","Right-handed","2","no","left","s","544.529138045","656.576878338","26","green","2"
"97","80","23","710.153559585","1","1","3","260","3","left","0","out","Female","Right-handed","2","no","left","s","375.949034601","1136.06445337","26","red","3"
"97","79","23","710.225265528","1","0","3","261","2","right","2","out","Female","Right-handed","2","no","right","s","531.538593031","895.652296621","26","green","0"
"97","79","23","716.459796039","1","1","3","262","3","left","3","out","Female","Right-handed","2","no","left","d","839.244050023","1192.19047112","26","red","0"
"98","78","23","721.145028106","1","0","3","263","0","right","2","out","Female","Right-handed","2","no","right","d","533.747995934","1367.69480285","26","green","0"
"98","78","23","719.874049464","1","1","3","264","2","left","2","in","Female","Right-handed","2","no","left","d","640.250260019","672.399974728","26","green","0"
"98","78","23","728.175056688","1","1","3","265","2","right","0","in","Female","Right-handed","2","no","right","s","783.0702458","1519.98260444","26","red","1"
"98","79","23","722.416457946","1","1","3","266","1","right","2","out","Female","Right-handed","2","no","right","s","446.433124431","399.505522225","26","red","3"
"98","79","23","722.05091905","1","1","3","267","2","right","1","out","Female","Right-handed","2","no","right","d","589.163310121","816.19140504","26","red","0"
"96","78","23","747.975105666","0","0","3","268","2","right","2","in","Female","Right-handed","2","no","None","d","3000.10230796","1295.66005791","26","green","1"
"96","78","23","748.522244467","1","1","3","269","3","left","0","out","Female","Right-handed","2","no","left","d","765.034860074","792.194896982","26","red","1"
"96","77","23","750.307409167","1","0","3","270","3","right","2","out","Female","Right-handed","2","no","right","d","876.760282191","823.792982572","26","red","1"
"96","77","23","745.229815403","1","1","3","271","2","left","2","out","Female","Right-handed","2","no","left","s","519.345665238","392.268276482","26","green","1"
"96","76","23","742.783626528","1","0","3","272","1","left","3","out","Female","Right-handed","2","no","left","s","553.953657381","647.855686126","26","green","1"
"96","76","23","740.538430108","1","1","3","273","1","left","3","in","Female","Right-handed","2","no","left","d","592.521833448","623.62184926","26","red","0"
"96","75","23","747.349918144","1","0","3","274","1","right","1","in","Female","Right-handed","2","no","right","d","1111.99193595","1200.08646466","26","red","2"
"96","75","23","743.137786018","1","1","3","275","3","left","2","out","Female","Right-handed","2","no","left","s","484.594313666","487.801138985","26","red","3"
"95","74","23","741.021730853","0","0","3","276","3","right","3","in","Female","Right-handed","2","no","left","s","576.360383151","643.292238033","26","red","1"
"95","75","23","742.730274388","1","1","3","277","1","left","0","in","Female","Right-handed","2","no","left","s","516.870710642","1183.86632359","26","red","2"
"95","73","23","741.31673229","1","0","3","278","3","left","1","in","Female","Right-handed","2","no","left","s","542.196260019","759.503816023","26","red","2"
"95","74","23","737.594878192","1","1","3","279","0","right","2","out","Female","Right-handed","2","no","right","d","375.180602411","616.168121161","26","red","3"
"94","73","23","737.947010279","0","0","3","280","2","left","2","out","Female","Right-handed","2","no","right","d","471.733978782","1050.64147731","26","red","0"
"94","73","23","734.362182323","1","1","3","281","2","left","2","in","Female","Right-handed","2","no","left","s","557.14861626","431.208802205","26","green","3"
"94","73","23","731.587317946","1","1","3","282","0","left","3","out","Female","Right-handed","2","no","left","d","597.88289876","487.910181951","26","red","0"
"94","74","23","734.21395531","1","1","3","283","1","right","0","in","Female","Right-handed","2","no","right","d","1047.48372133","783.420145431","26","green","1"
"94","74","23","739.437001414","1","1","3","284","3","right","2","out","Female","Right-handed","2","no","right","s","1538.05326877","672.047188665","26","red","1"
"94","73","23","744.488265641","1","0","3","285","3","right","2","out","Female","Right-handed","2","no","right","d","1734.62181494","471.63423654","26","green","0"
"94","73","23","743.997370386","1","1","3","286","3","left","2","out","Female","Right-handed","2","no","left","s","505.2191491","912.086675046","26","green","3"
"94","72","23","746.500056701","1","0","3","287","3","left","2","in","Female","Right-handed","2","no","left","s","690.702836432","1167.68947899","26","red","1"
"94","73","23","744.617871223","1","1","3","288","2","right","1","in","Female","Right-handed","2","no","right","d","483.367901023","727.304390551","26","red","3"
"94","73","23","744.490509236","1","1","3","289","1","left","2","in","Female","Right-handed","2","no","left","s","669.859915068","800.016805445","26","green","0"
"94","74","23","741.283590393","1","1","3","290","1","left","1","out","Female","Right-handed","2","no","left","d","435.542618641","559.572897948","26","green","3"
"94","74","23","740.603520576","1","1","3","291","1","left","0","in","Female","Right-handed","2","no","left","d","529.265047207","847.211242201","26","green","2"
"94","74","23","739.11815452","1","1","3","292","1","right","2","out","Female","Right-handed","2","no","right","s","894.705867827","351.813336403","26","green","1"
"95","75","23","738.334276902","1","1","3","293","2","left","2","in","Female","Right-handed","2","no","left","d","449.489213888","903.326676367","26","green","1"
"95","75","23","738.169979587","1","1","3","294","0","left","3","in","Female","Right-handed","2","no","left","s","850.959433772","599.092954958","26","red","1"
"95","75","23","738.432086301","1","1","3","295","2","left","3","in","Female","Right-handed","2","no","left","d","487.567658755","1031.75780146","26","green","0"
"95","75","23","736.917320057","1","1","3","296","0","right","1","in","Female","Right-handed","2","no","right","s","498.298127957","727.114848221","26","green","0"
"94","75","23","750.007410798","0","0","3","297","3","left","1","in","Female","Right-handed","2","no","None","d","3000.16709231","672.802792269","26","green","2"
"92","74","23","749.886898109","0","0","3","298","1","left","2","out","Female","Right-handed","2","no","right","s","637.257030625","842.270633736","26","red","1"
"93","73","23","756.187990624","1","0","3","299","0","right","0","out","Female","Right-handed","2","no","right","s","1799.83816741","783.723541446","26","green","2"
"93","73","23","755.694766091","1","1","3","300","1","right","2","out","Female","Right-handed","2","no","right","s","555.264097251","871.290815343","26","green","3"
"93","73","23","751.454699485","1","1","3","301","1","right","2","in","Female","Right-handed","2","no","right","s","461.047768196","304.090041267","26","red","3"
"93","73","23","751.209349005","1","0","3","302","3","right","2","out","Female","Right-handed","2","no","right","s","627.647779678","831.589233868","26","red","3"
"93","72","23","751.669772075","1","0","3","303","3","left","0","in","Female","Right-handed","2","no","left","s","634.088049629","951.206800946","26","green","2"
"93","72","23","751.340705989","1","1","3","304","1","left","2","out","Female","Right-handed","2","no","left","s","731.683427746","711.766088729","26","green","0"
"93","72","23","754.181935413","1","1","3","305","2","right","1","in","Female","Right-handed","2","no","right","d","610.206357397","1415.26126855","26","green","2"
"93","73","23","755.926258415","1","1","3","306","0","right","2","out","Female","Right-handed","2","no","right","d","1010.00180562","822.806143737","26","green","1"
"93","72","23","753.677501295","1","0","3","307","1","left","0","in","Female","Right-handed","2","no","left","s","441.490591676","647.595586582","26","red","3"
"93","72","23","754.198497661","1","1","3","308","0","right","2","in","Female","Right-handed","2","no","right","s","559.13127394","1047.2130382","26","red","3"
"93","72","23","756.891667404","1","1","3","309","0","left","0","in","Female","Right-handed","2","no","left","d","1017.6899761","1007.79560987","26","red","1"
"100","100","23","598.779456434","1","1","4","310","1","right","2","out","Female","Right-handed","2","no","right","d","589.239640197","608.31927267","26","green","3"
"100","50","23","625.330295952","1","0","4","311","0","left","3","in","Female","Right-handed","2","no","left","d","599.83156069","703.930710251","26","red","2"
"100","66","23","738.193613482","1","1","4","312","1","right","2","out","Female","Right-handed","2","no","right","s","735.521098692","1192.31939839","26","red","3"
"100","75","23","737.033308136","1","1","4","313","1","left","2","in","Female","Right-handed","2","no","left","s","939.126123262","527.978660934","26","red","0"
"100","60","23","742.06803832","1","0","4","314","0","left","1","out","Female","Right-handed","2","no","left","s","676.580168869","847.833749247","26","green","0"
"100","66","23","759.907194815","1","1","4","315","2","right","2","out","Female","Right-handed","2","no","right","d","1026.15716234","672.048792238","26","red","1"
"100","71","23","758.462112083","1","1","4","316","2","left","3","in","Female","Right-handed","2","no","left","d","827.798066541","671.785164833","26","green","0"
"100","75","23","720.571689015","1","1","4","317","3","left","2","out","Female","Right-handed","2","no","left","s","542.322300858","368.355154221","26","green","0"
"100","77","23","753.229426791","1","1","4","318","2","right","3","out","Female","Right-handed","2","no","right","d","797.025179624","1231.95747838","26","red","2"
"100","80","23","726.921312993","1","1","4","319","1","right","0","out","Female","Right-handed","2","no","right","s","412.614731641","567.681845983","26","red","3"
"100","72","23","726.498114038","1","0","4","320","1","right","2","in","Female","Right-handed","2","no","right","s","428.128659153","1016.40358982","26","green","0"
"100","66","23","724.773070365","1","0","4","321","2","right","2","in","Female","Right-handed","2","no","right","s","395.729107769","1015.86607215","26","green","0"
"100","61","23","731.505036416","1","0","4","322","2","left","3","in","Female","Right-handed","2","no","left","d","888.175477071","736.401780992","26","green","1"
"100","64","23","743.352628593","1","1","4","323","0","right","3","in","Female","Right-handed","2","no","right","s","1106.89193233","687.850721463","26","red","1"
"100","66","23","741.130332963","1","1","4","324","1","right","3","in","Female","Right-handed","2","no","right","s","868.678915612","551.357472666","26","red","1"
"100","68","23","730.913391984","1","1","4","325","1","right","1","out","Female","Right-handed","2","no","right","s","579.110190161","576.208364429","26","red","2"
"100","70","23","716.404867021","1","1","4","326","1","right","2","out","Female","Right-handed","2","no","right","d","416.74746002","551.789475237","26","red","3"
"100","72","23","708.460171505","1","1","4","327","3","left","0","out","Female","Right-handed","2","no","left","s","562.388772167","584.411923271","26","green","2"
"100","73","23","708.069228374","1","1","4","328","3","left","2","in","Female","Right-handed","2","no","left","d","762.00891779","640.055586256","26","green","1"
"100","70","23","717.199443111","1","0","4","329","3","right","1","out","Female","Right-handed","2","no","right","s","917.64305555","863.703990684","26","green","0"
"100","71","23","708.675110105","1","1","4","330","1","left","0","in","Female","Right-handed","2","no","left","d","532.237430152","544.139469801","26","green","2"
"100","72","23","704.981312981","1","1","4","331","3","right","1","in","Female","Right-handed","2","no","right","s","559.873728246","694.949418496","26","green","3"
"100","73","23","704.65493263","1","1","4","332","0","right","0","in","Female","Right-handed","2","no","right","d","915.513510584","479.435619269","26","red","1"
"100","75","23","703.256922277","1","1","4","333","0","left","0","in","Female","Right-handed","2","no","left","d","662.100225238","680.105143076","26","green","2"
"100","76","23","695.832179028","1","1","4","334","1","right","3","out","Female","Right-handed","2","no","right","d","491.650355656","543.626326436","26","green","2"
"100","76","23","702.713086421","1","1","4","335","1","right","1","out","Female","Right-handed","2","no","right","d","550.218935824","1199.25260669","26","red","2"
"100","77","23","703.977225747","1","1","4","336","3","right","2","out","Female","Right-handed","2","no","right","d","865.90313072","607.786565714","26","green","1"
"100","78","23","709.671868184","1","1","4","337","2","right","1","in","Female","Right-handed","2","no","right","d","527.395922498","1199.45850546","26","red","0"
"100","79","23","704.461354681","1","1","4","338","2","left","2","in","Female","Right-handed","2","no","left","d","445.088368098","672.045585091","26","red","1"
"100","80","23","697.788726262","1","1","4","339","2","right","0","in","Female","Right-handed","2","no","right","s","472.835633445","535.729370755","26","green","2"
"100","80","23","721.222048442","1","1","4","340","2","left","1","out","Female","Right-handed","2","no","left","d","1744.23972519","1104.20370252","26","red","2"
"100","81","23","717.647749008","1","1","4","341","1","right","2","in","Female","Right-handed","2","no","right","s","629.844033281","583.844899852","26","red","1"
"100","81","23","711.911945842","1","1","4","342","1","right","0","out","Female","Right-handed","2","no","right","s","561.334583265","495.397905797","26","green","1"
"97","82","23","715.162182828","0","1","4","343","1","left","1","in","Female","Right-handed","2","no","right","d","609.936636415","1034.90337029","26","red","3"
"97","82","23","715.018528828","1","1","4","344","0","left","2","in","Female","Right-handed","2","no","left","d","580.645130253","839.623455398","26","green","1"
"97","83","23","710.648906133","1","1","4","345","3","right","2","in","Female","Right-handed","2","no","right","d","548.224411705","567.199811933","26","red","3"
"97","83","23","706.111946611","1","1","4","346","2","right","0","in","Female","Right-handed","2","no","right","s","455.780672263","629.782135362","26","red","3"
"97","84","23","704.462391765","1","1","4","347","3","right","1","out","Female","Right-handed","2","no","right","s","807.503246433","479.354478475","26","green","2"
"97","82","23","703.053259767","1","0","4","348","1","right","2","in","Female","Right-handed","2","no","right","d","443.041567499","855.970920166","26","green","3"
"97","80","23","724.589340986","1","0","4","349","1","left","3","out","Female","Right-handed","2","no","left","d","2769.42095299","359.57206409","26","red","2"
"97","80","23","728.896703357","1","1","4","350","2","left","2","out","Female","Right-handed","2","no","left","d","746.267924339","1056.11447202","26","red","0"
"97","80","23","724.60370251","1","1","4","351","2","left","2","in","Female","Right-handed","2","no","left","s","529.531881757","567.649453807","26","green","1"
"97","81","23","720.316425829","1","1","4","352","2","right","1","in","Female","Right-handed","2","no","right","d","489.189833218","591.31177725","26","green","3"
"97","81","23","725.862373871","1","1","4","353","3","right","3","in","Female","Right-handed","2","no","right","s","712.889551984","1215.78672735","26","red","2"
"97","82","23","724.141125401","1","1","4","354","0","left","2","out","Female","Right-handed","2","no","left","s","505.397787133","791.414598351","26","green","0"
"97","80","23","729.206336216","1","0","4","355","3","left","2","out","Female","Right-handed","2","no","left","d","531.136096204","1383.14554959","26","green","1"
"97","78","23","735.799257196","1","0","4","356","3","left","2","out","Female","Right-handed","2","no","left","d","462.653586214","1615.49365835","26","green","0"
"97","79","23","732.693555138","1","1","4","357","1","left","0","out","Female","Right-handed","2","no","left","d","558.266306654","615.184810186","26","green","2"
"97","79","23","728.726445648","1","1","4","358","1","left","3","in","Female","Right-handed","2","no","left","d","556.756703016","519.85367717","26","green","0"
"98","80","23","728.791245902","1","1","4","359","0","left","3","out","Female","Right-handed","2","no","left","s","592.466349822","871.466566946","26","red","0"
"98","78","23","723.658991155","1","0","4","360","3","right","3","out","Female","Right-handed","2","no","right","s","415.0252226","519.067284962","26","green","0"
"98","78","23","725.149595476","1","1","4","361","3","left","1","in","Female","Right-handed","2","no","left","d","970.66615951","631.674672238","26","red","2"
"98","77","23","727.970732626","1","0","4","362","0","left","2","out","Female","Right-handed","2","no","left","d","470.325400244","1279.01432857","26","red","3"
"98","75","23","723.643314569","1","0","4","363","0","right","2","in","Female","Right-handed","2","no","right","s","580.823447573","407.756867542","26","green","3"
"98","76","23","725.166192121","1","1","4","364","2","right","2","in","Female","Right-handed","2","no","right","s","759.438390243","855.364769565","26","green","1"
"98","75","23","722.66412272","1","0","4","365","2","left","2","out","Female","Right-handed","2","no","left","s","419.059491596","751.041119782","26","red","3"
"98","75","23","722.862538306","1","1","4","366","3","right","3","out","Female","Right-handed","2","no","right","d","812.54423857","655.403383602","26","red","1"
"98","75","23","720.612412166","1","1","4","367","0","left","2","in","Female","Right-handed","2","no","left","d","497.385374196","687.325070228","26","red","0"
"98","74","23","728.909830779","1","0","4","368","2","left","0","in","Female","Right-handed","2","no","left","d","589.674208485","1830.64601222","26","red","1"
"98","75","23","725.284754479","1","1","4","369","1","left","1","out","Female","Right-handed","2","no","left","d","479.349026327","543.46147913","26","green","0"
"98","75","23","726.705758342","1","1","4","370","0","right","2","out","Female","Right-handed","2","no","right","s","1056.97238359","566.959596694","26","red","1"
"98","75","23","722.269116962","1","1","4","371","0","right","2","in","Female","Right-handed","2","no","right","s","455.665215005","447.60277059","26","green","0"
"98","74","23","736.980421407","1","0","4","372","0","left","3","in","Female","Right-handed","2","no","left","d","2259.0652388","1039.09735516","26","red","2"
"98","75","23","734.021777965","1","1","4","373","3","left","2","in","Female","Right-handed","2","no","left","s","559.511962174","535.742520053","26","green","3"
"98","75","23","732.094995863","1","1","4","374","0","left","1","out","Female","Right-handed","2","no","left","s","506.251850122","711.310032562","26","red","2"
"98","74","23","729.031948918","1","0","4","375","2","left","2","out","Female","Right-handed","2","no","left","s","380.852760887","679.015034138","26","green","3"
"98","73","23","731.016915785","1","0","4","376","2","right","0","in","Female","Right-handed","2","no","right","d","780.502604683","943.546853357","26","red","2"
"98","73","23","728.091138846","1","1","4","377","2","right","2","in","Female","Right-handed","2","no","right","s","633.078119342","431.050048477","26","green","3"
"98","72","23","731.397287572","1","0","4","378","0","right","2","out","Female","Right-handed","2","no","right","d","936.622945783","975.807856033","26","red","1"
"98","72","23","730.49570932","1","1","4","379","3","right","2","in","Female","Right-handed","2","no","right","d","585.33141204","751.242207838","26","red","0"
"98","73","23","731.225718319","1","1","4","380","2","left","2","in","Female","Right-handed","2","no","left","d","477.814727664","1086.83796889","26","green","3"
"98","73","23","733.146703715","1","1","4","381","0","left","1","in","Female","Right-handed","2","no","left","s","547.58875536","1191.48457828","26","red","2"
"98","72","23","731.098360836","1","0","4","382","0","left","2","out","Female","Right-handed","2","no","left","s","496.111816505","671.123530606","26","green","3"
"98","72","23","731.505587165","1","1","4","383","2","left","2","out","Female","Right-handed","2","no","left","s","459.699484002","1062.76673433","26","red","0"
"98","73","23","731.140844918","1","1","4","384","1","left","2","out","Female","Right-handed","2","no","left","d","713.092243614","695.207593752","26","green","1"
"98","73","23","729.019205116","1","1","4","385","1","left","2","in","Female","Right-handed","2","no","left","s","508.885237732","630.907202192","26","green","0"
"98","74","23","732.330290358","1","1","4","386","0","left","0","in","Female","Right-handed","2","no","left","s","672.448081919","1295.49745561","26","green","2"
"98","73","23","731.327163163","1","0","4","387","1","right","2","out","Female","Right-handed","2","no","right","s","605.119182357","703.053555811","26","green","1"
"97","72","23","745.866306431","0","0","4","388","2","left","3","out","Female","Right-handed","2","no","right","None","759.694641212","3000.14432157","26","red","2"
"97","72","23","767.117773137","1","1","4","389","3","right","2","out","Female","Right-handed","2","no","right","d","2453.00456666","2438.96271917","26","green","0"
"97","72","23","764.708342912","1","1","4","390","0","right","2","in","Female","Right-handed","2","no","right","d","544.368460029","599.539389687","26","green","3"
"97","71","23","763.503670778","1","0","4","391","3","left","3","in","Female","Right-handed","2","no","left","s","477.026411168","854.824044744","26","red","2"
"97","72","23","760.945860937","1","1","4","392","3","right","2","out","Female","Right-handed","2","no","right","d","455.673553586","646.737354303","26","green","3"
"96","72","23","759.443569403","0","1","4","393","1","left","2","in","Female","Right-handed","2","no","right","d","651.227038037","618.279706109","26","red","0"
"96","71","23","762.971631341","1","0","4","394","1","right","2","out","Female","Right-handed","2","no","right","d","703.896393789","1414.76127448","26","red","1"
"96","70","23","762.882242302","1","0","4","395","2","right","1","in","Female","Right-handed","2","no","right","d","575.353018582","935.215329388","26","red","2"
"96","71","23","759.705637668","1","1","4","396","0","right","0","in","Female","Right-handed","2","no","right","s","534.064541248","438.970737038","26","red","3"
"96","70","23","761.431323545","1","0","4","397","3","left","2","out","Female","Right-handed","2","no","left","d","1056.53043886","766.601550912","26","red","1"
"96","70","23","761.253827688","1","1","4","398","0","right","2","out","Female","Right-handed","2","no","right","s","644.100759549","847.167625015","26","red","0"
"96","71","23","759.948615106","1","1","4","399","3","right","0","in","Female","Right-handed","2","no","right","s","576.780519282","710.788871332","26","green","2"
"96","71","23","758.458397432","1","1","4","400","0","left","1","out","Female","Right-handed","2","no","left","d","457.299576624","791.378036887","26","red","3"
"96","71","23","754.740942709","1","1","4","401","3","left","0","out","Female","Right-handed","2","no","left","s","513.927192012","318.977933873","26","green","3"
"96","72","23","755.792803206","1","1","4","402","3","right","0","out","Female","Right-handed","2","no","right","d","882.472209278","822.655728589","26","green","1"
"96","72","23","755.914274119","1","1","4","403","2","left","2","in","Female","Right-handed","2","no","left","d","783.290576732","751.1315613","26","red","0"
"96","72","23","753.987092723","1","1","4","404","0","left","2","out","Female","Right-handed","2","no","left","s","546.815833167","598.848249716","26","red","1"
"96","72","23","754.132387621","1","1","4","405","3","right","2","out","Female","Right-handed","2","no","right","d","553.434741153","982.436064742","26","green","3"
"100","100","23","726.174192288","1","1","5","406","2","right","2","in","Female","Right-handed","2","no","right","s","957.163112561","495.185272016","26","green","1"
"100","100","23","655.974656491","1","1","5","407","0","right","2","out","Female","Right-handed","2","no","right","d","483.744740682","687.805500704","26","red","0"
"100","100","23","598.301912389","1","1","5","408","2","right","1","out","Female","Right-handed","2","no","right","s","590.441999245","375.470849127","26","red","2"
"100","100","23","628.108045222","1","1","5","409","1","left","1","out","Female","Right-handed","2","no","left","d","539.028241166","896.024646277","26","green","2"
"100","100","23","656.522420998","1","1","5","410","0","right","2","out","Female","Right-handed","2","no","right","d","716.627159973","823.732688226","26","green","1"
"100","100","23","627.329283349","1","1","5","411","1","left","2","out","Female","Right-handed","2","no","left","d","459.257859993","503.469330223","26","green","3"
"100","100","23","652.904604495","1","1","5","412","0","right","3","in","Female","Right-handed","2","no","right","s","844.864252733","767.848810005","26","red","0"
"100","100","23","649.784423661","1","1","5","413","3","right","2","out","Female","Right-handed","2","no","right","d","544.492255864","711.394059788","26","green","3"
"100","100","23","641.272252738","1","1","5","414","3","right","1","in","Female","Right-handed","2","no","right","s","763.171828942","383.177941762","26","green","0"
"100","100","23","645.574443151","1","1","5","415","3","left","2","out","Female","Right-handed","2","no","left","d","592.76301083","775.825302907","26","green","1"
"100","100","23","636.186091675","1","1","5","416","0","left","0","out","Female","Right-handed","2","no","left","s","493.257456534","591.347697286","26","green","1"
"100","100","23","661.83030381","1","1","5","417","2","left","2","in","Female","Right-handed","2","no","left","s","1144.99635508","742.83691951","26","green","0"
"100","92","23","662.387104451","1","0","5","418","0","right","2","in","Female","Right-handed","2","no","right","d","626.624379377","711.513044906","26","green","3"
"100","92","23","671.049995329","1","1","5","419","1","left","2","in","Female","Right-handed","2","no","left","s","600.172801028","967.162352467","26","red","1"
"100","93","23","664.859012257","1","1","5","420","1","left","0","out","Female","Right-handed","2","no","left","d","548.585215635","607.785282855","26","green","2"
"100","93","23","659.740036359","1","1","5","421","2","right","0","in","Female","Right-handed","2","no","right","s","454.373697298","711.537098501","26","green","1"
"100","94","23","652.140423795","1","1","5","422","3","right","2","in","Female","Right-handed","2","no","right","d","461.062200352","600.031045174","26","green","3"
"100","94","23","644.696772004","1","1","5","423","3","right","1","out","Female","Right-handed","2","no","right","d","492.622762335","543.686620781","26","red","2"
"100","89","23","655.381718488","1","0","5","424","0","left","0","in","Female","Right-handed","2","no","left","d","568.120904274","1127.30060612","26","red","2"
"100","85","23","671.402119346","1","0","5","425","1","left","3","out","Female","Right-handed","2","no","left","d","591.80022559","1359.77924572","26","red","2"
"100","85","23","667.064642945","1","1","5","426","3","left","3","out","Female","Right-handed","2","no","left","d","673.239284844","487.390945007","26","green","2"
"100","86","23","665.286087485","1","1","5","427","1","left","1","out","Female","Right-handed","2","no","left","s","528.922524011","726.950321628","26","red","0"
"100","86","23","665.71237804","1","1","5","428","0","left","2","in","Female","Right-handed","2","no","left","d","438.604801675","911.576738826","26","red","3"
"100","87","23","659.356825838","1","1","5","429","1","left","0","in","Female","Right-handed","2","no","left","d","491.285061723","535.073188676","26","green","1"
"100","88","23","659.41164906","1","1","5","430","2","right","2","in","Female","Right-handed","2","no","right","d","754.841908547","566.612904208","26","green","1"
"100","88","23","655.452520781","1","1","5","431","2","right","2","out","Female","Right-handed","2","no","right","d","505.485983649","607.462643965","26","green","0"
"100","88","23","662.214619386","1","1","5","432","0","right","1","out","Female","Right-handed","2","no","right","s","565.060004098","1110.99836211","26","green","3"
"100","85","23","661.604400461","1","0","5","433","2","right","1","out","Female","Right-handed","2","no","right","d","666.579004676","623.677974316","26","green","2"
"100","86","23","659.057235314","1","1","5","434","2","left","2","out","Female","Right-handed","2","no","left","s","592.30599252","583.167229895","26","red","0"
"100","83","23","665.599007752","1","0","5","435","2","left","1","out","Female","Right-handed","2","no","left","s","695.812782209","1014.80803467","26","green","0"
"100","80","23","662.161300679","1","0","5","436","2","left","2","out","Female","Right-handed","2","no","left","d","542.520502483","575.539674481","26","red","3"
"96","81","23","660.298370417","0","1","5","437","3","right","0","in","Female","Right-handed","2","no","left","s","515.077595295","690.017469325","26","red","1"
"96","81","23","660.732605842","1","1","5","438","0","left","2","out","Female","Right-handed","2","no","left","s","517.671214293","831.585064577","26","green","0"
"97","82","23","658.617189182","1","1","5","439","1","left","2","out","Female","Right-handed","2","no","left","s","434.291190259","743.325688566","26","red","3"
"97","82","23","659.154035513","1","1","5","440","0","left","2","in","Female","Right-handed","2","no","left","s","451.931455593","902.882165927","26","green","1"
"97","83","23","653.647480058","1","1","5","441","3","right","2","in","Female","Right-handed","2","no","right","s","458.465374209","463.370704068","26","red","0"
"97","83","23","650.227218929","1","1","5","442","2","right","2","out","Female","Right-handed","2","no","right","s","407.078556156","647.117080394","26","green","0"
"97","84","23","650.307063977","1","1","5","443","0","left","3","in","Female","Right-handed","2","no","left","s","715.672071883","590.850589649","26","green","1"
"97","82","23","652.127547079","1","0","5","444","3","right","2","in","Female","Right-handed","2","no","right","s","571.401814667","871.209995263","26","red","1"
"97","82","23","649.797993898","1","1","5","445","1","left","2","in","Female","Right-handed","2","no","left","s","726.919533027","390.971306627","26","red","0"
"97","82","23","648.523124505","1","1","5","446","2","right","0","out","Female","Right-handed","2","no","right","d","659.525528401","535.53116913","26","red","2"
"97","80","23","649.586395757","1","0","5","447","0","left","2","out","Female","Right-handed","2","no","left","d","587.153391702","799.207642501","26","red","0"
"97","79","23","650.32117964","1","0","5","448","1","right","2","out","Female","Right-handed","2","no","right","s","715.706709061","646.657496367","26","green","1"
"97","79","23","656.434510209","1","1","5","449","1","right","2","out","Female","Right-handed","2","no","right","d","543.323251135","1295.29219826","26","red","0"
"97","80","23","654.47624401","1","1","5","450","0","right","0","out","Female","Right-handed","2","no","right","d","601.807804077","534.817258423","26","red","3"
"97","80","23","660.792996","1","1","5","451","0","right","3","in","Female","Right-handed","2","no","right","d","874.590006469","1015.50366465","26","green","2"
"97","80","23","664.650575059","1","1","5","452","0","left","2","in","Female","Right-handed","2","no","left","s","909.102746375","775.095677184","26","red","1"
"97","79","23","669.349136973","1","0","5","453","2","right","3","out","Female","Right-handed","2","no","right","d","941.714610828","838.648483004","26","red","2"
"97","79","23","673.396327005","1","1","5","454","3","left","3","out","Female","Right-handed","2","no","left","d","616.153689004","1119.16920806","26","red","0"
"98","80","23","672.614497519","1","1","5","455","2","left","0","out","Female","Right-handed","2","no","left","s","453.730985232","814.878720169","26","green","3"
"98","80","23","677.500371384","1","1","5","456","3","left","3","in","Female","Right-handed","2","no","left","d","1220.2921261","623.296003223","26","red","1"
"98","78","23","678.443705743","1","0","5","457","0","left","2","in","Female","Right-handed","2","no","left","s","726.004854978","727.102661065","26","green","1"
"98","77","23","692.954960941","1","0","5","458","2","right","2","out","Female","Right-handed","2","no","right","s","768.636485071","2126.44397741","26","red","3"
"98","77","23","688.116385999","1","1","5","459","3","right","2","in","Female","Right-handed","2","no","right","s","448.195130461","415.148697722","26","red","3"
"98","78","23","685.537759815","1","1","5","460","0","right","0","in","Female","Right-handed","2","no","right","d","501.812839296","590.771052428","26","red","2"
"98","76","23","683.338206859","1","0","5","461","2","right","2","out","Female","Right-handed","2","no","right","d","477.326279322","647.399309245","26","green","3"
"98","77","23","680.270423628","1","1","5","462","1","right","2","in","Female","Right-handed","2","no","right","s","649.930068181","367.019057182","26","green","0"
"98","77","23","678.577858662","1","1","5","463","1","left","3","in","Female","Right-handed","2","no","left","d","565.610991788","598.592319463","26","green","1"
"98","76","23","680.003555366","1","0","5","464","2","right","3","out","Female","Right-handed","2","no","right","s","766.172114057","759.215814309","26","green","2"
"98","76","23","679.725200503","1","1","5","465","3","right","1","in","Female","Right-handed","2","no","right","d","463.852417402","862.752109741","26","green","3"
"98","77","23","681.464954593","1","1","5","466","2","right","3","out","Female","Right-handed","2","no","right","s","965.422475744","606.277924219","26","green","1"
"98","75","23","682.877237164","1","0","5","467","0","right","1","in","Female","Right-handed","2","no","right","s","851.016200257","687.0367478","26","red","2"
"98","74","23","693.610633565","1","0","5","468","1","right","2","in","Female","Right-handed","2","no","right","d","1343.67295834","1374.48946244","26","red","1"
"98","75","23","693.555595335","1","1","5","469","1","right","1","out","Female","Right-handed","2","no","right","s","581.186175791","798.990197999","26","red","2"
"98","75","23","702.334469263","1","1","5","470","0","left","1","in","Female","Right-handed","2","no","left","d","553.708310709","1974.65649061","26","red","2"
"98","74","23","701.756743882","1","0","5","471","1","left","2","out","Female","Right-handed","2","no","left","d","497.230469042","831.178719175","26","green","3"
"98","74","23","701.174558358","1","1","5","472","1","left","3","in","Female","Right-handed","2","no","left","s","502.77530382","822.725323657","26","green","2"
"98","75","23","700.118444148","1","1","5","473","2","left","2","out","Female","Right-handed","2","no","left","d","756.346060038","502.371524136","26","red","1"
"98","73","23","702.160679383","1","0","5","474","1","right","2","in","Female","Right-handed","2","no","right","d","595.127960316","1086.93739042","26","red","1"
"98","74","23","700.443878174","1","1","5","475","2","right","2","in","Female","Right-handed","2","no","right","d","613.404202708","550.564986882","26","green","1"
"98","74","23","698.102639306","1","1","5","476","2","right","0","out","Female","Right-handed","2","no","right","s","566.223235966","502.208601117","26","green","2"
"98","73","23","696.509859854","1","0","5","477","3","left","0","in","Female","Right-handed","2","no","left","d","607.919982989","558.92505445","26","green","2"
"98","73","23","693.666184451","1","1","5","478","3","right","0","in","Female","Right-handed","2","no","right","s","475.427007441","502.416103465","26","red","3"
"98","72","23","692.954684179","1","0","5","479","0","left","2","in","Female","Right-handed","2","no","left","s","786.84633954","495.183989157","26","green","0"
"98","72","23","693.12410554","1","0","5","480","3","left","2","out","Female","Right-handed","2","no","left","s","524.64836049","886.674212012","26","green","0"
"98","72","23","695.908673765","1","1","5","481","0","right","3","out","Female","Right-handed","2","no","right","d","979.180490802","830.322090469","26","red","2"
"98","72","23","697.947106656","1","1","5","482","0","left","2","out","Female","Right-handed","2","no","left","s","474.962933409","1230.77307935","26","red","3"
"98","71","23","695.210134799","1","0","5","483","3","right","2","out","Female","Right-handed","2","no","right","s","514.491329","454.435274501","26","green","3"
"98","70","23","694.404045343","1","0","5","484","3","left","1","in","Female","Right-handed","2","no","left","s","720.028017628","543.030117988","26","red","2"
"98","71","23","692.449995382","1","1","5","485","3","left","0","in","Female","Right-handed","2","no","left","s","613.600159331","462.559937551","26","red","2"
"98","71","23","693.516218183","1","1","5","486","3","left","2","in","Female","Right-handed","2","no","left","s","639.320508384","918.307576209","26","green","0"
"98","70","23","692.728524624","1","0","5","487","1","left","2","in","Female","Right-handed","2","no","left","s","730.931352001","526.919340597","26","red","0"
"98","69","23","692.74405737","1","0","5","488","1","left","2","in","Female","Right-handed","2","no","left","s","757.574717682","630.460767464","26","green","3"
"98","70","23","691.15274175","1","1","5","489","2","right","2","in","Female","Right-handed","2","no","right","d","487.114168305","631.032922316","26","green","3"
"98","70","23","691.711738545","1","1","5","490","0","right","1","in","Female","Right-handed","2","no","right","d","494.626907891","982.708030726","26","red","0"
"98","69","23","691.678521111","1","0","5","491","3","left","2","out","Female","Right-handed","2","no","left","d","579.343028963","798.367049525","26","red","1"
"98","70","23","690.731789219","1","1","5","492","1","right","3","in","Female","Right-handed","2","no","right","s","515.861421785","702.764271238","26","green","0"
"98","70","23","689.916508003","1","1","5","493","0","left","2","in","Female","Right-handed","2","no","left","d","543.461479129","694.512605206","26","green","3"
"98","69","23","688.940846617","1","0","5","494","2","left","3","in","Female","Right-handed","2","no","left","s","480.056843456","726.108445795","26","red","0"
"98","70","23","688.521624342","1","1","5","495","1","left","1","out","Female","Right-handed","2","no","left","s","599.792433508","702.629250391","26","red","3"
"98","70","23","689.178587414","1","1","5","496","3","left","2","in","Female","Right-handed","2","no","left","d","802.30991486","694.300612853","26","red","0"
"98","70","23","693.544423595","1","1","5","497","1","left","0","out","Female","Right-handed","2","no","left","d","1118.79365126","1062.87738087","26","green","2"
"98","70","23","692.451789724","1","1","5","498","2","right","1","out","Female","Right-handed","2","no","right","d","497.33758772","686.521359432","26","red","3"
"98","71","23","689.41092636","1","1","5","499","1","right","0","out","Female","Right-handed","2","no","right","s","407.029807535","406.191459563","26","red","3"
"98","71","23","687.498890792","1","1","5","500","3","right","2","in","Female","Right-handed","2","no","right","s","584.815702957","430.719391719","26","red","1"
"98","71","23","687.297953141","1","1","5","501","3","left","3","out","Female","Right-handed","2","no","left","d","490.146204166","846.271548413","26","red","2"
dis_reply=No
dis_loc=1
