"acc_1","acc_2","age","avg_rt","correct_1","correct_2","count_block_loop","count_trial_sequence","cue_position","detection","dis_position","dis_shape","gender","hand","high_loc","practice","response_keyboard_response_1","response_keyboard_response_2","response_time_keyboard_response_1","response_time_keyboard_response_2","subject_nr","tar_color","tar_position"
"100","100","19","2365.06451035","1","1","0","0","3","right","2","in","Male","Right-handed","2","yes","right","d","2482.82712113","2247.30189957","14","red","0"
"100","50","19","2050.37464397","1","0","0","1","0","right","2","out","Male","Right-handed","2","yes","right","s","1630.14111167","1841.2284435","14","green","3"
"100","66","19","1878.33711297","1","1","0","2","0","left","3","in","Male","Right-handed","2","yes","left","s","1426.8019488","1641.72215314","14","green","1"
"100","50","19","1888.898252","1","0","0","3","3","right","1","out","Male","Right-handed","2","yes","right","s","2208.08607494","1633.07726328","14","green","0"
"100","60","19","1759.73825756","1","1","0","4","1","right","1","in","Male","Right-handed","2","yes","right","s","1276.65860494","1209.53795461","14","green","3"
"100","50","19","1685.22434219","1","0","0","5","0","right","0","out","Male","Right-handed","2","yes","right","d","1120.21704751","1505.09248316","14","red","1"
"100","57","19","1720.13893493","1","1","0","6","2","left","1","in","Male","Right-handed","2","yes","left","d","1169.61110343","2689.6418793","14","green","3"
"100","62","19","1626.14305056","1","1","0","7","2","right","3","out","Male","Right-handed","2","yes","right","s","887.154280576","1049.18943935","14","green","1"
"100","66","19","1597.03648778","1","1","0","8","2","left","3","out","Male","Right-handed","2","yes","left","s","1870.64929201","857.718679152","14","red","2"
"100","70","19","1559.14714658","1","1","0","9","2","left","0","out","Male","Right-handed","2","yes","left","s","1395.15469237","1041.13145909","14","green","3"
"100","63","19","1556.38330964","1","0","0","10","2","right","3","in","Male","Right-handed","2","yes","right","s","943.734611661","2113.75526896","14","green","0"
"100","58","19","1527.49269276","1","0","0","11","1","left","3","in","Male","Right-handed","2","yes","left","s","1034.23960087","1385.15221324","14","red","2"
"100","61","19","1475.73813381","1","1","0","12","1","left","1","out","Male","Right-handed","2","yes","left","s","867.637772219","841.729080603","14","green","2"
"100","57","19","1430.85320575","1","0","0","13","3","left","1","out","Male","Right-handed","2","yes","left","s","821.327076384","873.371205573","14","green","2"
"100","53","19","1386.8868465","1","0","0","14","1","right","2","out","Male","Right-handed","2","yes","right","s","740.64560698","802.070026974","14","red","0"
"100","56","19","1369.23722117","1","1","0","15","0","left","2","out","Male","Right-handed","2","yes","left","d","839.553666468","1369.43201582","14","green","1"
"100","58","19","1327.40775987","1","1","0","16","1","right","1","in","Male","Right-handed","2","yes","right","s","579.11846177","737.154296614","14","green","0"
"100","61","19","1305.31375379","1","1","0","17","1","right","0","out","Male","Right-handed","2","yes","right","d","649.688088011","1209.74321261","14","green","2"
"100","63","19","1288.70391605","1","1","0","18","0","left","2","in","Male","Right-handed","2","yes","left","d","650.270828315","1329.18284543","14","red","0"
"95","60","19","1275.18265557","0","0","0","19","1","right","0","in","Male","Right-handed","2","yes","left","s","720.894014066","1315.66339868","14","green","1"
"95","61","19","1252.63805025","1","1","0","20","3","right","2","out","Male","Right-handed","2","yes","right","d","690.264709061","913.2271786","14","red","0"
"95","63","19","1237.97114475","1","1","0","21","1","right","0","out","Male","Right-handed","2","yes","right","s","979.005313293","880.926945149","14","red","3"
"100","0","19","934.208876319","1","0","1","22","0","left","2","in","Male","Right-handed","2","no","left","d","675.210317295","1193.20743534","14","red","0"
"100","50","19","1191.51461806","1","1","1","23","1","left","1","in","Male","Right-handed","2","no","left","s","647.916454862","2249.72426474","14","green","0"
"100","66","19","1044.75132298","1","1","1","24","3","left","2","in","Male","Right-handed","2","no","left","d","573.270532936","929.178932704","14","red","0"
"100","75","19","1136.79708354","1","1","1","25","1","left","2","out","Male","Right-handed","2","no","left","d","823.945398803","2001.92333165","14","red","3"
"100","80","19","1087.52053783","1","1","1","26","0","left","2","out","Male","Right-handed","2","no","left","s","635.461784004","1145.36692594","14","red","1"
"100","83","19","1048.76676287","1","1","1","27","2","left","2","out","Male","Right-handed","2","no","left","s","755.913274646","954.082501532","14","red","3"
"100","85","19","1061.45875947","1","1","1","28","3","left","2","in","Male","Right-handed","2","no","left","d","561.637856248","1713.58362195","14","green","0"
"100","87","19","1063.22670153","1","1","1","29","0","right","2","out","Male","Right-handed","2","no","right","s","606.140036631","1545.06455524","14","green","0"
"100","77","19","1155.4660652","1","0","1","30","2","left","2","out","Male","Right-handed","2","no","left","None","786.615702815","3000.14624633","14","green","3"
"100","70","19","1143.48185567","1","0","1","31","1","right","1","in","Male","Right-handed","2","no","right","s","1006.08622055","1065.16171925","14","green","2"
"100","72","19","1113.90960607","1","1","1","32","1","left","0","in","Male","Right-handed","2","no","left","d","802.739681214","833.634538765","14","green","1"
"100","66","19","1089.73722272","1","0","1","33","2","left","2","out","Male","Right-handed","2","no","left","d","702.334200443","945.347811292","14","green","3"
"100","69","19","1065.85837528","1","1","1","34","2","right","0","out","Male","Right-handed","2","no","right","d","580.786503771","977.837908395","14","green","2"
"100","71","19","1048.68490784","1","1","1","35","3","right","2","out","Male","Right-handed","2","no","right","s","545.342936413","1105.5167258","14","red","3"
"100","73","19","1047.4435169","1","1","1","36","3","right","1","out","Male","Right-handed","2","no","right","d","795.011396629","1265.11669078","14","red","3"
"100","68","19","1035.16728086","1","0","1","37","2","left","2","out","Male","Right-handed","2","no","left","s","932.57050051","769.476980156","14","green","0"
"100","70","19","1025.1679517","1","1","1","38","1","right","2","in","Male","Right-handed","2","no","right","s","497.172410629","1233.18495959","14","green","0"
"100","66","19","1049.46681383","1","0","1","39","3","right","0","in","Male","Right-handed","2","no","right","d","627.636964014","2297.45797583","14","green","2"
"100","68","19","1037.73946085","1","1","1","40","1","right","1","out","Male","Right-handed","2","no","right","s","596.167384054","1057.12683052","14","green","2"
"100","70","19","1037.47042601","1","1","1","41","2","right","1","out","Male","Right-handed","2","no","right","s","791.925150104","1272.792378","14","red","2"
"100","71","19","1028.2214484","1","1","1","42","0","right","2","in","Male","Right-handed","2","no","right","d","685.280467424","1001.20332505","14","green","1"
"100","72","19","1056.02191415","1","1","1","43","0","left","1","in","Male","Right-handed","2","no","left","d","1198.84465401","2080.81873569","14","green","3"
"100","73","19","1046.66886547","1","1","1","44","2","left","2","out","Male","Right-handed","2","no","left","d","696.490761624","985.31282763","14","green","3"
"100","75","19","1037.8481729","1","1","1","45","3","right","2","in","Male","Right-handed","2","no","right","d","708.893797266","961.050690068","14","red","3"
"100","72","19","1042.81576138","1","0","1","46","0","right","2","in","Male","Right-handed","2","no","right","d","930.51022329","1393.56554642","14","red","3"
"100","73","19","1036.17142532","1","1","1","47","2","left","3","out","Male","Right-handed","2","no","left","s","843.012905276","897.113142379","14","red","0"
"100","70","19","1058.63639149","1","0","1","48","0","left","3","out","Male","Right-handed","2","no","left","d","907.811253721","2377.63977028","14","green","2"
"100","71","19","1051.04918339","1","1","1","49","1","right","0","out","Male","Right-handed","2","no","right","s","715.192331561","977.196797849","14","red","2"
"100","72","19","1059.17231059","1","1","1","50","0","right","1","out","Male","Right-handed","2","no","right","d","684.569761586","1888.66998265","14","red","2"
"100","73","19","1047.25887556","1","1","1","51","0","left","1","out","Male","Right-handed","2","no","left","s","570.305837635","833.232682078","14","green","2"
"100","74","19","1036.05226494","1","1","1","52","0","left","2","out","Male","Right-handed","2","no","left","s","574.956214299","824.751677905","14","green","0"
"100","75","19","1036.82898873","1","1","1","53","2","right","0","in","Male","Right-handed","2","no","right","s","936.541601466","1185.27325132","14","red","1"
"100","72","19","1026.56104665","1","0","1","54","3","left","3","in","Male","Right-handed","2","no","left","s","658.94169614","737.032103956","14","red","1"
"100","73","19","1015.53372486","1","1","1","55","0","left","0","in","Male","Right-handed","2","no","left","s","782.670259108","520.593952522","14","red","1"
"100","71","19","1023.62838515","1","0","1","56","1","right","0","out","Male","Right-handed","2","no","right","s","1100.49399829","1497.19967146","14","green","3"
"100","72","19","1017.27121831","1","1","1","57","3","right","1","in","Male","Right-handed","2","no","right","d","716.760951716","872.779805948","14","green","2"
"100","70","19","1007.29661001","1","0","1","58","0","right","0","out","Male","Right-handed","2","no","right","d","599.187242446","697.234180461","14","red","2"
"100","71","19","1000.07572265","1","1","1","59","2","left","1","in","Male","Right-handed","2","no","left","s","640.900158978","824.905621408","14","red","2"
"100","71","19","993.557012092","1","1","1","60","2","right","2","in","Male","Right-handed","2","no","right","s","858.403407026","633.288614881","14","green","1"
"100","72","19","989.195531341","1","1","1","61","3","left","3","out","Male","Right-handed","2","no","left","s","797.071673849","841.123890204","14","red","2"
"100","73","19","1001.19297219","1","1","1","62","1","right","3","in","Male","Right-handed","2","no","right","d","905.638405311","2056.54280736","14","red","0"
"100","73","19","1004.08543226","1","1","1","63","0","right","3","out","Male","Right-handed","2","no","right","d","556.160353968","1689.19223599","14","green","0"
"100","74","19","1003.56591032","1","1","1","64","2","left","2","out","Male","Right-handed","2","no","left","s","570.74521805","1392.74675941","14","red","0"
"100","75","19","999.512851177","1","1","1","65","3","left","2","in","Male","Right-handed","2","no","left","d","761.262169955","889.200446309","14","red","1"
"100","75","19","1007.04230236","1","1","1","66","2","right","3","out","Male","Right-handed","2","no","right","s","875.881767541","1800.7945409","14","green","1"
"100","73","19","1006.46257337","1","0","1","67","3","right","2","out","Male","Right-handed","2","no","right","s","671.433570009","1289.31596808","14","green","1"
"100","74","19","1018.6750256","1","1","1","68","3","left","2","in","Male","Right-handed","2","no","left","s","759.980269573","2400.91538656","14","red","0"
"100","75","19","1013.13827622","1","1","1","69","3","left","2","in","Male","Right-handed","2","no","left","d","545.462563347","960.35954788","14","green","1"
"100","75","19","1007.76045433","1","1","1","70","0","left","2","in","Male","Right-handed","2","no","left","s","722.075851168","777.174155322","14","green","3"
"100","76","19","1002.34929332","1","1","1","71","1","right","0","out","Male","Right-handed","2","no","right","d","641.686874424","832.717933488","14","green","2"
"100","76","19","999.650611761","1","1","1","72","0","left","2","in","Male","Right-handed","2","no","left","d","696.277485731","1033.15558204","14","red","1"
"100","75","19","996.567429931","1","0","1","73","0","left","2","in","Male","Right-handed","2","no","left","d","573.86000827","1104.7903049","14","red","0"
"100","75","19","993.187028752","1","1","1","74","2","right","3","in","Male","Right-handed","2","no","right","s","754.380895356","880.431439498","14","red","2"
"100","75","19","994.349237039","1","1","1","75","3","right","3","out","Male","Right-handed","2","no","right","d","559.001573751","1552.89097882","14","green","0"
"100","74","19","989.315950585","1","0","1","76","1","right","2","out","Male","Right-handed","2","no","right","d","650.466464849","784.570499229","14","red","1"
"100","75","19","1003.00806636","1","1","1","77","2","left","1","out","Male","Right-handed","2","no","left","s","1447.01441007","2065.13445843","14","red","3"
"100","75","19","1000.26412058","1","1","1","78","3","left","3","out","Male","Right-handed","2","no","left","s","700.585338098","992.620974739","14","red","2"
"100","74","19","996.866384327","1","0","1","79","0","left","0","out","Male","Right-handed","2","no","left","s","973.213830413","633.177005842","14","red","3"
"100","74","19","1000.69507775","1","1","1","80","3","right","2","in","Male","Right-handed","2","no","right","d","844.810195678","1600.70839669","14","green","3"
"100","75","19","1003.88117497","1","1","1","81","1","right","2","in","Male","Right-handed","2","no","right","s","1663.32427525","720.397546269","14","green","1"
"100","75","19","1002.2908665","1","1","1","82","1","left","3","out","Male","Right-handed","2","no","left","d","668.814285444","1144.93043197","14","green","2"
"100","75","19","998.117321647","1","1","1","83","0","right","1","out","Male","Right-handed","2","no","right","d","558.550647573","928.511523474","14","red","0"
"100","76","19","1006.94006229","1","1","1","84","2","left","2","in","Male","Right-handed","2","no","left","d","1579.04149002","1528.85847364","14","green","1"
"100","75","19","1004.30931062","1","0","1","85","0","right","2","in","Male","Right-handed","2","no","right","s","964.581448461","712.562463381","14","green","3"
"100","75","19","999.728040545","1","1","1","86","0","right","3","in","Male","Right-handed","2","no","right","d","700.050384428","713.003126657","14","green","1"
"100","75","19","999.015718866","1","1","1","87","0","right","2","out","Male","Right-handed","2","no","right","s","728.821463061","1176.60815638","14","red","3"
"100","74","19","999.8480861","1","0","1","88","0","right","3","in","Male","Right-handed","2","no","right","s","925.200776004","1184.36787109","14","red","2"
"100","73","19","1005.76592232","1","0","1","89","2","right","3","out","Male","Right-handed","2","no","right","s","579.758289459","2224.76360853","14","green","2"
"100","73","19","1007.24313712","1","1","1","90","3","right","0","in","Male","Right-handed","2","no","right","d","1007.08332545","1208.30416157","14","red","3"
"100","74","19","1005.95228283","1","1","1","91","3","right","2","out","Male","Right-handed","2","no","right","d","640.894706812","1192.87196679","14","red","1"
"100","73","19","1006.94475597","1","0","1","92","3","right","1","in","Male","Right-handed","2","no","right","d","600.388643201","1552.44710838","14","red","0"
"100","72","19","1004.30529333","1","0","1","93","1","left","2","out","Male","Right-handed","2","no","left","s","776.90796135","856.898929997","14","green","3"
"100","72","19","1008.2314303","1","1","1","94","1","right","2","out","Male","Right-handed","2","no","right","d","813.536893682","1768.28969088","14","green","1"
"100","72","19","1006.89769394","1","1","1","95","3","right","2","out","Male","Right-handed","2","no","right","s","578.997551977","1240.07232779","14","green","0"
"100","73","19","1008.58029773","1","1","1","96","2","right","1","out","Male","Right-handed","2","no","right","d","505.574839473","1760.61111722","14","red","0"
"100","72","19","1003.90994133","1","0","1","97","3","left","2","out","Male","Right-handed","2","no","left","d","547.04946429","760.216957711","14","red","3"
"100","71","19","1007.56981358","1","0","1","98","2","right","0","in","Male","Right-handed","2","no","right","s","810.707540379","1760.73266844","14","green","3"
"100","71","19","1006.0078323","1","1","1","99","3","left","0","in","Male","Right-handed","2","no","left","s","827.203228197","944.267320327","14","green","1"
"100","70","19","1010.5051745","1","0","1","100","2","left","2","in","Male","Right-handed","2","no","left","d","593.855986492","2128.73974472","14","red","0"
"100","71","19","1009.74691688","1","1","1","101","2","left","2","out","Male","Right-handed","2","no","left","s","1003.36591056","896.323219782","14","green","1"
"100","70","19","1007.7871953","1","0","1","102","1","left","1","out","Male","Right-handed","2","no","left","s","838.029946499","863.988990473","14","red","3"
"100","70","19","1005.25325947","1","1","1","103","1","left","2","in","Male","Right-handed","2","no","left","d","671.519201085","928.48971481","14","red","3"
"100","69","19","1003.02730634","1","0","1","104","3","right","1","in","Male","Right-handed","2","no","right","s","904.997936195","736.000361769","14","green","2"
"100","70","19","1001.25508817","1","1","1","105","1","left","2","in","Male","Right-handed","2","no","left","s","627.679939913","1080.64202138","14","green","0"
"100","70","19","1000.44281962","1","1","1","106","3","left","0","out","Male","Right-handed","2","no","left","d","616.182284502","1248.2422378","14","green","2"
"100","69","19","1006.58094865","1","0","1","107","2","right","2","in","Male","Right-handed","2","no","right","d","863.88860648","2192.7552263","14","red","0"
"100","70","19","1013.10091285","1","1","1","108","0","left","2","in","Male","Right-handed","2","no","left","d","667.402174513","2480.23349381","14","green","1"
"100","70","19","1011.43916854","1","1","1","109","0","left","0","in","Male","Right-handed","2","no","left","s","789.799446895","943.935379648","14","green","2"
"100","70","19","1017.07806596","1","1","1","110","1","left","2","out","Male","Right-handed","2","no","left","s","1026.39425508","2000.20782373","14","green","1"
"100","71","19","1015.15978605","1","1","1","111","1","left","3","in","Male","Right-handed","2","no","left","s","1040.88771521","647.978032263","14","green","1"
"100","70","19","1025.32499622","1","0","1","112","2","right","2","in","Male","Right-handed","2","no","right","None","880.304756822","3000.08306535","14","red","1"
"100","69","19","1023.17935453","1","0","1","113","2","left","0","out","Male","Right-handed","2","no","left","s","975.888598783","679.96332296","14","red","2"
"100","69","19","1022.36998086","1","1","1","114","1","right","3","in","Male","Right-handed","2","no","right","d","735.494593217","1160.320613","14","red","2"
"100","69","19","1022.86580653","1","0","1","115","1","right","2","in","Male","Right-handed","2","no","right","s","1426.13582243","711.81936526","14","red","3"
"100","68","19","1022.32614778","1","0","1","116","1","left","2","in","Male","Right-handed","2","no","left","d","662.64018881","1280.55626202","14","red","0"
"100","67","19","1018.068651","1","0","1","117","1","right","2","out","Male","Right-handed","2","no","right","s","499.029354138","728.18355967","14","red","0"
"100","100","19","723.322472833","1","1","2","118","1","left","2","out","Male","Right-handed","2","no","left","s","781.281560423","665.363385244","14","green","1"
"100","100","19","734.576865434","1","1","2","119","3","left","0","in","Male","Right-handed","2","no","left","d","642.888916613","848.773599457","14","green","2"
"100","66","19","765.86967763","1","0","2","120","3","left","2","in","Male","Right-handed","2","no","left","d","535.453028471","1121.45757557","14","green","1"
"100","75","19","754.290333278","1","1","2","121","2","left","2","out","Male","Right-handed","2","no","left","s","582.066479863","857.038120583","14","red","1"
"100","80","19","752.561764219","1","1","2","122","1","right","3","out","Male","Right-handed","2","no","right","d","586.581835247","904.713140717","14","red","2"
"100","66","19","784.353508378","1","0","2","123","0","right","1","in","Male","Right-handed","2","no","right","d","645.359389127","1241.26506922","14","green","2"
"100","71","19","875.772495144","1","1","2","124","2","right","2","in","Male","Right-handed","2","no","right","s","479.747930342","2368.82490113","14","green","0"
"100","75","19","971.219600569","1","1","2","125","1","left","1","in","Male","Right-handed","2","no","left","d","557.372979773","2721.32569731","14","red","0"
"100","77","19","1007.00546282","1","1","2","126","2","right","0","out","Male","Right-handed","2","no","right","d","745.819712272","1840.76500941","14","red","2"
"100","70","19","995.834866087","1","0","2","127","3","left","0","out","Male","Right-handed","2","no","left","s","629.337719016","1161.26127195","14","red","2"
"100","72","19","977.503576927","1","1","2","128","3","left","2","out","Male","Right-handed","2","no","left","d","739.636956318","848.744414339","14","red","1"
"100","75","19","973.000808418","1","1","2","129","0","right","0","in","Male","Right-handed","2","no","right","d","494.436064859","1352.50464476","14","green","2"
"100","69","19","1000.11960226","1","0","2","130","2","right","2","out","Male","Right-handed","2","no","right","d","594.054188754","2057.036068","14","red","0"
"100","71","19","990.367821428","1","1","2","131","1","right","2","in","Male","Right-handed","2","no","right","d","878.565515948","848.623825259","14","red","3"
"100","73","19","975.685061954","1","1","2","132","0","right","2","out","Male","Right-handed","2","no","right","s","571.044125016","969.208733601","14","green","1"
"100","68","19","963.504645727","1","0","2","133","3","left","2","in","Male","Right-handed","2","no","left","s","760.82214811","800.774656534","14","red","0"
"100","64","19","979.875103523","1","0","2","134","2","left","1","out","Male","Right-handed","2","no","left","s","531.387637118","1952.21721942","14","green","0"
"100","61","19","997.125336703","1","0","2","135","3","left","3","in","Male","Right-handed","2","no","left","d","579.890103581","2000.86849793","14","red","1"
"100","63","19","1005.81980714","1","1","2","136","2","right","2","out","Male","Right-handed","2","no","right","s","620.345173407","1704.29537653","14","red","0"
"100","65","19","999.199493783","1","1","2","137","0","right","2","out","Male","Right-handed","2","no","right","s","489.927765219","1256.89931485","14","red","0"
"100","66","19","980.523672731","1","1","2","138","0","left","3","out","Male","Right-handed","2","no","left","s","605.424199344","608.590304062","14","red","1"
"100","63","19","981.844783722","1","0","2","139","2","left","0","out","Male","Right-handed","2","no","left","s","1042.10130316","977.074925908","14","green","3"
"100","65","19","965.419952509","1","1","2","140","1","right","2","in","Male","Right-handed","2","no","right","d","415.550602993","792.596728635","14","green","0"
"100","66","19","948.976635172","1","1","2","141","3","right","1","out","Male","Right-handed","2","no","right","s","445.221288977","696.339383849","14","red","0"
"100","68","19","941.092415172","1","1","2","142","0","right","0","in","Male","Right-handed","2","no","right","s","831.844945536","671.897324814","14","red","2"
"100","69","19","929.878382659","1","1","2","143","1","left","2","in","Male","Right-handed","2","no","left","s","786.554766844","512.500372832","14","green","3"
"100","70","19","919.627759858","1","1","2","144","3","right","1","in","Male","Right-handed","2","no","right","s","657.172949432","649.050184617","14","red","2"
"100","71","19","914.063295704","1","1","2","145","2","right","3","in","Male","Right-handed","2","no","right","s","726.801916724","800.843610399","14","red","1"
"100","68","19","901.655769653","1","0","2","146","3","right","2","in","Male","Right-handed","2","no","right","s","372.171568753","736.318511674","14","red","0"
"100","70","19","897.66285432","1","1","2","147","2","right","2","out","Male","Right-handed","2","no","right","s","410.911772091","1152.82484725","14","red","0"
"100","70","19","883.850904393","1","1","2","148","0","right","2","in","Male","Right-handed","2","no","right","s","506.420887312","432.563925842","14","red","0"
"100","71","19","875.188084685","1","1","2","149","0","left","2","out","Male","Right-handed","2","no","left","s","669.188239874","544.093107597","14","red","1"
"100","72","19","887.477173187","1","1","2","150","0","left","2","in","Male","Right-handed","2","no","left","d","1560.73087244","1000.72513804","14","red","3"
"100","73","19","879.32556955","1","1","2","151","3","right","2","out","Male","Right-handed","2","no","right","s","460.348803906","760.296495187","14","green","0"
"100","74","19","875.868471587","1","1","2","152","1","left","2","out","Male","Right-handed","2","no","left","d","675.880292249","840.77398945","14","green","1"
"100","75","19","889.231319642","1","1","2","153","2","left","0","out","Male","Right-handed","2","no","left","d","857.44190156","1856.42010156","14","green","2"
"100","75","19","882.589686675","1","1","2","154","2","right","2","in","Male","Right-handed","2","no","right","s","590.006116047","696.975683662","14","red","3"
"100","76","19","896.42087769","1","1","2","155","2","right","3","in","Male","Right-handed","2","no","right","s","655.662378806","2160.68751168","14","green","2"
"100","76","19","902.901878623","1","1","2","156","2","right","2","out","Male","Right-handed","2","no","right","d","482.113528844","1816.24629934","14","green","1"
"100","77","19","896.133267929","1","1","2","157","3","left","2","in","Male","Right-handed","2","no","left","s","767.644090316","496.670811383","14","green","3"
"100","78","19","894.746800758","1","1","2","158","0","right","0","in","Male","Right-handed","2","no","right","d","782.180205624","896.396022228","14","red","3"
"100","78","19","892.832795196","1","1","2","159","0","left","3","in","Male","Right-handed","2","no","left","s","643.890832245","984.826302018","14","red","0"
"100","79","19","889.162784597","1","1","2","160","1","right","0","out","Male","Right-handed","2","no","right","s","685.516193411","784.528485481","14","red","2"
"100","77","19","905.650319169","1","0","2","161","3","right","1","out","Male","Right-handed","2","no","right","d","829.099299012","2400.12931254","14","green","2"
"100","77","19","908.157152655","1","1","2","162","0","left","0","in","Male","Right-handed","2","no","left","d","852.516350886","1184.39930122","14","red","1"
"100","78","19","907.169592376","1","1","2","163","3","left","2","out","Male","Right-handed","2","no","left","s","941.246499788","784.212259867","14","red","3"
"100","78","19","910.459187745","1","1","2","164","2","left","2","out","Male","Right-handed","2","no","left","d","826.762885634","1296.79826377","14","red","3"
"100","79","19","903.923518783","1","1","2","165","1","right","0","in","Male","Right-handed","2","no","right","d","321.206006236","872.288148887","14","red","2"
"100","79","19","921.983294603","1","1","2","166","2","right","3","in","Male","Right-handed","2","no","right","d","1024.9337161","2552.77135188","14","green","0"
"100","80","19","916.780541028","1","1","2","167","0","right","1","out","Male","Right-handed","2","no","right","d","547.314054689","776.377176979","14","green","3"
"100","78","19","920.461488791","1","0","2","168","0","left","2","in","Male","Right-handed","2","no","left","s","808.991711747","1400.02604211","14","red","1"
"100","76","19","924.595221717","1","0","2","169","2","right","1","out","Male","Right-handed","2","no","right","d","638.373561229","1632.45764068","14","green","3"
"100","75","19","928.847364175","1","0","2","170","1","right","3","in","Male","Right-handed","2","no","right","s","899.897595497","1400.01994851","14","red","1"
"100","75","19","926.832449447","1","1","2","171","1","left","0","out","Male","Right-handed","2","no","left","d","703.635343761","936.448593933","14","green","1"
"100","74","19","927.928523682","1","0","2","172","3","right","0","in","Male","Right-handed","2","no","right","s","846.162974216","1128.07009048","14","green","1"
"100","73","19","942.378076173","1","0","2","173","0","left","2","in","Male","Right-handed","2","no","left","s","1217.67964165","2256.52728472","14","green","0"
"100","73","19","938.603496333","1","1","2","174","2","left","2","in","Male","Right-handed","2","no","left","d","582.184503215","872.269547377","14","green","3"
"100","74","19","942.534435708","1","1","2","175","2","left","1","out","Male","Right-handed","2","no","left","s","636.648752563","1696.54720758","14","red","2"
"100","74","19","943.859013995","1","1","2","176","2","left","0","in","Male","Right-handed","2","no","left","d","937.171807687","1104.19730169","14","green","1"
"100","75","19","940.258382946","1","1","2","177","0","left","2","out","Male","Right-handed","2","no","left","d","583.801872148","871.840429863","14","green","3"
"100","73","19","949.760895193","1","0","2","178","3","left","3","out","Male","Right-handed","2","no","left","s","663.522477516","2376.30078251","14","green","2"
"100","74","19","952.480754553","1","1","2","179","3","left","2","out","Male","Right-handed","2","no","left","d","612.800017447","1623.98433368","14","green","3"
"100","74","19","965.073920041","1","1","2","180","1","left","2","out","Male","Right-handed","2","no","left","s","1739.37717665","1752.32318386","14","green","3"
"100","73","19","963.774708333","1","0","2","181","1","right","1","in","Male","Right-handed","2","no","right","s","547.859912694","1215.98882883","14","green","2"
"100","72","19","959.854694602","1","0","2","182","1","left","2","in","Male","Right-handed","2","no","left","d","513.431731029","904.515900598","14","green","0"
"100","72","19","964.091523747","1","1","2","183","1","right","3","in","Male","Right-handed","2","no","right","d","679.050566272","1799.92027009","14","red","0"
"100","71","19","972.672799895","1","0","2","184","1","right","0","in","Male","Right-handed","2","no","right","s","758.58868445","2319.48536687","14","green","3"
"100","70","19","967.906076314","1","0","2","185","3","right","2","in","Male","Right-handed","2","no","right","d","457.05120578","840.019986998","14","green","0"
"100","71","19","964.583925873","1","1","2","186","1","right","2","out","Male","Right-handed","2","no","right","s","461.754821237","1015.60057049","14","red","0"
"100","71","19","960.009207288","1","1","2","187","1","right","1","out","Male","Right-handed","2","no","right","d","584.376594557","704.330655251","14","green","2"
"100","71","19","956.450941302","1","1","2","188","3","right","2","in","Male","Right-handed","2","no","right","s","742.840264051","671.904380561","14","red","3"
"100","72","19","951.619086988","1","1","2","189","1","left","2","out","Male","Right-handed","2","no","left","s","593.620581221","623.494280196","14","green","3"
"100","72","19","948.723508071","1","1","2","190","0","left","1","in","Male","Right-handed","2","no","left","s","784.191092636","696.292559365","14","green","2"
"100","71","19","954.50027048","1","0","2","191","3","left","2","in","Male","Right-handed","2","no","left","s","1736.70176685","1015.70608593","14","red","1"
"100","70","19","954.889246736","1","0","2","192","0","left","2","out","Male","Right-handed","2","no","left","s","1079.1385065","888.208472857","14","green","3"
"100","71","19","954.342224223","1","1","2","193","3","left","3","in","Male","Right-handed","2","no","left","d","658.859272226","1167.77179928","14","green","2"
"100","70","19","962.360124094","1","0","2","194","1","right","1","out","Male","Right-handed","2","no","right","d","1215.21750774","1928.22352084","14","green","3"
"100","70","19","964.378143532","1","1","2","195","1","left","2","out","Male","Right-handed","2","no","left","d","1199.73720561","1039.79407491","14","red","1"
"100","70","19","960.479844661","1","1","2","196","0","right","1","out","Male","Right-handed","2","no","right","s","512.447775469","800.37728987","14","green","0"
"100","70","19","957.899462545","1","0","2","197","2","right","3","out","Male","Right-handed","2","no","right","d","788.114086244","719.984464533","14","green","2"
"100","70","19","963.406902688","1","1","2","198","0","right","3","out","Male","Right-handed","2","no","right","d","1136.52992742","1671.4743009","14","red","2"
"100","70","19","961.927487494","1","1","2","199","3","left","2","in","Male","Right-handed","2","no","left","d","796.155068572","888.034644984","14","green","1"
"100","69","19","976.692103499","1","0","2","200","1","right","2","out","Male","Right-handed","2","no","right","None","1374.70041151","3000.08082034","14","red","1"
"100","69","19","978.630925521","1","0","2","201","3","right","0","out","Male","Right-handed","2","no","right","s","655.071299898","1624.03500675","14","green","3"
"100","69","19","973.425353691","1","1","2","202","3","left","1","out","Male","Right-handed","2","no","left","s","608.645146433","463.669493562","14","red","3"
"100","69","19","969.824505749","1","1","2","203","1","left","2","in","Male","Right-handed","2","no","left","s","567.162824442","760.342036807","14","red","0"
"100","70","19","967.554240912","1","1","2","204","3","right","3","out","Male","Right-handed","2","no","right","s","592.871068788","951.751861034","14","green","0"
"98","70","19","974.262537729","0","1","2","205","0","left","2","out","Male","Right-handed","2","no","right","s","697.417629803","2418.3510919","14","red","3"
"98","69","19","972.09103021","1","0","2","206","1","left","3","in","Male","Right-handed","2","no","left","d","785.941558555","776.055178485","14","red","2"
"98","70","19","966.941097688","1","1","2","207","2","right","2","in","Male","Right-handed","2","no","right","s","569.624637632","447.569568835","14","green","1"
"98","70","19","969.386857652","1","1","2","208","2","left","1","in","Male","Right-handed","2","no","left","d","1179.01897578","1199.99153311","14","green","2"
"98","69","19","970.172407381","1","0","2","209","0","left","2","in","Male","Right-handed","2","no","left","s","931.642990901","1151.67187456","14","red","1"
"98","68","19","978.963751309","1","0","2","210","2","left","2","in","Male","Right-handed","2","no","left","d","1183.30694379","2392.22784152","14","red","1"
"98","69","19","978.237446718","1","1","2","211","0","left","2","out","Male","Right-handed","2","no","left","d","565.634614453","1255.74762502","14","red","0"
"98","68","19","975.921887379","1","0","2","212","2","right","2","in","Male","Right-handed","2","no","right","s","861.208385944","655.31023304","14","green","3"
"98","68","19","971.644595552","1","1","2","213","0","right","3","out","Male","Right-handed","2","no","right","s","570.908462305","559.695281667","14","red","2"
"100","100","19","1086.53645398","1","1","3","214","1","right","3","out","Male","Right-handed","2","no","right","s","1468.55719979","704.51570817","14","green","2"
"100","100","19","819.396688996","1","1","3","215","2","right","2","out","Male","Right-handed","2","no","right","s","632.237309041","472.276538978","14","red","3"
"100","66","19","753.197668483","1","0","3","216","1","left","1","out","Male","Right-handed","2","no","left","d","560.802392029","680.796862889","14","green","3"
"100","75","19","748.767610095","1","1","3","217","0","left","3","out","Male","Right-handed","2","no","left","s","614.476398056","856.478471804","14","green","1"
"100","80","19","726.519654898","1","1","3","218","3","right","2","out","Male","Right-handed","2","no","right","d","474.961570249","800.094097965","14","green","3"
"100","83","19","728.032342247","1","1","3","219","2","right","2","out","Male","Right-handed","2","no","right","d","630.621864402","840.569693592","14","green","1"
"100","85","19","719.786880797","1","1","3","220","2","left","2","in","Male","Right-handed","2","no","left","s","564.298192417","776.330031778","14","red","3"
"100","87","19","716.912289407","1","1","3","221","1","left","3","in","Male","Right-handed","2","no","left","d","704.764904218","688.815395122","14","green","1"
"100","88","19","697.483857581","1","1","3","222","0","left","0","in","Male","Right-handed","2","no","left","s","483.652001731","600.460804221","14","green","3"
"100","90","19","690.460040917","1","1","3","223","0","left","3","in","Male","Right-handed","2","no","left","d","494.227920415","760.263461478","14","green","0"
"100","90","19","690.214531643","1","1","3","224","2","left","2","out","Male","Right-handed","2","no","left","s","798.737150129","576.781727676","14","red","1"
"100","91","19","701.678991769","1","1","3","225","0","right","1","in","Male","Right-handed","2","no","right","d","631.296970809","1024.27913549","14","green","2"
"100","92","19","704.428559866","1","1","3","226","2","right","1","out","Male","Right-handed","2","no","right","d","882.894535549","591.952218503","14","red","3"
"100","92","19","705.614777734","1","1","3","227","2","right","1","out","Male","Right-handed","2","no","right","d","497.472600458","944.598619575","14","red","0"
"100","93","19","732.546714103","1","1","3","228","0","left","2","in","Male","Right-handed","2","no","left","d","571.115644605","1648.07200194","14","green","0"
"100","93","19","720.464686082","1","1","3","229","1","left","3","in","Male","Right-handed","2","no","left","s","501.647035129","576.821496415","14","green","2"
"100","94","19","726.631239412","1","1","3","230","1","left","2","out","Male","Right-handed","2","no","left","d","538.266666706","1112.32551867","14","green","0"
"100","94","19","722.064216321","1","1","3","231","3","right","2","out","Male","Right-handed","2","no","right","s","376.832529033","912.017118517","14","green","0"
"100","94","19","738.875602728","1","1","3","232","2","right","2","in","Male","Right-handed","2","no","right","d","394.422498586","1688.53861753","14","green","0"
"100","95","19","734.937389894","1","1","3","233","0","right","1","out","Male","Right-handed","2","no","right","d","656.069687658","664.153004447","14","green","3"
"100","95","19","732.78250729","1","1","3","234","1","left","3","in","Male","Right-handed","2","no","left","s","786.63238003","592.737330371","14","red","0"
"100","90","19","744.212577085","1","0","3","235","0","right","0","in","Male","Right-handed","2","no","right","d","560.209388823","1408.27869675","14","green","1"
"100","91","19","739.936602328","1","1","3","236","0","left","0","in","Male","Right-handed","2","no","left","d","571.825067582","719.905247774","14","red","2"
"100","87","19","744.832930408","1","0","3","237","1","left","2","out","Male","Right-handed","2","no","left","d","650.436959011","1064.45999345","14","red","3"
"100","88","19","735.841081556","1","1","3","238","3","left","1","in","Male","Right-handed","2","no","left","s","472.055886625","568.017531601","14","green","2"
"100","88","19","745.506342263","1","1","3","239","1","right","2","out","Male","Right-handed","2","no","right","s","493.668913066","1480.60680681","14","red","0"
"100","88","19","774.637413458","1","1","3","240","0","right","2","in","Male","Right-handed","2","no","right","d","680.186220325","2383.90430872","14","green","1"
"100","85","19","765.500255221","1","0","3","241","3","right","3","out","Male","Right-handed","2","no","right","d","477.714913952","559.879051722","14","green","2"
"100","86","19","756.128414008","1","1","3","242","1","right","1","in","Male","Right-handed","2","no","right","s","539.20283564","448.230884464","14","red","2"
"96","83","19","814.537569217","0","0","3","243","3","left","0","out","Male","Right-handed","2","no","None","s","3000.08883823","2016.71730232","14","red","3"
"96","83","19","808.368328496","1","1","3","244","3","left","2","out","Male","Right-handed","2","no","left","d","622.301538762","624.280674925","14","green","3"
"96","84","19","805.383926478","1","1","3","245","1","left","0","out","Male","Right-handed","2","no","left","s","529.788228261","895.946699628","14","red","3"
"96","84","19","799.799316567","1","1","3","246","0","left","1","out","Male","Right-handed","2","no","left","d","553.506111395","688.6774874","14","green","2"
"97","85","19","795.619006544","1","1","3","247","3","right","2","out","Male","Right-handed","2","no","right","s","563.03874213","752.298809472","14","red","0"
"97","85","19","796.421716132","1","1","3","248","2","right","3","out","Male","Right-handed","2","no","right","d","703.66549103","943.762193209","14","red","2"
"97","83","19","792.919520011","1","0","3","249","0","left","2","in","Male","Right-handed","2","no","left","s","556.349896906","784.335414668","14","green","1"
"97","83","19","791.365796037","1","1","3","250","3","left","0","out","Male","Right-handed","2","no","left","d","598.861395363","872.002070541","14","red","2"
"97","84","19","788.267130903","1","1","3","251","2","right","2","out","Male","Right-handed","2","no","right","d","491.533588385","855.699453532","14","red","0"
"97","84","19","784.224726661","1","1","3","252","0","right","2","in","Male","Right-handed","2","no","right","s","581.142498125","680.084232754","14","green","1"
"97","85","19","781.024170092","1","1","3","253","2","right","0","in","Male","Right-handed","2","no","right","s","488.736306645","823.668621215","14","green","2"
"97","82","19","775.825565646","1","0","3","254","2","left","0","out","Male","Right-handed","2","no","left","d","551.361485963","584.401289663","14","green","3"
"97","80","19","777.733063401","1","0","3","255","2","left","3","out","Male","Right-handed","2","no","left","d","863.899190099","847.981752566","14","red","2"
"97","81","19","771.471935805","1","1","3","256","1","left","0","in","Male","Right-handed","2","no","left","s","609.539943049","407.469210495","14","green","2"
"97","81","19","770.38437579","1","1","3","257","2","right","2","in","Male","Right-handed","2","no","right","d","871.083861686","576.154728616","14","green","1"
"97","80","19","763.736355644","1","0","3","258","3","right","2","in","Male","Right-handed","2","no","right","s","494.657037929","447.789900471","14","red","0"
"97","78","19","759.912835627","1","0","3","259","3","left","3","out","Male","Right-handed","2","no","left","s","511.243488268","664.465381473","14","green","0"
"97","78","19","755.608570911","1","1","3","260","2","right","0","in","Male","Right-handed","2","no","right","s","523.107400928","592.117387052","14","red","2"
"97","79","19","753.785179431","1","1","3","261","0","right","2","out","Male","Right-handed","2","no","right","d","648.59508914","687.576470635","14","red","3"
"97","79","19","751.426135692","1","1","3","262","1","right","2","out","Male","Right-handed","2","no","right","d","476.122560838","800.261511529","14","green","3"
"98","80","19","751.86349573","1","1","3","263","2","left","3","in","Male","Right-handed","2","no","left","d","618.76500749","927.823267728","14","red","0"
"98","80","19","747.812868743","1","1","3","264","2","left","2","in","Male","Right-handed","2","no","left","d","499.255779378","591.307259365","14","green","0"
"98","80","19","754.019001686","1","1","3","265","1","right","2","in","Male","Right-handed","2","no","right","s","685.069436538","1455.99412706","14","red","1"
"98","81","19","750.198539617","1","1","3","266","3","right","0","out","Male","Right-handed","2","no","right","s","671.497392421","431.571631674","14","green","1"
"98","81","19","748.763932258","1","1","3","267","3","left","2","out","Male","Right-handed","2","no","left","s","537.28495616","808.174528316","14","green","0"
"98","81","19","746.520096902","1","1","3","268","0","left","0","out","Male","Right-handed","2","no","left","s","770.820137219","479.885838063","14","red","2"
"98","82","19","741.572961959","1","1","3","269","0","left","2","out","Male","Right-handed","2","no","left","d","451.418156419","487.54292378","14","green","0"
"98","82","19","738.975083653","1","1","3","270","0","right","2","out","Male","Right-handed","2","no","right","d","579.09120094","607.89659615","14","green","3"
"98","82","19","740.167458681","1","1","3","271","3","left","2","in","Male","Right-handed","2","no","left","d","488.616358998","1127.64931157","14","green","1"
"98","81","19","741.614994441","1","0","3","272","2","left","2","in","Male","Right-handed","2","no","left","s","684.034807906","967.109329071","14","red","1"
"98","80","19","739.868788286","1","0","3","273","1","right","1","in","Male","Right-handed","2","no","right","s","705.76617842","567.919071902","14","green","2"
"98","80","19","740.821440641","1","1","3","274","0","left","3","in","Male","Right-handed","2","no","left","s","924.490711597","671.470452307","14","red","2"
"98","80","19","738.753819271","1","1","3","275","0","right","2","out","Male","Right-handed","2","no","right","s","561.04068374","664.217147576","14","red","1"
"98","80","19","739.19762681","1","1","3","276","2","right","2","out","Male","Right-handed","2","no","right","d","773.75725098","759.670137559","14","red","3"
"98","81","19","738.99539727","1","1","3","277","0","right","2","in","Male","Right-handed","2","no","right","s","573.339166083","879.170706347","14","red","0"
"98","81","19","747.024705046","1","1","3","278","2","right","2","in","Male","Right-handed","2","no","right","s","625.868538023","1895.93226743","14","red","3"
"98","81","19","748.01460745","1","1","3","279","1","left","1","in","Male","Right-handed","2","no","left","s","593.346048637","1031.37047883","14","red","0"
"98","80","19","757.469650165","1","0","3","280","1","right","0","out","Male","Right-handed","2","no","right","s","1163.03611226","1599.96882644","14","red","1"
"98","80","19","758.630344464","1","1","3","281","0","right","3","in","Male","Right-handed","2","no","right","d","1033.47020407","639.323520929","14","red","2"
"98","81","19","757.895961922","1","1","3","282","1","left","0","in","Male","Right-handed","2","no","left","d","743.912737122","672.003160973","14","red","2"
"98","81","19","755.283865635","1","1","3","283","2","left","2","in","Male","Right-handed","2","no","left","s","582.684178167","567.414265497","14","red","0"
"98","81","19","752.733801504","1","1","3","284","1","right","2","in","Male","Right-handed","2","no","right","s","693.206633554","455.251991083","14","red","1"
"98","80","19","751.2155167","1","0","3","285","1","left","2","out","Male","Right-handed","2","no","left","s","838.942703191","447.891888045","14","red","3"
"98","80","19","753.998121248","1","1","3","286","3","left","2","out","Male","Right-handed","2","no","left","d","1013.12881511","895.562482299","14","red","3"
"98","81","19","752.601480515","1","1","3","287","3","left","1","out","Male","Right-handed","2","no","left","d","518.014115976","783.279298091","14","red","3"
"98","81","19","754.989489614","1","1","3","288","3","left","2","in","Male","Right-handed","2","no","left","s","503.743232497","1359.66109338","14","green","1"
"98","81","19","753.861215763","1","1","3","289","0","right","2","out","Male","Right-handed","2","no","right","s","571.216028599","767.265325154","14","green","0"
"98","81","19","754.621652831","1","1","3","290","3","left","2","in","Male","Right-handed","2","no","left","s","961.920150144","662.909589941","14","red","1"
"98","82","19","754.653703061","1","1","3","291","0","left","2","in","Male","Right-handed","2","no","left","d","490.672146199","1023.57099537","14","green","3"
"98","81","19","753.234710462","1","0","3","292","2","left","3","in","Male","Right-handed","2","no","left","s","702.14177106","582.964804348","14","red","1"
"98","81","19","758.245474622","1","1","3","293","2","right","1","in","Male","Right-handed","2","no","right","s","1564.56534854","743.626338066","14","red","2"
"98","81","19","755.862187812","1","1","3","294","3","right","2","out","Male","Right-handed","2","no","right","s","587.11069532","543.287790646","14","green","1"
"98","80","19","753.069352245","1","0","3","295","2","right","0","in","Male","Right-handed","2","no","right","s","661.796706699","391.902635867","14","red","1"
"98","80","19","752.910773538","1","1","3","296","1","right","2","in","Male","Right-handed","2","no","right","d","528.405302458","951.40933674","14","green","1"
"98","80","19","754.020472073","1","1","3","297","0","right","2","out","Male","Right-handed","2","no","right","d","621.168129717","1071.08277125","14","red","3"
"98","81","19","751.650992193","1","1","3","298","2","left","1","out","Male","Right-handed","2","no","left","s","609.640327042","495.589037557","14","red","2"
"98","81","19","753.849739923","1","1","3","299","3","left","0","out","Male","Right-handed","2","no","left","s","874.3032052","1007.18338873","14","green","2"
"98","81","19","753.15366593","1","1","3","300","1","left","2","out","Male","Right-handed","2","no","left","d","714.776363384","671.806241575","14","green","0"
"98","81","19","751.628674158","1","1","3","301","1","left","2","out","Male","Right-handed","2","no","left","s","590.409897028","647.498883107","14","red","0"
"98","80","19","749.18317242","1","0","3","302","3","right","3","in","Male","Right-handed","2","no","right","s","596.907595733","471.050443117","14","red","1"
"98","80","19","747.89980972","1","0","3","303","3","left","2","in","Male","Right-handed","2","no","left","s","787.68272372","479.67833505","14","red","3"
"98","80","19","747.568209845","1","1","3","304","3","right","1","out","Male","Right-handed","2","no","right","s","596.235696481","839.212745752","14","green","0"
"98","80","19","747.565648085","1","1","3","305","1","right","2","in","Male","Right-handed","2","no","right","s","1047.86392164","446.801134182","14","red","1"
"98","80","19","744.99456268","1","1","3","306","0","right","1","in","Male","Right-handed","2","no","right","s","449.425229482","567.484181505","14","green","0"
"98","79","19","747.133249205","1","0","3","307","3","right","3","in","Male","Right-handed","2","no","right","s","509.064866979","1382.99732491","14","green","2"
"98","80","19","744.533308369","1","1","3","308","3","left","1","out","Male","Right-handed","2","no","left","s","584.662993617","415.614746118","14","green","2"
"98","80","19","743.868598636","1","1","3","309","1","right","2","in","Male","Right-handed","2","no","right","s","570.250033117","791.192314882","14","green","3"
"100","100","19","589.064655309","1","1","4","310","0","left","2","out","Male","Right-handed","2","no","left","d","586.058748049","592.070562568","14","red","0"
"100","100","19","622.848679629","1","1","4","311","3","left","3","in","Male","Right-handed","2","no","left","d","681.555996787","631.709411111","14","red","2"
"100","100","19","633.462442755","1","1","4","312","3","left","1","out","Male","Right-handed","2","no","left","s","661.157841157","648.222096857","14","red","2"
"100","75","19","669.454634292","1","0","4","313","2","right","2","out","Male","Right-handed","2","no","right","d","722.975137804","831.887280001","14","red","3"
"100","80","19","631.042098095","1","1","4","314","0","right","3","in","Male","Right-handed","2","no","right","s","531.400465745","423.383440873","14","red","0"
"100","66","19","634.131562469","1","0","4","315","0","right","0","out","Male","Right-handed","2","no","right","s","786.971055735","512.186712945","14","red","1"
"100","71","19","627.996875679","1","1","4","316","3","right","2","in","Male","Right-handed","2","no","right","s","550.734166187","631.643343692","14","green","1"
"100","75","19","640.908317182","1","1","4","317","3","left","2","out","Male","Right-handed","2","no","left","d","550.274901405","912.301913999","14","green","3"
"100","66","19","642.454810187","1","0","4","318","2","left","0","in","Male","Right-handed","2","no","left","s","621.803146671","687.850361784","14","green","1"
"100","70","19","648.8037788","1","1","4","319","1","left","2","out","Male","Right-handed","2","no","left","d","492.410424926","919.478567695","14","red","0"
"100","63","19","697.736450296","1","0","4","320","0","right","3","out","Male","Right-handed","2","no","right","d","1574.06270055","800.063629984","14","red","1"
"100","66","19","683.356641342","1","1","4","321","3","left","2","out","Male","Right-handed","2","no","left","d","490.70582134","559.651664338","14","red","1"
"100","69","19","670.419134131","1","1","4","322","2","right","1","out","Male","Right-handed","2","no","right","s","446.26489764","584.073197569","14","red","3"
"100","64","19","673.164689905","1","0","4","323","2","left","2","in","Male","Right-handed","2","no","left","d","505.84167488","911.872155051","14","red","0"
"100","66","19","668.016793953","1","1","4","324","2","left","3","out","Male","Right-handed","2","no","left","s","568.432858345","623.459642909","14","red","2"
"100","68","19","676.550026667","1","1","4","325","2","left","2","in","Male","Right-handed","2","no","left","s","497.14001835","1111.95701641","14","green","1"
"100","70","19","666.464109591","1","1","4","326","2","right","1","out","Male","Right-handed","2","no","right","d","458.588716516","551.59015621","14","red","0"
"100","66","19","659.591679824","1","0","4","327","0","left","2","in","Male","Right-handed","2","no","left","s","453.336356615","632.184390964","14","red","3"
"100","68","19","649.709812276","1","1","4","328","1","right","2","out","Male","Right-handed","2","no","right","s","559.763914807","383.908478023","14","green","3"
"100","70","19","638.798076476","1","1","4","329","3","right","2","out","Male","Right-handed","2","no","right","s","423.462016203","439.488176337","14","green","1"
"100","71","19","636.336108272","1","1","4","330","1","left","2","in","Male","Right-handed","2","no","left","d","518.1007092","656.092779183","14","green","3"
"100","72","19","639.834071062","1","1","4","331","0","right","0","out","Male","Right-handed","2","no","right","d","698.792217001","727.7903623","14","red","2"
"100","73","19","632.423533271","1","1","4","332","1","left","0","in","Male","Right-handed","2","no","left","s","531.33760548","407.445798257","14","green","2"
"100","75","19","629.905358955","1","1","4","333","2","left","3","in","Male","Right-handed","2","no","left","s","663.911505577","480.063193805","14","red","2"
"100","76","19","627.552724848","1","1","4","334","0","right","0","out","Male","Right-handed","2","no","right","s","606.603150005","535.575862556","14","green","3"
"100","76","19","625.809384489","1","1","4","335","2","left","1","out","Male","Right-handed","2","no","left","d","581.267256504","583.184494553","14","red","2"
"100","77","19","620.514214301","1","1","4","336","3","right","0","out","Male","Right-handed","2","no","right","s","533.802625828","431.87695296","14","green","2"
"100","78","19","616.675293153","1","1","4","337","0","right","1","in","Male","Right-handed","2","no","right","s","474.446500943","551.602343403","14","green","2"
"100","79","19","619.243940987","1","1","4","338","3","right","2","out","Male","Right-handed","2","no","right","d","510.204048907","872.128111783","14","red","0"
"100","80","19","621.593441408","1","1","4","339","2","right","3","out","Male","Right-handed","2","no","right","s","571.748737264","807.709169935","14","green","1"
"100","80","19","622.09931721","1","1","4","340","0","left","1","in","Male","Right-handed","2","no","left","d","563.40852725","711.142655273","14","red","0"
"100","81","19","618.590914022","1","1","4","341","0","right","2","in","Male","Right-handed","2","no","right","d","307.913946865","711.746883524","14","green","0"
"100","81","19","617.632667495","1","1","4","342","0","left","0","in","Male","Right-handed","2","no","left","s","606.483843789","567.45371352","14","red","2"
"97","82","19","621.705158611","0","1","4","343","0","right","2","out","Male","Right-handed","2","no","left","s","726.145411827","786.049319009","14","red","1"
"97","80","19","620.834938248","1","0","4","344","1","left","0","out","Male","Right-handed","2","no","left","s","598.749144895","583.74574691","14","green","2"
"97","80","19","624.001474151","1","1","4","345","1","left","3","in","Male","Right-handed","2","no","left","s","910.362225859","559.298235708","14","green","1"
"97","81","19","622.232134165","1","1","4","346","1","right","1","out","Male","Right-handed","2","no","right","s","621.986596012","495.085193295","14","red","0"
"97","81","19","620.439649479","1","1","4","347","1","right","0","out","Male","Right-handed","2","no","right","d","564.579780741","543.655651476","14","green","3"
"97","82","19","617.485767401","1","1","4","348","0","right","2","in","Male","Right-handed","2","no","right","s","563.169914822","447.306582013","14","green","1"
"97","82","19","618.371000315","1","1","4","349","0","left","1","in","Male","Right-handed","2","no","left","s","801.798701552","503.991466397","14","red","3"
"97","82","19","614.432127565","1","1","4","350","2","right","2","in","Male","Right-handed","2","no","right","s","562.227652295","351.526782801","14","red","0"
"97","80","19","620.721090307","1","0","4","351","1","left","0","in","Male","Right-handed","2","no","left","s","862.149044893","894.988080607","14","red","1"
"97","81","19","627.126269123","1","1","4","352","1","left","2","out","Male","Right-handed","2","no","left","d","480.754656713","1311.53290205","14","green","1"
"97","81","19","630.693901508","1","1","4","353","2","right","2","in","Male","Right-handed","2","no","right","s","713.140392945","855.063795148","14","green","3"
"97","82","19","631.20685328","1","1","4","354","2","left","0","out","Male","Right-handed","2","no","left","s","579.785871003","727.767591492","14","red","2"
"97","82","19","630.853881247","1","1","4","355","1","left","3","in","Male","Right-handed","2","no","left","s","686.495017522","543.445262018","14","red","2"
"97","80","19","630.335373223","1","0","4","356","2","left","2","in","Male","Right-handed","2","no","left","s","645.935073684","567.032934607","14","green","1"
"97","81","19","631.051479696","1","1","4","357","3","left","0","out","Male","Right-handed","2","no","left","d","553.724518741","775.692449101","14","green","2"
"97","79","19","636.116629692","1","0","4","358","3","left","0","out","Male","Right-handed","2","no","left","s","943.280157611","815.207501408","14","red","3"
"98","80","19","635.550509986","1","1","4","359","1","left","1","out","Male","Right-handed","2","no","left","d","511.767216896","703.854071821","14","green","2"
"98","80","19","634.117161709","1","1","4","360","1","left","2","in","Male","Right-handed","2","no","left","d","541.416735646","583.482760092","14","green","3"
"98","80","19","632.395369424","1","1","4","361","2","right","2","in","Male","Right-handed","2","no","right","d","554.095266012","535.072659728","14","green","0"
"98","81","19","629.109109279","1","1","4","362","2","left","0","in","Male","Right-handed","2","no","left","s","428.671720929","487.775442612","14","green","2"
"98","81","19","639.103144748","1","1","4","363","1","left","2","out","Male","Right-handed","2","no","left","s","1458.31161821","879.262431019","14","green","1"
"98","81","19","640.227256764","1","1","4","364","1","left","2","in","Male","Right-handed","2","no","left","s","722.86160447","678.997006762","14","green","1"
"98","82","19","640.758797837","1","1","4","365","3","left","2","out","Male","Right-handed","2","no","left","d","540.428610784","799.558502862","14","green","3"
"98","82","19","641.034972076","1","1","4","366","3","left","2","out","Male","Right-handed","2","no","left","s","730.035692443","582.965766491","14","red","1"
"98","82","19","644.761694074","1","1","4","367","0","right","2","in","Male","Right-handed","2","no","right","d","418.773474379","1295.59622159","14","red","3"
"98","83","19","642.855749724","1","1","4","368","3","right","2","in","Male","Right-handed","2","no","right","s","521.258796027","543.363158816","14","green","0"
"98","81","19","641.022137824","1","0","4","369","3","right","2","out","Male","Right-handed","2","no","right","d","594.929421713","470.748649706","14","red","3"
"98","81","19","638.292672541","1","1","4","370","1","right","2","out","Male","Right-handed","2","no","right","s","589.561604181","359.487906939","14","green","1"
"98","80","19","639.054404306","1","0","4","371","1","left","3","in","Male","Right-handed","2","no","left","s","924.00931743","447.030766572","14","red","0"
"98","80","19","637.898497381","1","1","4","372","2","right","2","in","Male","Right-handed","2","no","right","s","565.656743831","566.807792235","14","red","3"
"98","79","19","643.444376043","1","0","4","373","0","right","1","in","Male","Right-handed","2","no","right","s","1226.36814883","759.301314582","14","red","2"
"98","80","19","641.47522431","1","1","4","374","3","left","2","out","Male","Right-handed","2","no","left","d","599.906607611","430.992419246","14","green","0"
"98","80","19","641.70374358","1","1","4","375","3","left","0","in","Male","Right-handed","2","no","left","s","801.620062943","511.494929324","14","green","1"
"98","80","19","642.25493361","1","1","4","376","1","right","1","out","Male","Right-handed","2","no","right","d","662.169378265","695.09757292","14","green","2"
"98","80","19","644.916572808","1","1","4","377","1","left","2","out","Male","Right-handed","2","no","left","d","527.749438989","1118.74335918","14","green","3"
"98","81","19","645.901138254","1","1","4","378","1","right","2","in","Male","Right-handed","2","no","right","d","778.275172088","647.428004952","14","red","0"
"98","81","19","646.194337912","1","1","4","379","3","right","2","out","Male","Right-handed","2","no","right","s","461.802287151","871.047941535","14","green","0"
"98","81","19","644.96647634","1","1","4","380","3","left","2","in","Male","Right-handed","2","no","left","s","510.604943447","607.427389179","14","red","3"
"98","81","19","649.885555299","1","1","4","381","3","right","3","out","Male","Right-handed","2","no","right","s","687.13324163","1311.14708115","14","green","2"
"98","80","19","649.04051043","1","0","4","382","3","right","3","in","Male","Right-handed","2","no","right","s","809.589204967","366.805354799","14","red","0"
"98","81","19","651.051638692","1","1","4","383","0","left","2","out","Male","Right-handed","2","no","left","d","500.318630981","1095.40937266","14","red","0"
"98","80","19","650.422218922","1","0","4","384","0","right","3","in","Male","Right-handed","2","no","right","d","768.883014804","438.80729705","14","red","2"
"98","80","19","651.292140916","1","1","4","385","3","right","1","out","Male","Right-handed","2","no","right","d","746.582694763","686.489886069","14","red","2"
"98","80","19","650.958217713","1","1","4","386","0","right","2","out","Male","Right-handed","2","no","right","s","580.109793787","671.050314832","14","green","1"
"98","80","19","651.506064572","1","1","4","387","0","right","3","in","Male","Right-handed","2","no","right","d","532.726304166","854.654241288","14","red","2"
"98","81","19","651.460354475","1","1","4","388","1","right","2","in","Male","Right-handed","2","no","right","d","512.437833284","783.352100545","14","red","0"
"98","80","19","656.609907082","1","0","4","389","2","left","0","out","Male","Right-handed","2","no","left","s","1463.92414178","662.924984292","14","green","3"
"98","79","19","659.058785065","1","0","4","390","1","left","1","in","Male","Right-handed","2","no","left","s","871.47930406","838.458743303","14","red","3"
"98","79","19","658.248322636","1","1","4","391","1","left","2","out","Male","Right-handed","2","no","left","d","530.023312818","655.178418918","14","green","0"
"98","78","19","656.007130722","1","0","4","392","3","right","1","out","Male","Right-handed","2","no","right","d","505.798698985","438.660088577","14","green","3"
"98","77","19","663.278731726","1","0","4","393","2","right","3","out","Male","Right-handed","2","no","right","s","606.411362056","1927.2318681","14","red","0"
"98","76","19","663.597638167","1","0","4","394","0","right","2","in","Male","Right-handed","2","no","right","s","501.859028162","878.912530265","14","green","3"
"98","76","19","663.736029375","1","1","4","395","2","right","1","in","Male","Right-handed","2","no","right","s","696.473763699","654.524800458","14","green","2"
"98","77","19","664.049374592","1","1","4","396","2","right","2","in","Male","Right-handed","2","no","right","d","647.046674065","734.947452347","14","green","1"
"98","76","19","672.289370519","1","0","4","397","2","right","2","in","Male","Right-handed","2","no","right","s","555.63662534","2222.70140701","14","red","3"
"98","76","19","673.786548893","1","1","4","398","2","left","2","out","Male","Right-handed","2","no","left","s","628.120282476","982.956209166","14","red","1"
"98","75","19","674.374735476","1","0","4","399","3","left","1","in","Male","Right-handed","2","no","left","s","518.726104681","934.720578108","14","green","0"
"98","74","19","676.719913438","1","0","4","400","1","right","3","in","Male","Right-handed","2","no","right","s","777.212961915","998.358898112","14","red","2"
"98","75","19","675.297259118","1","1","4","401","2","right","2","in","Male","Right-handed","2","no","right","s","436.857987439","654.813444529","14","green","0"
"98","74","19","675.562038885","1","0","4","402","0","left","2","in","Male","Right-handed","2","no","left","s","817.499014603","582.344540311","14","green","3"
"98","73","19","682.986420921","1","0","4","403","0","left","2","out","Male","Right-handed","2","no","left","d","2315.99950866","430.908391751","14","green","1"
"98","73","19","681.624832491","1","1","4","404","0","left","2","out","Male","Right-handed","2","no","left","s","540.697049771","566.573990542","14","red","0"
"98","72","19","686.943755485","1","0","4","405","3","right","3","in","Male","Right-handed","2","no","right","d","1938.25165721","446.231222501","14","green","1"
"100","100","19","504.255255006","1","1","5","406","1","right","2","out","Male","Right-handed","2","no","right","s","536.757378945","471.753131067","14","green","3"
"100","100","19","503.319086076","1","1","5","407","2","left","3","out","Male","Right-handed","2","no","left","s","605.414577873","399.351256419","14","green","2"
"100","100","19","553.538343317","1","1","5","408","0","left","2","in","Male","Right-handed","2","no","left","s","795.943396254","512.010319344","14","red","0"
"100","100","19","568.285489509","1","1","5","409","0","left","2","in","Male","Right-handed","2","no","left","s","657.595652636","567.458203536","14","green","1"
"100","100","19","605.345944726","1","1","5","410","3","right","0","out","Male","Right-handed","2","no","right","s","1028.2062984","478.969232787","14","red","2"
"100","100","19","715.925033148","1","1","5","411","1","left","1","in","Male","Right-handed","2","no","left","d","769.85189673","1767.78905379","14","green","2"
"100","85","19","685.789488948","1","0","5","412","2","right","2","in","Male","Right-handed","2","no","right","s","362.455488677","647.496958813","14","green","3"
"100","87","19","668.923108266","1","1","5","413","3","right","2","out","Male","Right-handed","2","no","right","s","526.80429002","574.912596975","14","red","0"
"100","88","19","660.05158604","1","1","5","414","2","right","1","out","Male","Right-handed","2","no","right","s","610.626206893","567.532609562","14","red","2"
"100","80","19","650.320523202","1","0","5","415","2","right","2","in","Male","Right-handed","2","no","right","d","526.189478154","599.292437172","14","red","3"
"100","81","19","665.589795901","1","1","5","416","2","right","0","in","Male","Right-handed","2","no","right","d","444.760099897","1191.80494588","14","red","3"
"100","83","19","708.480154277","1","1","5","417","1","left","0","out","Male","Right-handed","2","no","left","d","1505.30896621","855.239226603","14","red","1"
"100","76","19","707.479083605","1","0","5","418","0","right","0","out","Male","Right-handed","2","no","right","d","567.98289431","822.949576767","14","red","1"
"100","78","19","694.6232345","1","1","5","419","1","left","2","in","Male","Right-handed","2","no","left","d","463.529661545","591.46473074","14","green","3"
"100","80","19","683.151696035","1","1","5","420","0","right","2","out","Male","Right-handed","2","no","right","d","454.006331569","591.093983469","14","red","3"
"100","81","19","682.405813034","1","1","5","421","1","right","2","in","Male","Right-handed","2","no","right","d","806.724252226","535.710883836","14","red","1"
"100","76","19","689.724293788","1","0","5","422","3","left","2","in","Male","Right-handed","2","no","left","s","630.319429565","983.320542124","14","green","3"
"100","77","19","695.822096259","1","1","5","423","1","right","3","in","Male","Right-handed","2","no","right","d","680.018486048","918.950990479","14","green","2"
"100","78","19","685.022823052","1","1","5","424","2","right","2","in","Male","Right-handed","2","no","right","s","437.67645373","543.595356936","14","red","3"
"100","80","19","676.304671191","1","1","5","425","1","left","2","out","Male","Right-handed","2","no","left","s","470.202150271","551.117421368","14","green","3"
"100","80","19","681.063232492","1","1","5","426","1","right","3","out","Male","Right-handed","2","no","right","d","656.660445853","895.808471188","14","green","1"
"100","81","19","672.509585534","1","1","5","427","0","right","2","out","Male","Right-handed","2","no","right","d","410.343463991","575.422534828","14","green","3"
"100","82","19","675.510521069","1","1","5","428","0","left","2","out","Male","Right-handed","2","no","left","s","603.971036813","879.09116887","14","green","1"
"100","83","19","667.301703662","1","1","5","429","0","right","2","out","Male","Right-handed","2","no","right","s","485.461158612","471.536648016","14","red","3"
"100","84","19","661.662384578","1","1","5","430","0","left","1","out","Male","Right-handed","2","no","left","d","469.353857421","583.283595683","14","green","3"
"96","84","19","661.228392432","0","1","5","431","3","left","3","out","Male","Right-handed","2","no","right","d","362.881719753","937.875457785","14","red","1"
"96","85","19","676.474447653","1","1","5","432","0","right","2","out","Male","Right-handed","2","no","right","d","522.36141637","1623.38235044","14","green","0"
"96","85","19","667.940518612","1","1","5","433","1","right","0","in","Male","Right-handed","2","no","right","s","371.924617717","503.124251328","14","red","3"
"96","86","19","666.275865453","1","1","5","434","0","right","0","in","Male","Right-handed","2","no","right","s","768.571920642","470.759233322","14","red","2"
"96","86","19","679.591581471","1","1","5","435","2","left","3","in","Male","Right-handed","2","no","left","d","1492.31100308","639.183688916","14","green","0"
"93","87","19","669.711896078","0","1","5","436","0","left","3","in","Male","Right-handed","2","no","right","s","360.847741216","385.794927366","14","red","1"
"93","87","19","663.082956786","1","1","5","437","2","right","2","out","Male","Right-handed","2","no","right","s","491.478104581","423.693572891","14","red","0"
"93","84","19","666.566438172","1","0","5","438","0","left","3","out","Male","Right-handed","2","no","left","s","980.956867919","575.118817124","14","green","0"
"94","85","19","675.187966244","1","1","5","439","0","left","3","in","Male","Right-handed","2","no","left","d","632.71838249","1286.67840272","14","green","2"
"94","82","19","670.247572767","1","0","5","440","1","left","2","out","Male","Right-handed","2","no","left","s","501.336903111","503.211485982","14","green","3"
"94","83","19","673.667853279","1","1","5","441","0","left","2","in","Male","Right-handed","2","no","left","d","979.905241358","606.850101041","14","red","1"
"94","83","19","676.972242296","1","1","5","442","0","left","1","out","Male","Right-handed","2","no","left","d","745.436457095","846.424036739","14","green","2"
"94","84","19","674.827323749","1","1","5","443","3","right","1","out","Male","Right-handed","2","no","right","d","575.971599989","614.959075079","14","green","3"
"92","82","19","677.642110679","0","0","5","444","1","right","2","out","Male","Right-handed","2","no","left","s","639.631728652","929.576299372","14","red","1"
"92","82","19","673.267141368","1","1","5","445","2","right","2","in","Male","Right-handed","2","no","right","s","574.119467216","431.167209262","14","green","3"
"92","80","19","668.086476073","1","0","5","446","1","right","2","out","Male","Right-handed","2","no","right","s","442.844144712","478.875583823","14","green","0"
"92","80","19","669.99988332","1","1","5","447","3","left","3","in","Male","Right-handed","2","no","left","d","762.487624383","734.411536527","14","red","2"
"93","81","19","672.010608288","1","1","5","448","2","right","0","in","Male","Right-handed","2","no","right","d","881.959970197","630.962143692","14","red","2"
"93","81","19","669.525588982","1","1","5","449","0","right","1","in","Male","Right-handed","2","no","right","d","518.630210707","606.709306878","14","red","0"
"93","82","19","668.339971968","1","1","5","450","1","left","3","in","Male","Right-handed","2","no","left","d","577.135797732","655.209849047","14","red","0"
"93","80","19","666.31876225","1","0","5","451","2","left","2","out","Male","Right-handed","2","no","left","d","463.758973223","686.969676659","14","green","0"
"93","80","19","669.416674697","1","1","5","452","2","left","3","out","Male","Right-handed","2","no","left","d","537.406507384","1086.43478712","14","green","1"
"93","81","19","667.107700772","1","1","5","453","3","left","1","out","Male","Right-handed","2","no","left","s","606.022333995","511.149518592","14","red","2"
"93","81","19","667.284236251","1","1","5","454","2","right","1","out","Male","Right-handed","2","no","right","d","736.653338794","614.862539678","14","red","2"
"94","82","19","673.334608712","1","1","5","455","0","right","2","in","Male","Right-handed","2","no","right","d","413.275446302","1526.33027232","14","red","0"
"94","80","19","671.912775762","1","0","5","456","3","left","2","in","Male","Right-handed","2","no","left","d","754.768961269","446.873295194","14","red","1"
"94","80","19","668.164614255","1","1","5","457","1","right","0","out","Male","Right-handed","2","no","right","s","611.476424034","342.540330792","14","green","2"
"94","79","19","675.595887072","1","0","5","458","3","left","0","out","Male","Right-handed","2","no","left","d","1605.04158559","519.002561556","14","red","1"
"94","79","19","675.707583911","1","1","5","459","1","right","2","out","Male","Right-handed","2","no","right","d","652.58030158","710.674731167","14","green","1"
"94","78","19","680.707415298","1","0","5","460","2","left","2","in","Male","Right-handed","2","no","left","s","495.19968878","1406.19693159","14","green","1"
"94","76","19","682.502285442","1","0","5","461","3","right","2","in","Male","Right-handed","2","no","right","d","507.639606712","1054.80068005","14","green","3"
"94","77","19","680.999881509","1","1","5","462","1","left","3","in","Male","Right-handed","2","no","left","d","619.332032726","574.398489814","14","green","2"
"94","77","19","691.137085993","1","1","5","463","3","right","2","in","Male","Right-handed","2","no","right","s","859.074664845","1678.84081825","14","red","1"
"94","77","19","688.534306894","1","1","5","464","1","left","1","out","Male","Right-handed","2","no","left","s","588.575082897","486.571155412","14","red","3"
"95","78","19","694.67826663","1","1","5","465","1","right","2","out","Male","Right-handed","2","no","right","d","564.080426503","1550.26335564","14","green","1"
"95","78","19","691.843021664","1","1","5","466","3","left","2","out","Male","Right-handed","2","no","left","s","556.751753593","486.704893833","14","red","1"
"95","79","19","689.46399593","1","1","5","467","3","right","3","in","Male","Right-handed","2","no","right","s","522.393487933","566.293364362","14","green","0"
"95","77","19","687.018776694","1","0","5","468","2","left","0","in","Male","Right-handed","2","no","left","s","607.951438523","462.878929531","14","red","2"
"95","78","19","683.527135108","1","1","5","469","2","right","3","out","Male","Right-handed","2","no","right","s","576.454277016","350.653153419","14","red","2"
"95","76","19","681.451497768","1","0","5","470","0","left","2","out","Male","Right-handed","2","no","left","d","563.048363598","534.17305238","14","green","1"
"95","77","19","679.161667512","1","1","5","471","2","right","1","out","Male","Right-handed","2","no","right","d","517.822007318","542.823394411","14","green","3"
"95","77","19","677.022815361","1","1","5","472","2","left","2","in","Male","Right-handed","2","no","left","s","489.382869357","582.334277413","14","green","1"
"95","76","19","674.178275613","1","0","5","473","3","right","1","in","Male","Right-handed","2","no","right","d","473.03695574","494.151269373","14","green","0"
"95","76","19","672.576877082","1","1","5","474","2","right","2","out","Male","Right-handed","2","no","right","d","584.656900021","542.70665392","14","green","1"
"95","77","19","669.616228009","1","1","5","475","0","right","3","in","Male","Right-handed","2","no","right","s","516.30309808","414.359785849","14","green","2"
"95","77","19","671.212170072","1","1","5","476","2","left","2","in","Male","Right-handed","2","no","left","s","910.901028121","654.955200837","14","red","1"
"95","77","19","669.021663735","1","1","5","477","3","left","2","in","Male","Right-handed","2","no","left","s","620.548186402","406.443241191","14","red","0"
"95","78","19","666.659621174","1","1","5","478","3","left","1","in","Male","Right-handed","2","no","left","s","539.003991948","454.18112159","14","green","2"
"95","78","19","665.473139333","1","1","5","479","2","left","0","in","Male","Right-handed","2","no","left","s","558.799843621","598.920086322","14","red","1"
"96","78","19","666.652916518","1","1","5","480","3","right","2","out","Male","Right-handed","2","no","right","d","501.379237575","1006.53361885","14","red","3"
"96","78","19","666.486780363","1","1","5","481","1","left","1","out","Male","Right-handed","2","no","left","s","566.006323868","742.046813579","14","red","2"
"96","77","19","662.299016104","1","0","5","482","0","right","2","in","Male","Right-handed","2","no","right","d","273.525854649","414.532010145","14","green","3"
"96","78","19","659.351009468","1","1","5","483","3","left","0","in","Male","Right-handed","2","no","left","s","490.40434865","374.30464842","14","red","3"
"96","78","19","656.489668838","1","1","5","484","1","left","0","in","Male","Right-handed","2","no","left","d","563.873244206","302.736955131","14","green","2"
"96","77","19","653.759570956","1","0","5","485","3","right","2","in","Male","Right-handed","2","no","right","s","469.634162884","406.529513693","14","green","1"
"96","76","19","653.066797499","1","0","5","486","0","left","0","out","Male","Right-handed","2","no","left","s","749.090691006","446.199150938","14","red","3"
"96","76","19","659.543129865","1","1","5","487","3","left","0","out","Male","Right-handed","2","no","left","d","1577.80577269","790.446330324","14","red","2"
"96","77","19","656.347147252","1","1","5","488","1","left","2","out","Male","Right-handed","2","no","left","s","478.171613013","310.381532938","14","green","0"
"96","77","19","655.848166698","1","1","5","489","0","right","0","in","Male","Right-handed","2","no","right","d","694.921179322","533.944382136","14","red","2"
"96","77","19","654.309658753","1","1","5","490","2","left","2","out","Male","Right-handed","2","no","left","d","507.55461707","542.595365594","14","red","0"
"96","77","19","654.099063509","1","1","5","491","1","left","1","out","Male","Right-handed","2","no","left","s","554.173841345","718.223094282","14","green","0"
"96","78","19","651.555698081","1","1","5","492","0","left","2","out","Male","Right-handed","2","no","left","d","498.807098208","366.845444252","14","red","0"
"96","77","19","652.515617248","1","0","5","493","3","right","3","in","Male","Right-handed","2","no","right","s","665.548758876","806.508410606","14","green","2"
"96","77","19","651.374187385","1","1","5","494","0","right","1","in","Male","Right-handed","2","no","right","s","663.923372056","437.933346951","14","red","2"
"96","77","19","649.183190738","1","1","5","495","3","left","2","in","Male","Right-handed","2","no","left","s","509.699883933","398.669094269","14","red","0"
"96","78","19","647.244682488","1","1","5","496","3","right","2","out","Male","Right-handed","2","no","right","s","467.172349694","478.385530336","14","red","0"
"96","78","19","645.899341781","1","1","5","497","2","right","1","in","Male","Right-handed","2","no","right","d","456.921957379","590.024717552","14","green","0"
"96","78","19","643.369072745","1","1","5","498","1","left","2","out","Male","Right-handed","2","no","left","s","430.59793902","390.570703846","14","red","0"
"96","78","19","646.340533306","1","1","5","499","1","right","2","out","Male","Right-handed","2","no","right","d","399.236440222","1446.13629067","14","green","0"
"96","78","19","643.582276802","1","1","5","500","2","right","2","in","Male","Right-handed","2","no","right","s","330.888090452","437.724240361","14","green","0"
"96","79","19","642.559256021","1","1","5","501","3","left","2","in","Male","Right-handed","2","no","left","s","572.421598659","518.322965134","14","green","3"
dis_reply=Yes
dis_loc=3
