"acc_1","acc_2","age","avg_rt","correct_1","correct_2","count_block_loop","count_trial_sequence","cue_position","detection","dis_position","dis_shape","gender","hand","high_loc","practice","response_keyboard_response_1","response_keyboard_response_2","response_time_keyboard_response_1","response_time_keyboard_response_2","subject_nr","tar_color","tar_position"
"100","0","22","2575.86503945","1","0","0","0","1","right","0","out","Female","Right-handed","0","yes","right","None","2151.60211377","3000.12796513","28","green","2"
"100","50","22","2237.05852432","1","1","0","1","0","left","2","in","Female","Right-handed","0","yes","left","d","2418.74070128","1377.76331711","28","red","0"
"100","66","22","1823.41603601","1","1","0","2","2","left","2","out","Female","Right-handed","0","yes","left","d","1167.09776055","825.164358215","28","green","1"
"100","75","22","1760.50673068","1","1","0","3","1","right","1","in","Female","Right-handed","0","yes","right","d","1957.82378464","1185.73384473","28","green","3"
"100","60","22","1669.17246332","1","0","0","4","0","left","1","in","Female","Right-handed","0","yes","left","d","1390.42545037","1217.24533737","28","green","0"
"100","66","22","1688.77101202","1","1","0","5","2","left","3","in","Female","Right-handed","0","yes","left","s","1963.76630553","1609.76120553","28","red","2"
"100","57","22","1579.8309046","1","0","0","6","3","left","2","out","Female","Right-handed","0","yes","left","s","875.197119214","977.183400966","28","red","3"
"100","62","22","1501.02267869","1","1","0","7","1","left","2","out","Female","Right-handed","0","yes","left","d","1088.84468016","809.885514507","28","green","3"
"100","66","22","1464.84436985","1","1","0","8","0","left","1","out","Female","Right-handed","0","yes","left","s","1549.44248577","801.393312522","28","red","2"
"100","60","22","1435.11475329","1","0","0","9","2","right","1","in","Female","Right-handed","0","yes","right","d","1430.07924537","905.017163041","28","green","3"
"100","63","22","1520.05327828","1","1","0","10","1","left","2","in","Female","Right-handed","0","yes","left","s","2849.46811086","1889.40894544","28","red","0"
"100","66","22","1496.86799472","1","1","0","11","2","right","0","in","Female","Right-handed","0","yes","right","d","1257.91836338","1225.74138793","28","red","2"
"100","69","22","1470.21810887","1","1","0","12","2","left","2","out","Female","Right-handed","0","yes","left","s","1395.34906096","905.48989637","28","green","0"
"100","64","22","1449.414957","1","0","0","13","0","right","0","in","Female","Right-handed","0","yes","right","s","1213.05840822","1144.88955712","28","red","3"
"100","66","22","1418.08421987","1","1","0","14","3","left","0","in","Female","Right-handed","0","yes","left","s","1277.44859987","681.459200128","28","green","1"
"100","62","22","1389.74187726","1","0","0","15","1","left","0","out","Female","Right-handed","0","yes","left","s","992.109779327","937.103696975","28","red","1"
"100","64","22","1370.03085973","1","1","0","16","2","left","0","out","Female","Right-handed","0","yes","left","s","1331.62338998","777.68576832","28","green","3"
"100","66","22","1342.45310253","1","1","0","17","3","left","1","out","Female","Right-handed","0","yes","left","d","1002.13660069","745.125859638","28","green","2"
"100","63","22","1324.78213393","1","0","0","18","2","left","1","in","Female","Right-handed","0","yes","left","d","995.658165699","1017.75123259","28","green","0"
"100","65","22","1301.70423731","1","1","0","19","3","left","3","in","Female","Right-handed","0","yes","left","d","989.328542288","737.119860987","28","red","2"
"100","66","22","1304.78810714","1","1","0","20","1","right","0","in","Female","Right-handed","0","yes","right","s","1578.93860785","1153.9923997","28","green","2"
"100","68","22","1299.90452618","1","1","0","21","3","right","3","in","Female","Right-handed","0","yes","right","s","1185.25630068","1209.44235107","28","green","2"
"100","100","22","1054.05708784","1","1","1","22","2","left","1","in","Female","Right-handed","0","no","left","d","1378.56478291","729.549392774","28","green","0"
"100","100","22","1008.12482341","1","1","1","23","2","left","0","out","Female","Right-handed","0","no","left","s","691.164024032","1233.22109391","28","red","2"
"100","100","22","1148.76448441","1","1","1","24","3","left","0","in","Female","Right-handed","0","no","left","d","1802.48727004","1057.60034278","28","red","3"
"100","100","22","1169.967595","1","1","1","25","3","right","0","in","Female","Right-handed","0","no","right","d","1594.05100068","873.102852853","28","green","1"
"100","100","22","1098.72564052","1","1","1","26","0","left","2","out","Female","Right-handed","0","no","left","d","785.830957102","841.684688155","28","red","0"
"100","100","22","1140.90948889","1","1","1","27","3","right","2","in","Female","Right-handed","0","no","right","s","1382.33606593","1321.32139548","28","red","1"
"100","100","22","1142.12449325","1","1","1","28","1","right","1","out","Female","Right-handed","0","no","right","d","1576.85717007","721.971868839","28","red","3"
"100","87","22","1189.64538025","1","0","1","29","3","left","0","in","Female","Right-handed","0","no","left","s","2043.33271222","1001.25046624","28","green","2"
"100","88","22","1199.88543005","1","1","1","30","0","left","0","out","Female","Right-handed","0","no","left","s","1353.86366487","1209.74799208","28","red","2"
"100","90","22","1193.3908257","1","1","1","31","0","right","3","out","Female","Right-handed","0","no","right","d","1212.49683695","1057.38193613","28","red","1"
"100","90","22","1214.71736282","1","1","1","32","2","right","0","out","Female","Right-handed","0","no","right","d","1398.95710025","1457.00836776","28","red","1"
"100","91","22","1267.06363384","1","1","1","33","1","left","0","out","Female","Right-handed","0","no","left","s","2436.38257019","1249.36265991","28","green","3"
"100","92","22","1237.52504689","1","1","1","34","0","right","3","out","Female","Right-handed","0","no","right","d","725.00454613","1041.11946074","28","red","0"
"100","92","22","1232.05195173","1","1","1","35","1","left","0","out","Female","Right-handed","0","no","left","d","1520.35399195","801.449437578","28","red","1"
"100","86","22","1201.62085953","1","0","1","36","3","left","0","in","Female","Right-handed","0","no","left","d","758.06220388","793.108933602","28","red","3"
"100","87","22","1219.05673345","1","1","1","37","1","right","2","in","Female","Right-handed","0","no","right","d","2175.63806972","785.551614685","28","red","0"
"100","88","22","1214.65022799","1","1","1","38","0","right","1","out","Female","Right-handed","0","no","right","s","1119.21442883","1169.07785251","28","green","3"
"100","88","22","1217.31768524","1","1","1","39","1","left","2","in","Female","Right-handed","0","no","left","d","1459.72963117","1065.5992857","28","green","3"
"100","84","22","1232.46628365","1","0","1","40","2","left","3","out","Female","Right-handed","0","no","left","d","1889.23704241","1121.04506778","28","green","0"
"100","85","22","1224.65548837","1","1","1","41","1","left","3","out","Female","Right-handed","0","no","left","d","1398.81951369","753.681242397","28","red","2"
"100","80","22","1216.44765143","1","0","1","42","3","right","0","out","Female","Right-handed","0","no","right","d","895.099705362","1209.48211968","28","red","2"
"100","77","22","1215.55176746","1","0","1","43","3","right","1","in","Female","Right-handed","0","no","right","s","1336.74776791","1056.72864049","28","red","0"
"100","78","22","1206.28405823","1","1","1","44","2","right","0","in","Female","Right-handed","0","no","right","d","1123.37409723","881.41481323","28","green","3"
"100","79","22","1201.99503058","1","1","1","45","1","right","3","out","Female","Right-handed","0","no","right","s","941.933658902","1264.76113016","28","green","1"
"100","80","22","1216.79435491","1","1","1","46","3","left","3","out","Female","Right-handed","0","no","left","d","2342.41832281","801.537954809","28","green","0"
"100","80","22","1217.28002389","1","1","1","47","1","left","1","out","Female","Right-handed","0","no","left","s","1331.07111942","1127.7723773","28","green","0"
"100","81","22","1205.63892532","1","1","1","48","0","right","0","out","Female","Right-handed","0","no","right","d","996.51800155","809.422723334","28","green","1"
"100","82","22","1207.2637654","1","1","1","49","3","right","1","out","Female","Right-handed","0","no","right","d","1621.11289892","881.155996543","28","red","2"
"100","82","22","1209.30946463","1","1","1","50","1","left","0","in","Female","Right-handed","0","no","left","d","1124.6165456","1408.56154048","28","green","2"
"100","83","22","1214.20357317","1","1","1","51","0","left","2","in","Female","Right-handed","0","no","left","s","767.16857433","1945.09686704","28","green","0"
"100","80","22","1197.92784329","1","0","1","52","3","left","2","out","Female","Right-handed","0","no","left","d","642.659147405","776.652746586","28","green","3"
"100","81","22","1189.62719974","1","1","1","53","3","left","2","out","Female","Right-handed","0","no","left","s","1119.20384524","745.410654203","28","green","0"
"100","81","22","1182.9243848","1","1","1","54","1","left","0","out","Female","Right-handed","0","no","left","d","927.884434983","1008.98417819","28","green","3"
"100","82","22","1180.68866443","1","1","1","55","0","left","0","out","Female","Right-handed","0","no","left","s","1236.39841349","977.421371204","28","green","2"
"100","82","22","1197.58260909","1","1","1","56","2","right","3","out","Female","Right-handed","0","no","right","s","1143.11119464","2400.84226069","28","green","0"
"100","83","22","1187.48241192","1","1","1","57","3","right","0","out","Female","Right-handed","0","no","right","s","842.50443468","825.446587067","28","green","3"
"100","83","22","1182.84915122","1","1","1","58","3","left","1","out","Female","Right-handed","0","no","left","s","1175.12717136","856.976360446","28","green","0"
"100","84","22","1180.56189131","1","1","1","59","1","right","1","in","Female","Right-handed","0","no","right","s","1455.34385897","736.5226904","28","green","2"
"100","84","22","1172.38146374","1","1","1","60","2","left","0","in","Female","Right-handed","0","no","left","d","930.118853623","792.931578424","28","green","2"
"100","85","22","1169.97851533","1","1","1","61","1","right","2","in","Female","Right-handed","0","no","right","d","1143.83248178","1008.6945729","28","red","0"
"100","85","22","1169.80370788","1","1","1","62","2","right","2","in","Female","Right-handed","0","no","right","s","1132.33518396","1193.28763578","28","green","0"
"100","85","22","1165.00664788","1","1","1","63","1","left","0","in","Female","Right-handed","0","no","left","s","1127.85993239","808.794443426","28","red","1"
"100","86","22","1170.78370738","1","1","1","64","0","left","0","in","Female","Right-handed","0","no","left","s","1321.47052777","1505.36988496","28","red","3"
"100","86","22","1168.51540292","1","1","1","65","2","right","0","out","Female","Right-handed","0","no","right","s","1068.94016973","1073.01645234","28","green","2"
"100","86","22","1164.60479961","1","1","1","66","0","left","0","out","Female","Right-handed","0","no","left","d","968.605247468","1016.4712606","28","red","1"
"100","86","22","1162.84408093","1","1","1","67","1","right","2","in","Female","Right-handed","0","no","right","s","694.113956954","1473.10952371","28","green","1"
"100","87","22","1170.4028576","1","1","1","68","2","left","1","in","Female","Right-handed","0","no","left","s","1827.71436003","1208.4988087","28","red","0"
"100","87","22","1171.47054381","1","1","1","69","2","right","0","out","Female","Right-handed","0","no","right","d","1490.15165631","953.151935017","28","red","1"
"100","85","22","1167.22933535","1","0","1","70","3","right","3","in","Female","Right-handed","0","no","right","d","1246.67827868","680.62438002","28","green","0"
"100","84","22","1185.74594849","1","0","1","71","2","left","2","in","Female","Right-handed","0","no","left","s","1945.1048849","2241.0151002","28","red","0"
"100","84","22","1179.46738637","1","1","1","72","1","left","3","in","Female","Right-handed","0","no","left","s","810.523415854","920.555144152","28","green","0"
"100","84","22","1173.05004164","1","1","1","73","3","right","0","out","Female","Right-handed","0","no","right","d","818.213510618","873.317410922","28","red","2"
"100","84","22","1168.28950878","1","1","1","74","0","left","0","out","Female","Right-handed","0","no","left","s","880.82405693","960.659543165","28","green","3"
"100","85","22","1170.03958652","1","1","1","75","2","right","0","in","Female","Right-handed","0","no","right","d","613.306384752","1912.2810281","28","green","2"
"100","85","22","1165.06250859","1","1","1","76","2","right","1","in","Female","Right-handed","0","no","right","d","895.737285991","896.863314963","28","red","3"
"100","85","22","1160.15716722","1","1","1","77","2","right","1","out","Female","Right-handed","0","no","right","s","676.450279454","1104.27650473","28","red","2"
"100","85","22","1154.85678183","1","1","1","78","2","left","3","out","Female","Right-handed","0","no","left","d","795.137132751","920.933266669","28","green","2"
"100","84","22","1159.35135272","1","0","1","79","0","right","0","in","Female","Right-handed","0","no","right","s","2310.60375486","520.480032792","28","red","1"
"100","84","22","1167.84652315","1","1","1","80","3","right","0","out","Female","Right-handed","0","no","right","s","1016.16241244","2304.97040285","28","red","1"
"100","85","22","1166.17514748","1","1","1","81","0","left","1","in","Female","Right-handed","0","no","left","d","1086.69589232","1048.43207441","28","red","0"
"100","83","22","1181.52731781","1","0","1","82","2","left","0","out","Female","Right-handed","0","no","left","None","1205.19352401","3000.12155083","28","red","1"
"100","82","22","1184.75455303","1","0","1","83","0","right","2","out","Female","Right-handed","0","no","right","s","906.679747546","1856.55205503","28","green","1"
"100","82","22","1178.60718189","1","1","1","84","3","right","0","in","Female","Right-handed","0","no","right","s","1002.0006177","592.939724575","28","red","1"
"100","82","22","1170.44586065","1","1","1","85","3","right","0","out","Female","Right-handed","0","no","right","s","679.7565263","632.808719074","28","red","3"
"100","83","22","1167.07949708","1","1","1","86","2","right","3","in","Female","Right-handed","0","no","right","d","1111.18533873","792.079119008","28","red","1"
"100","83","22","1159.99249858","1","1","1","87","2","left","2","in","Female","Right-handed","0","no","left","s","885.7845497","512.890642414","28","green","3"
"100","83","22","1153.15628716","1","1","1","88","0","left","3","in","Female","Right-handed","0","no","left","d","659.37639611","744.5562705","28","green","0"
"100","83","22","1145.03580062","1","1","1","89","2","right","0","in","Female","Right-handed","0","no","right","s","728.941959314","472.984445019","28","green","3"
"100","82","22","1143.66120856","1","0","1","90","2","right","0","out","Female","Right-handed","0","no","right","s","931.765723111","1168.6121749","28","green","3"
"100","82","22","1137.23426905","1","1","1","91","3","right","1","out","Female","Right-handed","0","no","right","s","675.321364051","712.22952133","28","green","3"
"100","83","22","1132.7351083","1","1","1","92","2","left","2","in","Female","Right-handed","0","no","left","d","914.684142619","720.903568497","28","red","1"
"100","83","22","1127.32128553","1","1","1","93","1","left","0","in","Female","Right-handed","0","no","left","s","989.417380231","496.462357569","28","green","3"
"100","82","22","1121.21510583","1","0","1","94","2","left","0","out","Female","Right-handed","0","no","left","d","563.051689252","800.088645516","28","red","3"
"100","82","22","1118.51164778","1","1","1","95","1","left","0","in","Female","Right-handed","0","no","left","d","777.558765338","1064.75965487","28","red","2"
"100","82","22","1116.06729918","1","1","1","96","1","right","0","in","Female","Right-handed","0","no","right","s","790.116987064","1080.25401879","28","green","1"
"100","82","22","1116.86514582","1","1","1","97","0","right","0","in","Female","Right-handed","0","no","right","s","1440.78149169","912.625796292","28","red","2"
"100","81","22","1116.22163052","1","0","1","98","0","right","0","out","Female","Right-handed","0","no","right","s","974.250786632","1160.37814818","28","green","2"
"100","82","22","1109.03115835","1","1","1","99","1","right","1","in","Female","Right-handed","0","no","right","s","709.864892557","400.864710715","28","red","0"
"100","82","22","1105.9590182","1","1","1","100","3","left","2","out","Female","Right-handed","0","no","left","d","900.314204097","832.349968907","28","red","0"
"100","82","22","1102.94832534","1","1","1","101","0","left","1","out","Female","Right-handed","0","no","left","d","874.116631716","856.090546713","28","red","2"
"100","82","22","1099.97521114","1","1","1","102","1","left","3","out","Female","Right-handed","0","no","left","s","667.561994935","1056.69015474","28","red","0"
"100","82","22","1095.11946725","1","1","1","103","0","right","1","in","Female","Right-handed","0","no","right","d","611.279468463","792.328955686","28","green","0"
"100","83","22","1091.73473412","1","1","1","104","3","left","3","in","Female","Right-handed","0","no","left","d","811.646237678","816.726998426","28","red","2"
"100","83","22","1088.55209299","1","1","1","105","1","right","0","out","Female","Right-handed","0","no","right","s","848.338874744","800.446883728","28","green","2"
"100","83","22","1085.90448187","1","1","1","106","2","left","0","out","Female","Right-handed","0","no","left","s","831.049150478","895.961144783","28","green","1"
"100","82","22","1089.13876427","1","0","1","107","1","left","0","in","Female","Right-handed","0","no","left","s","1455.66489429","1272.44064134","28","green","3"
"100","82","22","1087.74035288","1","1","1","108","1","right","0","in","Female","Right-handed","0","no","right","s","799.0758288","1135.87811819","28","red","2"
"100","82","22","1090.40329847","1","1","1","109","0","right","0","out","Female","Right-handed","0","no","right","s","1179.70505161","1464.454078","28","red","1"
"100","83","22","1090.16429283","1","1","1","110","3","right","0","out","Female","Right-handed","0","no","right","s","1410.14907777","728.114515641","28","green","1"
"100","82","22","1087.94237279","1","0","1","111","3","right","3","in","Female","Right-handed","0","no","right","s","1739.67916353","40.7038146113","28","green","1"
"100","82","22","1083.06149452","1","1","1","112","1","left","0","in","Female","Right-handed","0","no","left","s","727.229022617","560.335877992","28","red","1"
"100","82","22","1082.46238286","1","1","1","113","0","right","2","in","Female","Right-handed","0","no","right","s","671.997477901","1383.88896604","28","green","3"
"100","82","22","1086.05966869","1","1","1","114","0","left","0","in","Female","Right-handed","0","no","left","s","849.537705933","1984.48222391","28","red","3"
"100","82","22","1083.60144506","1","1","1","115","0","right","0","in","Female","Right-handed","0","no","right","d","861.910554624","848.062739475","28","red","3"
"100","83","22","1081.08030283","1","1","1","116","3","left","0","out","Female","Right-handed","0","no","left","d","1047.64311649","640.542751735","28","red","2"
"100","82","22","1083.32110943","1","0","1","117","0","left","3","in","Female","Right-handed","0","no","left","s","1168.20422593","1424.19124597","28","green","2"
"100","100","22","810.423673613","1","1","2","118","0","left","1","in","Female","Right-handed","0","no","left","s","1043.89877349","576.948573733","28","red","2"
"100","100","22","884.877328268","1","1","2","119","2","left","3","in","Female","Right-handed","0","no","left","s","1453.27749478","465.384471063","28","red","0"
"100","100","22","847.072586588","1","1","2","120","2","right","1","out","Female","Right-handed","0","no","right","d","709.995744117","832.930462337","28","red","0"
"100","100","22","740.249193643","1","1","2","121","1","right","0","out","Female","Right-handed","0","no","right","s","550.738493479","288.819536137","28","green","1"
"100","100","22","733.742319285","1","1","2","122","0","left","0","out","Female","Right-handed","0","no","left","s","1046.22010579","369.209537923","28","green","2"
"100","100","22","732.263760821","1","1","2","123","3","right","2","out","Female","Right-handed","0","no","right","s","992.92471513","456.817221864","28","green","1"
"100","100","22","729.310254221","1","1","2","124","1","right","1","out","Female","Right-handed","0","no","right","s","734.580122044","688.598307203","28","red","0"
"100","100","22","750.898983078","1","1","2","125","3","left","2","out","Female","Right-handed","0","no","left","d","995.157209487","808.88296066","28","red","3"
"100","100","22","764.376201365","1","1","2","126","3","right","1","out","Female","Right-handed","0","no","right","d","831.638303204","912.749592131","28","green","0"
"100","100","22","773.510737685","1","1","2","127","3","right","3","out","Female","Right-handed","0","no","right","d","774.164321974","937.278807145","28","red","0"
"100","90","22","785.077685969","1","0","2","128","2","left","1","out","Female","Right-handed","0","no","left","s","992.84870577","808.645631849","28","red","3"
"100","91","22","779.650185356","1","1","2","129","0","left","3","out","Female","Right-handed","0","no","left","s","758.465021423","681.430335819","28","green","0"
"100","92","22","792.443389123","1","1","2","130","0","right","0","in","Female","Right-handed","0","no","right","s","810.995507753","1080.92816089","28","green","1"
"100","85","22","835.405668923","1","0","2","131","0","left","0","out","Female","Right-handed","0","no","left","s","987.436967553","1800.39364511","28","green","3"
"100","86","22","826.908436301","1","1","2","132","3","right","3","in","Female","Right-handed","0","no","right","d","743.002728959","672.891630216","28","green","0"
"100","87","22","822.57788514","1","1","2","133","3","left","0","out","Female","Right-handed","0","no","left","d","730.573434506","784.665800951","28","red","2"
"100","82","22","817.909114726","1","0","2","134","1","left","0","in","Female","Right-handed","0","no","left","s","605.227583892","881.189992295","28","green","1"
"100","83","22","809.011487035","1","1","2","135","0","left","2","in","Female","Right-handed","0","no","left","d","530.731675088","784.771957486","28","red","0"
"100","84","22","793.400134021","1","1","2","136","0","left","0","in","Female","Right-handed","0","no","left","s","720.464830916","304.326728645","28","green","1"
"100","85","22","783.987898476","1","1","2","137","0","left","0","out","Female","Right-handed","0","no","left","s","729.026948684","481.28389753","28","green","3"
"100","85","22","796.967947339","1","1","2","138","2","right","0","out","Female","Right-handed","0","no","right","d","1272.53108286","840.606766371","28","green","3"
"100","86","22","823.292638635","1","1","2","139","0","left","0","in","Female","Right-handed","0","no","left","d","1640.0433991","1112.17891256","28","red","2"
"100","82","22","844.325940243","1","0","2","140","3","right","0","in","Female","Right-handed","0","no","right","s","1493.60126259","1120.51588868","28","green","2"
"100","83","22","844.182446894","1","1","2","141","3","right","0","in","Female","Right-handed","0","no","right","s","913.425017086","768.339182632","28","red","3"
"100","84","22","844.149084825","1","1","2","142","0","right","0","in","Female","Right-handed","0","no","right","s","805.840341214","880.856449105","28","red","3"
"100","80","22","837.505524","1","0","2","143","0","right","3","in","Female","Right-handed","0","no","right","s","702.387110865","640.445895926","28","green","0"
"100","81","22","832.194974666","1","1","2","144","3","right","3","out","Female","Right-handed","0","no","right","s","787.064746186","601.176637738","28","red","2"
"100","78","22","821.833834419","1","0","2","145","2","right","0","in","Female","Right-handed","0","no","right","s","595.754957369","488.411138162","28","red","2"
"100","79","22","832.485985076","1","1","2","146","3","right","0","out","Female","Right-handed","0","no","right","d","1237.29224509","1024.20016184","28","green","1"
"100","80","22","828.647789191","1","1","2","147","2","right","0","in","Female","Right-handed","0","no","right","d","585.844876117","848.835340956","28","green","2"
"100","80","22","826.917135944","1","1","2","148","1","right","2","in","Female","Right-handed","0","no","right","d","709.484845753","840.510231279","28","green","0"
"100","81","22","828.667934745","1","1","2","149","1","left","0","out","Female","Right-handed","0","no","left","s","1284.87250151","481.012893688","28","red","3"
"100","81","22","824.282752646","1","1","2","150","3","left","2","in","Female","Right-handed","0","no","left","s","735.496082954","632.417767975","28","red","0"
"100","79","22","822.0099886","1","0","2","151","0","left","3","in","Female","Right-handed","0","no","left","s","774.066824735","719.950725408","28","green","2"
"100","80","22","825.588723198","1","1","2","152","1","left","0","in","Female","Right-handed","0","no","left","s","765.684948576","1128.84645051","28","green","3"
"100","80","22","836.145920227","1","1","2","153","2","left","0","out","Female","Right-handed","0","no","left","s","1891.16774432","520.127888154","28","red","3"
"100","78","22","831.904869045","1","0","2","154","3","left","0","in","Female","Right-handed","0","no","left","s","941.857649541","416.596403444","28","red","1"
"100","76","22","834.416358416","1","0","2","155","1","right","0","in","Female","Right-handed","0","no","right","d","1094.33274846","760.350181863","28","red","2"
"100","74","22","841.441113637","1","0","2","156","3","right","0","out","Female","Right-handed","0","no","right","d","776.867946086","1439.89567795","28","green","2"
"100","75","22","841.957010933","1","1","2","157","1","right","0","in","Female","Right-handed","0","no","right","s","971.703350537","752.450660464","28","red","2"
"100","75","22","840.83731715","1","1","2","158","1","left","0","out","Female","Right-handed","0","no","left","s","854.935653424","737.163478178","28","green","1"
"100","73","22","861.391332951","1","0","2","159","1","right","3","in","Female","Right-handed","0","no","right","s","2735.63815952","672.573802043","28","red","0"
"100","74","22","855.208883621","1","1","2","160","0","right","3","out","Female","Right-handed","0","no","right","s","623.051618695","568.040404909","28","green","1"
"100","75","22","852.813441161","1","1","2","161","3","left","0","in","Female","Right-handed","0","no","left","d","651.835754354","847.78307634","28","green","3"
"100","75","22","850.015631273","1","1","2","162","2","right","0","in","Female","Right-handed","0","no","right","s","757.447393986","696.37659848","28","green","1"
"100","76","22","854.938672326","1","1","2","163","0","left","0","in","Female","Right-handed","0","no","left","s","1632.8949913","520.056048081","28","green","2"
"97","74","22","900.580827112","0","0","2","164","1","right","0","in","Female","Right-handed","0","no","None","None","3000.08851723","3000.15137729","28","red","2"
"97","75","22","901.970474533","1","1","2","165","0","left","2","out","Female","Right-handed","0","no","left","s","701.917905401","1232.6499012","28","red","1"
"97","75","22","911.448021002","1","1","2","166","2","right","0","in","Female","Right-handed","0","no","right","d","844.456303756","1888.28419932","28","red","3"
"98","74","22","917.906734269","1","0","2","167","3","left","0","in","Female","Right-handed","0","no","left","s","732.862053912","1735.90531478","28","red","1"
"98","72","22","922.709038273","1","0","2","168","3","left","2","out","Female","Right-handed","0","no","left","s","949.35467411","1376.2938028","28","green","0"
"98","73","22","919.91732915","1","1","2","169","2","right","0","out","Female","Right-handed","0","no","right","s","531.024166805","1024.05616098","28","red","2"
"98","73","22","920.709217261","1","1","2","170","3","left","1","in","Female","Right-handed","0","no","left","d","1291.45324446","632.321553592","28","red","2"
"98","74","22","921.233886125","1","1","2","171","3","right","0","out","Female","Right-handed","0","no","right","s","1314.08799831","583.994673572","28","red","1"
"98","74","22","919.725458386","1","1","2","172","2","left","2","in","Female","Right-handed","0","no","left","d","739.759342174","936.781378794","28","green","3"
"98","75","22","919.431408859","1","1","2","173","2","left","0","in","Female","Right-handed","0","no","left","d","1070.36029399","736.157075749","28","green","1"
"98","73","22","925.244019785","1","0","2","174","1","right","2","out","Female","Right-handed","0","no","right","s","1485.84766634","1015.65279693","28","green","1"
"98","74","22","918.453515177","1","1","2","175","0","left","1","in","Female","Right-handed","0","no","left","s","718.320212363","344.469292697","28","red","0"
"98","72","22","914.80098058","1","0","2","176","1","left","0","out","Female","Right-handed","0","no","left","s","822.011092234","583.896855616","28","red","2"
"98","73","22","915.472226596","1","1","2","177","2","left","0","out","Female","Right-handed","0","no","left","d","1253.66151845","656.48996468","28","red","1"
"98","73","22","909.714157221","1","1","2","178","2","right","0","out","Female","Right-handed","0","no","right","s","560.178727832","568.281261574","28","green","3"
"98","72","22","910.42477594","1","0","2","179","0","right","0","out","Female","Right-handed","0","no","right","d","1171.70129796","735.843737581","28","red","2"
"98","73","22","905.98532916","1","1","2","180","2","left","0","in","Female","Right-handed","0","no","left","d","685.129458052","576.349799569","28","green","2"
"98","71","22","908.842944996","1","0","2","181","1","right","3","in","Female","Right-handed","0","no","right","s","681.893768419","1495.85171696","28","green","1"
"98","72","22","909.791209612","1","1","2","182","0","right","0","in","Female","Right-handed","0","no","right","d","1004.46081942","936.499470659","28","red","3"
"98","72","22","913.218175604","1","1","2","183","0","left","1","out","Female","Right-handed","0","no","left","s","1863.97980524","407.962124886","28","red","3"
"98","73","22","915.953992944","1","1","2","184","2","left","3","in","Female","Right-handed","0","no","left","d","1576.57301693","616.462857885","28","green","1"
"98","73","22","922.292183964","1","1","2","185","2","left","2","out","Female","Right-handed","0","no","left","s","2405.9573379","287.944626696","28","green","1"
"98","73","22","919.081362938","1","1","2","186","3","right","0","in","Female","Right-handed","0","no","right","s","497.783701736","903.707364603","28","green","3"
"98","74","22","919.770577725","1","1","2","187","3","right","1","out","Female","Right-handed","0","no","right","d","846.327352752","1088.32544322","28","red","0"
"98","73","22","916.829160936","1","0","2","188","0","left","2","in","Female","Right-handed","0","no","left","s","661.904910045","759.955061469","28","red","0"
"98","73","22","920.682804152","1","1","2","189","2","right","1","out","Female","Right-handed","0","no","right","d","1212.36341968","1176.2195253","28","red","0"
"97","73","22","927.99146799","0","1","2","190","1","right","3","out","Female","Right-handed","0","no","left","s","2097.79678689","810.633741676","28","green","0"
"97","72","22","938.990016752","1","0","2","191","0","left","2","out","Female","Right-handed","0","no","left","d","811.551947587","2672.21620526","28","red","3"
"97","73","22","944.588059731","1","1","2","192","3","left","3","out","Female","Right-handed","0","no","left","d","1157.79767848","1559.88880183","28","red","1"
"97","72","22","945.966716778","1","0","2","193","2","right","0","in","Female","Right-handed","0","no","right","d","946.333221829","1152.39876884","28","green","1"
"97","72","22","947.711865618","1","1","2","194","0","right","1","in","Female","Right-handed","0","no","right","s","1000.88966231","1159.7966926","28","red","0"
"97","73","22","947.227250794","1","1","2","195","2","right","1","out","Female","Right-handed","0","no","right","d","660.488634356","1159.33518429","28","red","2"
"97","72","22","950.667665488","1","0","2","196","1","left","0","in","Female","Right-handed","0","no","left","d","1701.98076546","736.059257797","28","red","3"
"97","72","22","946.386688965","1","1","2","197","2","right","2","out","Female","Right-handed","0","no","right","s","704.711008882","511.668078347","28","red","0"
"97","72","22","945.846792805","1","1","2","198","3","left","0","in","Female","Right-handed","0","no","left","d","821.191666426","984.118533554","28","green","2"
"97","71","22","944.266360925","1","0","2","199","1","left","1","out","Female","Right-handed","0","no","left","s","832.75406931","799.748688034","28","green","2"
"96","72","22","951.716563284","0","1","2","200","1","right","1","out","Female","Right-handed","0","no","None","s","3000.08883794","125.177475442","28","green","0"
"96","72","22","950.872694598","1","1","2","201","0","left","0","out","Female","Right-handed","0","no","left","s","673.836134723","1087.82705273","28","green","1"
"96","72","22","944.17253359","1","1","2","202","2","right","3","in","Female","Right-handed","0","no","right","s","723.29353372","39.4244840571","28","red","2"
"96","72","22","946.230089711","1","0","2","203","2","right","3","out","Female","Right-handed","0","no","right","s","1458.21329253","784.031427465","28","red","0"
"95","72","22","955.41103025","0","1","2","204","1","left","1","in","Female","Right-handed","0","no","right","s","2223.65898801","1266.28484524","28","green","3"
"95","72","22","958.805255154","1","1","2","205","1","right","2","out","Female","Right-handed","0","no","right","d","732.150388208","1776.05525528","28","green","0"
"95","73","22","957.12832944","1","1","2","206","0","right","0","in","Female","Right-handed","0","no","right","d","1003.51439062","615.603342743","28","green","1"
"95","73","22","959.733412044","1","1","2","207","3","left","1","out","Female","Right-handed","0","no","left","d","751.015783328","1632.15574414","28","green","3"
"95","72","22","969.790730232","1","0","2","208","1","left","0","in","Female","Right-handed","0","no","left","None","749.719775613","3000.17895875","28","red","1"
"95","72","22","967.293990125","1","1","2","209","1","left","3","out","Female","Right-handed","0","no","left","s","768.213141793","711.968138927","28","green","2"
"95","72","22","971.728421453","1","0","2","210","3","right","0","in","Female","Right-handed","0","no","right","s","695.789049329","2063.60315801","28","green","3"
"95","72","22","970.676256902","1","1","2","211","1","left","0","out","Female","Right-handed","0","no","left","s","721.260844563","1024.38906273","28","green","3"
"95","72","22","972.297570555","1","1","2","212","2","right","2","in","Female","Right-handed","0","no","right","d","913.734185964","1335.66792184","28","red","0"
"95","72","22","979.046838002","1","1","2","213","1","left","2","out","Female","Right-handed","0","no","left","s","2801.31954817","439.134942913","28","red","3"
"100","100","22","778.539510597","1","1","3","214","2","left","0","in","Female","Right-handed","0","no","left","s","1044.50973481","512.56928638","28","red","1"
"100","100","22","772.352364645","1","1","3","215","2","right","0","out","Female","Right-handed","0","no","right","d","732.106771022","800.223666363","28","red","1"
"100","100","22","723.819879837","1","1","3","216","0","right","0","out","Female","Right-handed","0","no","right","s","564.740251641","688.769568806","28","red","3"
"100","100","22","772.456596891","1","1","3","217","1","right","2","out","Female","Right-handed","0","no","right","s","1012.27150287","824.461993234","28","green","0"
"100","100","22","792.253299111","1","1","3","218","0","right","0","in","Female","Right-handed","0","no","right","s","997.931390808","744.948825173","28","red","2"
"100","100","22","792.048410587","1","1","3","219","0","left","0","out","Female","Right-handed","0","no","left","d","997.517989686","584.529946245","28","red","2"
"100","100","22","800.562570068","1","1","3","220","1","left","3","out","Female","Right-handed","0","no","left","s","847.07108992","856.223963987","28","green","2"
"100","100","22","826.38277304","1","1","3","221","1","left","1","out","Female","Right-handed","0","no","left","d","1205.69287664","808.555511048","28","red","0"
"100","100","22","835.140221592","1","1","3","222","3","left","0","in","Female","Right-handed","0","no","left","s","1386.20163905","424.197980974","28","red","1"
"100","100","22","840.810339967","1","1","3","223","2","left","0","in","Female","Right-handed","0","no","left","d","918.848301029","864.834509662","28","red","3"
"100","100","22","864.453223731","1","1","3","224","0","left","2","in","Female","Right-handed","0","no","left","d","1497.40205135","704.362071392","28","green","3"
"100","100","22","856.779561949","1","1","3","225","0","right","3","out","Female","Right-handed","0","no","right","d","680.918154598","863.820410086","28","green","0"
"100","100","22","859.876434584","1","1","3","226","3","right","1","out","Female","Right-handed","0","no","right","d","873.550891152","920.526921265","28","red","0"
"100","100","22","865.139360346","1","1","3","227","3","left","0","in","Female","Right-handed","0","no","left","s","835.033387993","1032.0814025","28","green","3"
"100","100","22","865.337165659","1","1","3","228","3","right","3","in","Female","Right-handed","0","no","right","s","1319.6196838","416.593196296","28","red","1"
"100","100","22","870.29242076","1","1","3","229","0","left","0","out","Female","Right-handed","0","no","left","s","1321.04878807","568.193706487","28","red","3"
"100","94","22","878.031198702","1","0","3","230","0","right","0","out","Female","Right-handed","0","no","right","s","667.87372953","1335.82956199","28","red","1"
"100","94","22","871.190155501","1","1","3","231","0","left","3","out","Female","Right-handed","0","no","left","s","805.40096221","704.383879988","28","green","1"
"100","94","22","856.210004463","1","1","3","232","0","right","2","in","Female","Right-handed","0","no","right","s","493.099023522","680.035548009","28","red","0"
"100","95","22","831.386333774","1","1","3","233","0","right","1","in","Female","Right-handed","0","no","right","s","302.686914878","416.786266487","28","green","0"
"100","95","22","862.429127227","1","1","3","234","1","left","0","out","Female","Right-handed","0","no","left","s","1422.38850918","1544.18148342","28","red","3"
"100","95","22","853.785709348","1","1","3","235","3","right","0","out","Female","Right-handed","0","no","right","s","1056.8915635","287.65630427","28","red","1"
"100","95","22","853.982057357","1","1","3","236","3","left","0","in","Female","Right-handed","0","no","left","d","668.254417764","1048.34900933","28","green","3"
"95","95","22","898.856509454","0","1","3","237","2","right","0","out","Female","Right-handed","0","no","None","s","3000.07600936","861.861806003","28","red","2"
"96","96","22","884.158892278","1","1","3","238","1","right","1","in","Female","Right-handed","0","no","right","s","694.474760883","368.357399221","28","green","3"
"96","96","22","896.308713068","1","1","3","239","0","left","0","in","Female","Right-handed","0","no","left","s","1992.08476359","408.023702093","28","green","1"
"96","96","22","894.388657327","1","1","3","240","1","left","0","in","Female","Right-handed","0","no","left","d","624.332552819","1064.60186329","28","green","2"
"96","96","22","882.990976603","1","1","3","241","2","left","0","in","Female","Right-handed","0","no","left","s","766.295268466","384.211925644","28","green","3"
"96","93","22","917.543573199","1","0","3","242","0","left","3","out","Female","Right-handed","0","no","left","None","769.915815625","3000.11674011","28","green","0"
"96","93","22","903.098145832","1","1","3","243","1","left","1","in","Female","Right-handed","0","no","left","s","600.217059644","368.144444728","28","red","2"
"96","90","22","893.060369134","1","0","3","244","1","right","3","in","Female","Right-handed","0","no","right","s","687.873171486","495.980964948","28","green","0"
"96","87","22","899.211306665","1","0","3","245","3","right","1","in","Female","Right-handed","0","no","right","s","1379.36111727","800.419622988","28","green","2"
"96","87","22","893.97344314","1","1","3","246","2","left","2","in","Female","Right-handed","0","no","left","d","788.932267322","663.791353341","28","green","3"
"97","88","22","899.301217589","1","1","3","247","1","right","1","out","Female","Right-handed","0","no","right","s","1822.74873582","327.486813017","28","red","0"
"97","85","22","910.153581519","1","0","3","248","0","left","0","out","Female","Right-handed","0","no","left","s","902.108923019","1656.15898721","28","green","3"
"97","86","22","901.003981031","1","1","3","249","1","right","0","out","Female","Right-handed","0","no","right","d","465.849827949","695.686099938","28","red","1"
"97","83","22","898.470987927","1","0","3","250","0","right","0","out","Female","Right-handed","0","no","right","s","1190.26682493","424.2996475","28","green","1"
"97","84","22","889.361724431","1","1","3","251","1","right","2","out","Female","Right-handed","0","no","right","s","568.738600603","535.899349496","28","green","3"
"97","84","22","890.800879709","1","1","3","252","2","left","2","in","Female","Right-handed","0","no","left","s","1330.499606","560.477954558","28","green","0"
"97","85","22","884.644942475","1","1","3","253","2","left","0","in","Female","Right-handed","0","no","left","s","697.105262061","592.021518667","28","green","3"
"97","85","22","886.182048075","1","1","3","254","1","left","2","out","Female","Right-handed","0","no","left","s","1607.69067205","287.641872117","28","green","1"
"97","85","22","897.718744808","1","1","3","255","1","left","0","out","Female","Right-handed","0","no","left","d","2013.20093379","728.245687911","28","green","2"
"97","83","22","923.014159975","1","0","3","256","3","left","1","out","Female","Right-handed","0","no","left","None","970.712021699","3000.13117227","28","red","0"
"97","81","22","914.517119556","1","0","3","257","0","left","2","out","Female","Right-handed","0","no","left","s","690.18231663","408.106446459","28","red","1"
"97","80","22","935.359258976","1","0","3","258","2","right","3","in","Female","Right-handed","0","no","right","None","704.734100331","3000.09268652","28","red","0"
"97","80","22","931.604365322","1","1","3","259","2","left","0","in","Female","Right-handed","0","no","left","s","629.244296972","896.024004847","28","red","1"
"97","78","22","925.054527795","1","0","3","260","1","right","0","in","Female","Right-handed","0","no","right","s","727.768464581","519.755538499","28","green","1"
"97","77","22","923.893886736","1","0","3","261","1","left","0","in","Female","Right-handed","0","no","left","s","530.188063836","1208.49945013","28","green","1"
"95","75","22","941.650566085","0","0","3","262","1","left","0","in","Female","Right-handed","0","no","None","s","3000.09332795","587.849021675","28","red","3"
"96","74","22","941.865391591","1","0","3","263","2","right","1","out","Female","Right-handed","0","no","right","s","1064.35491304","840.428769767","28","green","0"
"96","72","22","942.327908333","1","0","3","264","3","left","2","in","Female","Right-handed","0","no","left","s","867.048723285","1063.85876755","28","red","0"
"96","73","22","934.178545422","1","1","3","265","0","left","2","in","Female","Right-handed","0","no","left","s","557.520003771","479.602070151","28","red","0"
"96","73","22","937.856299175","1","1","3","266","3","right","3","in","Female","Right-handed","0","no","right","s","1034.05059016","1224.14839849","28","green","2"
"94","72","22","959.825174431","0","0","3","267","0","right","1","in","Female","Right-handed","0","no","None","s","3000.08306508","1248.26806096","28","red","3"
"94","72","22","963.938605079","1","1","3","268","1","right","2","in","Female","Right-handed","0","no","right","s","484.078604582","1888.04911551","28","green","0"
"94","71","22","955.012386113","1","0","3","269","2","right","1","in","Female","Right-handed","0","no","right","s","536.479201498","391.661484453","28","green","2"
"94","71","22","954.04016255","1","1","3","270","0","right","3","in","Female","Right-handed","0","no","right","d","1014.98410699","784.20717907","28","red","2"
"94","72","22","949.701568426","1","1","3","271","3","right","0","out","Female","Right-handed","0","no","right","d","780.903497936","623.899908824","28","green","3"
"94","72","22","942.933141502","1","1","3","272","1","right","0","out","Female","Right-handed","0","no","right","s","613.275596152","487.453163638","28","green","2"
"95","73","22","940.759629643","1","1","3","273","0","left","0","out","Female","Right-handed","0","no","left","d","873.094193557","751.950666395","28","green","2"
"95","73","22","934.741486706","1","1","3","274","1","left","3","in","Female","Right-handed","0","no","left","d","491.592627026","655.713193912","28","red","1"
"95","72","22","940.370172623","1","0","3","275","2","left","1","out","Female","Right-handed","0","no","left","d","680.198791739","1887.24123543","28","red","3"
"95","73","22","938.382699176","1","1","3","276","0","left","0","in","Female","Right-handed","0","no","left","s","750.591157193","879.727533702","28","green","2"
"95","73","22","932.748971448","1","1","3","277","3","left","0","out","Female","Right-handed","0","no","left","s","692.356761643","463.291487558","28","green","2"
"95","73","22","932.151283743","1","1","3","278","2","right","0","out","Female","Right-handed","0","no","right","s","1523.77088533","264.027655863","28","green","1"
"95","72","22","930.62917373","1","0","3","279","3","right","0","in","Female","Right-handed","0","no","right","s","943.736716403","719.647329396","28","green","1"
"95","73","22","931.812394269","1","1","3","280","3","left","3","out","Female","Right-handed","0","no","left","d","956.998265254","1062.81163437","28","green","0"
"95","72","22","930.076101897","1","0","3","281","2","right","2","in","Female","Right-handed","0","no","right","s","787.692705381","839.796320568","28","red","1"
"95","72","22","924.59075643","1","1","3","282","2","left","0","out","Female","Right-handed","0","no","left","s","568.083059952","535.09146941","28","green","2"
"95","72","22","920.315545142","1","1","3","283","1","left","0","in","Female","Right-handed","0","no","left","s","818.914913452","431.737019157","28","red","1"
"95","73","22","917.331727496","1","1","3","284","3","left","0","out","Female","Right-handed","0","no","left","d","601.553798111","815.375186375","28","red","3"
"95","73","22","913.515463059","1","1","3","285","0","right","1","in","Female","Right-handed","0","no","right","s","646.121582264","638.999793781","28","green","2"
"95","73","22","910.324084699","1","1","3","286","2","right","0","in","Female","Right-handed","0","no","right","d","753.519281523","607.570404074","28","green","3"
"95","74","22","906.751503105","1","1","3","287","3","right","2","in","Female","Right-handed","0","no","right","s","596.497090959","695.409002524","28","red","0"
"96","73","22","904.227520926","1","0","3","288","2","right","1","out","Female","Right-handed","0","no","right","s","1058.980057","375.925622437","28","green","0"
"96","73","22","899.823107751","1","1","3","289","1","right","0","out","Female","Right-handed","0","no","right","s","659.485118362","479.49912076","28","green","2"
"94","72","22","913.460560178","0","0","3","290","3","right","0","in","Female","Right-handed","0","no","None","s","3000.09493152","899.718957793","28","red","1"
"94","73","22","911.070388032","1","1","3","291","2","right","2","out","Female","Right-handed","0","no","right","d","550.638430526","903.415835029","28","red","0"
"94","73","22","910.767145556","1","1","3","292","3","left","2","out","Female","Right-handed","0","no","left","d","655.126927617","1119.10153728","28","red","3"
"95","73","22","908.210861112","1","1","3","293","2","right","0","in","Female","Right-handed","0","no","right","d","620.83932936","791.689450769","28","red","2"
"95","72","22","910.903558874","1","0","3","294","0","left","1","out","Female","Right-handed","0","no","left","s","885.371469292","1367.26729028","28","red","0"
"95","73","22","915.450200739","1","1","3","295","3","right","2","out","Female","Right-handed","0","no","right","s","2263.75023773","303.706145885","28","red","1"
"93","73","22","911.979254974","0","1","3","296","3","left","3","in","Female","Right-handed","0","no","right","d","1012.3709244","242.352480101","28","red","0"
"94","73","22","908.811655874","1","1","3","297","0","left","0","out","Female","Right-handed","0","no","left","s","819.877057263","471.924803973","28","red","1"
"94","74","22","908.209224171","1","1","3","298","3","right","0","out","Female","Right-handed","0","no","right","s","819.597714843","895.612207296","28","green","2"
"94","73","22","919.36655159","1","0","3","299","1","left","0","in","Female","Right-handed","0","no","left","None","735.303012759","3000.1757516","28","red","3"
"94","73","22","928.081866155","1","1","3","300","3","right","0","in","Female","Right-handed","0","no","right","d","699.68156247","2655.51627514","28","red","2"
"94","73","22","925.275687731","1","1","3","301","1","right","3","in","Female","Right-handed","0","no","right","s","699.087599023","663.188730603","28","green","0"
"94","74","22","922.943385084","1","1","3","302","3","right","1","out","Female","Right-handed","0","no","right","s","1172.79301047","262.60849374","28","red","3"
"94","73","22","930.39663167","1","0","3","303","0","left","0","out","Female","Right-handed","0","no","left","s","788.281216675","2399.18993905","28","green","3"
"94","73","22","926.525013887","1","1","3","304","2","right","0","in","Female","Right-handed","0","no","right","s","460.492290502","695.66653635","28","red","2"
"94","73","22","928.729725381","1","1","3","305","2","left","3","out","Female","Right-handed","0","no","left","s","763.50056141","1495.21638133","28","red","1"
"94","74","22","932.806698918","1","1","3","306","3","right","0","out","Female","Right-handed","0","no","right","s","2408.85723935","206.919289285","28","red","2"
"94","73","22","942.015198883","1","0","3","307","1","right","0","out","Female","Right-handed","0","no","right","None","596.64910968","3000.16228159","28","green","3"
"94","73","22","941.450882145","1","1","3","308","2","left","3","out","Female","Right-handed","0","no","left","s","1225.95338028","550.85683717","28","green","0"
"94","72","22","939.878696784","1","0","3","309","2","left","3","in","Female","Right-handed","0","no","left","s","893.592346726","687.449828208","28","green","2"
"100","100","22","653.243531107","1","1","4","310","0","right","1","out","Female","Right-handed","0","no","right","s","858.255370287","448.231691928","28","green","2"
"100","100","22","722.776942672","1","1","4","311","0","right","0","in","Female","Right-handed","0","no","right","s","1176.85967164","407.76103683","28","green","2"
"100","100","22","716.303665842","1","1","4","312","3","left","1","in","Female","Right-handed","0","no","left","s","902.392434727","504.321789638","28","green","0"
"100","100","22","708.596025319","1","1","4","313","2","left","0","out","Female","Right-handed","0","no","left","d","811.05740567","559.888801832","28","green","3"
"100","100","22","696.090104126","1","1","4","314","3","left","3","in","Female","Right-handed","0","no","left","d","716.496949841","575.635888861","28","green","0"
"100","100","22","692.773263007","1","1","4","315","3","left","0","out","Female","Right-handed","0","no","left","d","736.194599358","616.183515463","28","green","3"
"100","100","22","703.997075266","1","1","4","316","1","right","1","out","Female","Right-handed","0","no","right","s","598.929711225","943.750186416","28","green","2"
"100","100","22","736.927672763","1","1","4","317","3","right","0","in","Female","Right-handed","0","no","right","d","806.483694708","1128.40001578","28","green","1"
"100","100","22","731.98124689","1","1","4","318","3","right","2","in","Female","Right-handed","0","no","right","s","592.849283061","791.97039676","28","red","3"
"100","100","22","743.292879462","1","1","4","319","2","left","1","out","Female","Right-handed","0","no","left","s","1218.63082446","471.564320756","28","green","0"
"100","90","22","755.141616344","1","0","4","320","1","right","0","in","Female","Right-handed","0","no","right","d","659.206417371","1088.05155295","28","red","1"
"100","91","22","767.849678606","1","1","4","321","3","left","0","in","Female","Right-handed","0","no","left","d","823.620438114","991.656288876","28","red","1"
"92","84","22","902.525333925","0","0","4","322","3","right","2","out","Female","Right-handed","0","no","None","s","3000.2151995","2037.05119599","28","green","1"
"92","85","22","887.576015661","1","1","4","323","0","right","3","in","Female","Right-handed","0","no","right","d","458.764921648","927.704834805","28","red","0"
"93","86","22","919.552429942","1","1","4","324","1","right","0","out","Female","Right-handed","0","no","right","s","1110.30048713","1624.14397263","28","red","3"
"87","81","22","971.514479703","0","0","4","325","2","right","2","in","Female","Right-handed","0","no","None","s","3000.2305938","501.659858434","28","red","1"
"82","82","22","1025.71888697","0","1","4","326","0","right","0","out","Female","Right-handed","0","no","None","s","3000.11257083","785.86623571","28","green","2"
"77","77","22","1072.00136389","0","0","4","327","0","right","3","in","Female","Right-handed","0","no","None","s","3000.14335943","717.463583657","28","red","0"
"78","73","22","1117.90179459","1","0","4","328","2","left","0","in","Female","Right-handed","0","no","left","None","888.131218457","3000.0878758","28","red","3"
"80","70","22","1163.77638399","1","0","4","329","1","left","3","out","Female","Right-handed","0","no","left","None","1070.58928422","3000.19788091","28","green","2"
"80","71","22","1137.57264434","1","1","4","330","0","left","1","out","Female","Right-handed","0","no","left","s","514.840907915","712.15479483","28","red","0"
"81","72","22","1128.8888723","1","1","4","331","0","left","0","out","Female","Right-handed","0","no","left","s","1621.56542722","271.493891829","28","green","1"
"78","73","22","1149.50344804","0","1","4","332","2","left","0","in","Female","Right-handed","0","no","right","s","2539.06768906","666.980539361","28","green","3"
"75","70","22","1197.37639285","0","0","4","333","3","right","0","out","Female","Right-handed","0","no","None","s","3000.0525972","1596.85564988","28","green","2"
"72","68","22","1223.79876826","0","0","4","334","2","left","0","in","Female","Right-handed","0","no","None","s","3000.138228","715.733328375","28","red","1"
"69","69","22","1246.48865","0","1","4","335","3","left","0","out","Female","Right-handed","0","no","None","s","3000.2129545","627.258432149","28","green","1"
"70","66","22","1223.79587375","1","0","4","336","1","left","1","out","Female","Right-handed","0","no","left","s","851.894316842","415.673066102","28","green","3"
"71","64","22","1204.76021566","1","0","4","337","2","left","3","in","Female","Right-handed","0","no","left","s","982.354282518","399.240611961","28","red","0"
"72","62","22","1194.2484912","1","0","4","338","2","right","0","out","Female","Right-handed","0","no","right","s","720.030583347","1079.80982907","28","red","1"
"73","60","22","1214.6336461","1","0","4","339","1","right","2","in","Female","Right-handed","0","no","right","None","611.509741546","3000.0965351","28","red","0"
"70","58","22","1272.2291973","0","0","4","340","0","right","3","out","Female","Right-handed","0","no","None","None","3000.06510507","3000.12636155","28","red","2"
"68","59","22","1309.03547047","0","1","4","341","3","left","0","in","Female","Right-handed","0","no","right","s","2938.10047796","1961.95939945","28","green","2"
"69","60","22","1297.80627032","1","1","4","342","3","right","0","in","Female","Right-handed","0","no","right","s","1301.43099649","575.512734453","28","green","2"
"70","58","22","1291.12779932","1","0","4","343","0","right","2","out","Female","Right-handed","0","no","right","s","478.373733215","1663.10277909","28","green","0"
"71","57","22","1316.50749677","1","0","4","344","3","right","0","out","Female","Right-handed","0","no","right","None","1358.70709681","3000.1273237","28","green","3"
"72","55","22","1295.67736314","1","0","4","345","3","right","0","in","Female","Right-handed","0","no","right","s","614.090211246","519.155160764","28","red","2"
"72","54","22","1284.84031303","1","0","4","346","0","right","0","out","Female","Right-handed","0","no","right","s","1093.67913209","695.733886416","28","red","2"
"73","52","22","1265.15533905","1","0","4","347","3","right","2","out","Female","Right-handed","0","no","right","s","482.275226368","591.347376569","28","red","0"
"74","53","22","1250.0977131","1","1","4","348","1","right","0","out","Female","Right-handed","0","no","right","d","739.894042312","615.921812347","28","red","1"
"75","55","22","1235.65839661","1","1","4","349","1","left","0","out","Female","Right-handed","0","no","left","d","681.588768831","663.461338016","28","red","2"
"75","56","22","1223.28122532","1","1","4","350","3","left","1","in","Female","Right-handed","0","no","left","s","633.238797356","823.149949789","28","green","3"
"76","54","22","1210.46716786","1","0","4","351","0","right","0","out","Female","Right-handed","0","no","right","s","555.743886299","814.43773759","28","red","3"
"76","55","22","1198.98781576","1","1","4","352","1","right","1","in","Female","Right-handed","0","no","right","s","546.286333356","887.423722041","28","green","0"
"77","56","22","1186.31746877","1","1","4","353","0","right","0","out","Female","Right-handed","0","no","right","d","611.933726253","671.05136982","28","green","3"
"77","55","22","1180.03246915","1","0","4","354","0","right","1","in","Female","Right-handed","0","no","right","s","743.463275132","1063.5216965","28","green","3"
"76","56","22","1194.63085477","0","1","4","355","2","right","2","in","Female","Right-handed","0","no","None","s","3000.18633519","702.930080686","28","red","0"
"76","57","22","1180.64033386","1","1","4","356","2","left","3","out","Female","Right-handed","0","no","left","s","642.611681644","431.541062535","28","red","1"
"77","56","22","1171.31904291","1","0","4","357","2","left","0","in","Female","Right-handed","0","no","left","s","779.26496703","687.171768648","28","green","2"
"77","57","22","1164.39820755","1","1","4","358","0","right","2","in","Female","Right-handed","0","no","right","s","752.539177694","911.857043389","28","green","0"
"78","58","22","1156.82803315","1","1","4","359","3","right","1","in","Female","Right-handed","0","no","right","s","804.416689087","767.362285951","28","green","2"
"78","58","22","1152.23023961","1","1","4","360","2","left","3","in","Female","Right-handed","0","no","left","d","757.880358702","1086.800766","28","red","2"
"78","59","22","1164.72231382","1","1","4","361","0","left","3","in","Female","Right-handed","0","no","left","s","2812.42236702","791.213831009","28","green","1"
"79","58","22","1155.05764418","1","0","4","362","1","left","0","in","Female","Right-handed","0","no","left","s","674.095913549","630.893732177","28","green","1"
"79","57","22","1148.36497795","1","0","4","363","2","left","2","in","Female","Right-handed","0","no","left","s","939.601101592","647.706233118","28","red","3"
"80","58","22","1141.56943499","1","1","4","364","0","right","2","out","Female","Right-handed","0","no","right","s","862.105228385","687.115002161","28","red","1"
"80","58","22","1132.5278819","1","1","4","365","1","left","3","out","Female","Right-handed","0","no","left","s","598.740489608","671.744434079","28","green","1"
"80","59","22","1120.69059093","1","1","4","366","1","right","0","in","Female","Right-handed","0","no","right","s","516.232167869","399.372425665","28","red","1"
"81","58","22","1113.23038922","1","0","4","367","1","right","1","out","Female","Right-handed","0","no","right","s","776.96191546","599.035867759","28","green","0"
"81","57","22","1118.58220521","1","0","4","368","1","left","0","in","Female","Right-handed","0","no","left","s","1658.66761684","1199.30744889","28","red","2"
"81","58","22","1112.35751853","1","1","4","369","0","left","0","out","Female","Right-handed","0","no","left","s","915.088884449","575.113124058","28","green","2"
"81","59","22","1107.76086648","1","1","4","370","1","right","3","out","Female","Right-handed","0","no","right","s","1048.53149594","615.391991822","28","green","0"
"82","58","22","1103.76906699","1","0","4","371","0","left","0","in","Female","Right-handed","0","no","left","s","1083.25975606","637.278839218","28","red","3"
"82","58","22","1098.53118515","1","1","4","372","0","right","2","out","Female","Right-handed","0","no","right","s","932.857114909","614.707907574","28","green","3"
"82","59","22","1099.04475005","1","1","4","373","3","left","0","out","Female","Right-handed","0","no","left","d","663.478015173","1599.32066233","28","red","3"
"83","60","22","1097.52649849","1","1","4","374","3","right","0","in","Female","Right-handed","0","no","right","s","1041.7400435","958.976753645","28","green","1"
"83","60","22","1093.73759448","1","1","4","375","1","left","0","in","Female","Right-handed","0","no","left","d","679.509576057","1015.40809169","28","red","2"
"83","59","22","1085.92876453","1","0","4","376","0","right","1","in","Female","Right-handed","0","no","right","s","526.007228269","615.084747231","28","green","0"
"83","58","22","1081.1681804","1","0","4","377","1","left","0","out","Female","Right-handed","0","no","left","s","813.780914079","710.637173324","28","red","3"
"84","57","22","1073.27961029","1","0","4","378","1","left","2","in","Female","Right-handed","0","no","left","s","706.252042553","367.461643334","28","green","1"
"84","57","22","1085.78110889","1","0","4","379","0","left","0","out","Female","Right-handed","0","no","left","s","1298.05483386","2598.71419101","28","red","1"
"84","57","22","1094.77281632","1","1","4","380","1","left","2","in","Female","Right-handed","0","no","left","s","1185.17964989","2263.2050229","28","green","3"
"84","56","22","1088.01696922","1","0","4","381","2","right","0","out","Female","Right-handed","0","no","right","s","785.838333544","430.865316863","28","green","1"
"84","57","22","1084.1715301","1","1","4","382","2","right","0","in","Female","Right-handed","0","no","right","d","607.275988067","1007.32383868","28","red","3"
"85","58","22","1078.51887044","1","1","4","383","1","right","2","in","Female","Right-handed","0","no","right","s","636.880832397","694.868598413","28","green","0"
"85","57","22","1078.13233134","1","0","4","384","1","left","0","out","Female","Right-handed","0","no","left","d","1020.56903109","1078.48784347","28","green","3"
"85","57","22","1077.36324084","1","1","4","385","1","left","3","in","Female","Right-handed","0","no","left","s","640.17136423","1399.19154263","28","green","0"
"85","58","22","1075.69943825","1","1","4","386","2","left","0","out","Female","Right-handed","0","no","left","s","739.773453621","1158.72743011","28","red","2"
"85","58","22","1071.13690235","1","1","4","387","3","left","1","out","Female","Right-handed","0","no","left","d","768.306469741","671.336805819","28","red","0"
"86","59","22","1064.84236676","1","1","4","388","2","right","3","out","Female","Right-handed","0","no","right","s","684.920352131","462.81682995","28","red","0"
"86","58","22","1066.16281935","1","0","4","389","1","left","0","out","Female","Right-handed","0","no","left","s","1901.48096382","439.476183252","28","red","2"
"86","59","22","1064.77754164","1","1","4","390","2","left","1","out","Female","Right-handed","0","no","left","d","1012.90331064","895.007339553","28","red","0"
"86","59","22","1058.50549913","1","1","4","391","3","left","3","out","Female","Right-handed","0","no","left","s","679.519197492","421.420913222","28","red","0"
"86","59","22","1054.96516612","1","0","4","392","2","right","0","in","Female","Right-handed","0","no","right","s","818.181439158","711.134280962","28","red","2"
"86","59","22","1049.02212056","1","1","4","393","2","left","1","in","Female","Right-handed","0","no","left","s","616.720712423","494.777964468","28","green","2"
"87","58","22","1058.87137814","1","0","4","394","2","right","1","out","Female","Right-handed","0","no","right","None","772.279161538","3000.13886943","28","red","3"
"87","59","22","1054.24367288","1","1","4","395","2","left","0","out","Female","Right-handed","0","no","left","s","738.832156258","582.945295387","28","green","1"
"87","59","22","1056.12350733","1","1","4","396","2","right","0","in","Female","Right-handed","0","no","right","s","1437.16928311","998.409255568","28","red","2"
"87","60","22","1055.28751671","1","1","4","397","3","left","3","in","Female","Right-handed","0","no","left","s","878.042819888","1087.06984554","28","red","1"
"87","60","22","1061.70377082","1","1","4","398","1","right","0","out","Female","Right-handed","0","no","right","s","2870.40243589","382.26582943","28","red","3"
"87","61","22","1060.49612304","1","1","4","399","3","right","2","in","Female","Right-handed","0","no","right","d","499.132948069","1406.89799383","28","green","0"
"87","61","22","1054.04842678","1","1","4","400","0","left","0","out","Female","Right-handed","0","no","left","s","604.711554097","342.799973187","28","red","1"
"88","61","22","1050.05118117","1","1","4","401","3","right","3","in","Female","Right-handed","0","no","right","s","742.353602604","630.250057969","28","green","2"
"88","62","22","1045.88680745","1","1","4","402","0","right","0","out","Female","Right-handed","0","no","right","s","766.759342496","558.769507869","28","red","3"
"88","62","22","1048.71171707","1","1","4","403","2","left","2","in","Female","Right-handed","0","no","left","s","728.496166019","1894.3604582","28","red","0"
"87","62","22","1055.77190831","0","0","4","404","3","left","0","in","Female","Right-handed","0","no","None","s","3000.11128796","438.748481818","28","red","3"
"87","61","22","1061.96402409","1","0","4","405","0","left","0","out","Female","Right-handed","0","no","left","s","2758.19690401","542.233142198","28","green","1"
"100","100","22","900.515933583","1","1","5","406","0","right","0","out","Female","Right-handed","0","no","right","d","849.095761212","951.936105954","28","red","3"
"100","100","22","897.800443036","1","1","5","407","2","left","0","out","Female","Right-handed","0","no","left","s","1022.74892825","767.420976725","28","green","1"
"100","100","22","789.949253329","1","1","5","408","3","right","1","out","Female","Right-handed","0","no","right","d","565.24601857","583.24772926","28","green","3"
"100","100","22","757.068830485","1","1","5","409","0","left","2","in","Female","Right-handed","0","no","left","s","724.892296017","591.962827893","28","green","1"
"100","100","22","735.95502555","1","1","5","410","2","left","0","out","Female","Right-handed","0","no","left","s","703.521157702","599.478453914","28","green","3"
"100","100","22","722.408147605","1","1","5","411","1","left","0","in","Female","Right-handed","0","no","left","d","558.236159479","751.111356279","28","red","1"
"100","100","22","742.425992471","1","1","5","412","3","left","2","out","Female","Right-handed","0","no","left","s","1085.63817555","639.427947775","28","green","0"
"100","100","22","716.462432934","1","1","5","413","0","left","3","in","Female","Right-handed","0","no","left","s","542.220955045","527.214077316","28","red","0"
"100","100","22","707.056555134","1","1","5","414","2","left","0","in","Female","Right-handed","0","no","left","d","631.842405976","631.776659484","28","green","2"
"100","100","22","720.851003372","1","1","5","415","3","right","3","out","Female","Right-handed","0","no","right","s","994.478577388","695.523497638","28","red","1"
"100","100","22","760.180596726","1","1","5","416","2","right","3","out","Female","Right-handed","0","no","right","d","1684.01689909","622.936161438","28","red","0"
"100","100","22","759.340051128","1","1","5","417","3","left","0","in","Female","Right-handed","0","no","left","d","860.614867622","639.573231492","28","red","1"
"100","100","22","772.289695778","1","1","5","418","1","right","1","out","Female","Right-handed","0","no","right","d","1008.18591954","847.184943603","28","red","2"
"100","100","22","761.424209252","1","1","5","419","0","left","3","in","Female","Right-handed","0","no","left","s","840.703622183","399.642146644","28","green","1"
"100","100","22","779.210915928","1","1","5","420","0","right","1","in","Female","Right-handed","0","no","right","d","1113.2074443","943.242174482","28","green","2"
"100","100","22","795.90383108","1","1","5","421","3","right","1","in","Female","Right-handed","0","no","right","d","716.735240796","1375.85987594","28","red","0"
"100","100","22","810.261656141","1","1","5","422","1","right","3","out","Female","Right-handed","0","no","right","d","1152.49786965","927.475844579","28","green","2"
"100","100","22","804.273882004","1","1","5","423","2","left","0","out","Female","Right-handed","0","no","left","d","741.995043678","662.968399669","28","red","3"
"100","94","22","830.929009097","1","0","5","424","3","right","3","in","Female","Right-handed","0","no","right","d","669.809242161","1951.63335137","28","green","2"
"100","95","22","817.565763331","1","1","5","425","3","left","2","in","Female","Right-handed","0","no","left","s","688.174322498","439.153865078","28","green","1"
"100","95","22","810.221088888","1","1","5","426","2","right","1","in","Female","Right-handed","0","no","right","s","751.707564726","574.947635323","28","red","0"
"100","95","22","803.503847861","1","1","5","427","2","left","0","out","Female","Right-handed","0","no","left","d","669.434006075","655.449566504","28","red","1"
"100","95","22","817.633770166","1","1","5","428","0","right","0","out","Female","Right-handed","0","no","right","s","785.949942223","1471.03417951","28","red","2"
"100","95","22","826.842878227","1","1","5","429","2","left","2","out","Female","Right-handed","0","no","left","d","1174.68683021","902.617897092","28","green","0"
"100","92","22","837.113863626","1","0","5","430","0","right","0","out","Female","Right-handed","0","no","right","s","648.134387116","1519.10063928","28","green","3"
"100","92","22","828.905691428","1","1","5","431","2","right","3","out","Female","Right-handed","0","no","right","s","608.685528747","638.717244216","28","green","0"
"100","92","22","823.663805857","1","1","5","432","1","left","0","out","Female","Right-handed","0","no","left","d","815.444460732","559.305101255","28","red","2"
"100","92","22","827.241735517","1","1","5","433","1","left","1","out","Female","Right-handed","0","no","left","s","896.81905635","950.872616326","28","red","3"
"100","93","22","830.941268718","1","1","5","434","0","right","1","in","Female","Right-handed","0","no","right","d","957.477733588","911.578663116","28","red","3"
"100","93","22","833.062896089","1","1","5","435","3","left","1","in","Female","Right-handed","0","no","left","d","910.010047988","879.170131721","28","green","0"
"100","90","22","832.662143191","1","0","5","436","3","left","0","in","Female","Right-handed","0","no","left","s","946.498069137","694.781043326","28","red","1"
"100","90","22","824.411741265","1","1","5","437","1","right","1","out","Female","Right-handed","0","no","right","d","570.245959236","567.052603932","28","red","0"
"100","90","22","816.667622493","1","1","5","438","1","left","0","out","Female","Right-handed","0","no","left","d","586.930815767","550.780827809","28","red","1"
"100","91","22","810.135549272","1","1","5","439","1","left","2","in","Female","Right-handed","0","no","left","d","525.584526418","663.56973955","28","green","1"
"100","91","22","811.10691484","1","1","5","440","2","right","0","out","Female","Right-handed","0","no","right","d","561.1113659","1127.1553224","28","green","3"
"100","91","22","810.318434679","1","1","5","441","2","left","0","out","Female","Right-handed","0","no","left","d","686.76029181","878.682966238","28","green","1"
"100","91","22","812.427017383","1","1","5","442","2","right","3","in","Female","Right-handed","0","no","right","s","849.340787168","927.331202292","28","red","1"
"100","92","22","809.031476838","1","1","5","443","0","left","0","out","Female","Right-handed","0","no","left","d","743.828248349","622.964705038","28","red","1"
"100","92","22","808.155649836","1","1","5","444","1","left","3","in","Female","Right-handed","0","no","left","s","934.35421068","615.394236822","28","red","0"
"100","92","22","809.978842458","1","1","5","445","1","left","0","in","Female","Right-handed","0","no","left","s","779.14726477","983.019444608","28","red","2"
"100","92","22","810.06794245","1","1","5","446","2","left","2","out","Female","Right-handed","0","no","left","s","788.666074201","838.5978101","28","green","1"
"100","90","22","822.048592936","1","0","5","447","3","left","0","in","Female","Right-handed","0","no","left","d","1323.25145596","1303.25906973","28","red","2"
"100","90","22","825.528809342","1","1","5","448","3","right","2","in","Female","Right-handed","0","no","right","s","696.809242483","1246.58655429","28","red","3"
"100","90","22","820.967421315","1","1","5","449","1","right","0","out","Female","Right-handed","0","no","right","s","578.371905147","671.283567193","28","green","1"
"100","91","22","819.700628597","1","1","5","450","2","left","1","out","Female","Right-handed","0","no","left","d","960.924774147","566.998723876","28","red","0"
"100","91","22","816.219279323","1","1","5","451","3","left","2","out","Female","Right-handed","0","no","left","s","703.48331338","615.633810631","28","red","0"
"100","91","22","810.345716081","1","1","5","452","2","left","0","in","Female","Right-handed","0","no","left","s","601.107042668","479.216571195","28","green","2"
"100","91","22","805.166950793","1","1","5","453","3","right","0","in","Female","Right-handed","0","no","right","d","532.759553527","590.770410996","28","green","3"
"100","91","22","807.506823383","1","1","5","454","2","right","2","in","Female","Right-handed","0","no","right","s","944.412782785","895.228632631","28","green","3"
"100","90","22","810.387557941","1","0","5","455","0","left","0","out","Female","Right-handed","0","no","left","s","1024.11453104","878.972571525","28","green","3"
"100","90","22","812.037125897","1","1","5","456","3","left","0","out","Female","Right-handed","0","no","left","d","974.563804088","814.467243334","28","green","2"
"100","88","22","822.528768778","1","0","5","457","0","left","0","in","Female","Right-handed","0","no","left","d","1036.22022445","1678.98488697","28","green","1"
"100","88","22","827.586397927","1","1","5","458","2","right","0","out","Female","Right-handed","0","no","right","s","1630.61214476","550.554082584","28","red","3"
"100","88","22","823.614371264","1","1","5","459","2","right","3","in","Female","Right-handed","0","no","right","s","634.990219809","591.203696429","28","green","2"
"100","89","22","820.127229233","1","1","5","460","1","right","0","out","Female","Right-handed","0","no","right","s","792.901110537","470.742008514","28","green","3"
"100","89","22","821.470848486","1","1","5","461","3","right","0","in","Female","Right-handed","0","no","right","d","608.460387095","1182.27942773","28","red","3"
"100","87","22","822.356797258","1","0","5","462","2","right","1","in","Female","Right-handed","0","no","right","s","625.942219416","1117.99763762","28","green","2"
"100","87","22","819.325259494","1","1","5","463","2","left","0","out","Female","Right-handed","0","no","left","s","630.501498217","662.553715687","28","red","2"
"100","88","22","816.771629399","1","1","5","464","3","left","0","out","Female","Right-handed","0","no","left","s","891.11835427","446.203813488","28","red","2"
"100","88","22","820.021563246","1","1","5","465","2","right","0","in","Female","Right-handed","0","no","right","d","1064.81866636","958.716654099","28","green","1"
"100","88","22","818.098968184","1","1","5","466","1","right","2","in","Female","Right-handed","0","no","right","d","591.210752151","814.275776713","28","red","0"
"100","88","22","817.297218648","1","1","5","467","0","right","0","in","Female","Right-handed","0","no","right","s","657.94055683","878.840437108","28","green","1"
"100","88","22","814.484704461","1","1","5","468","1","right","0","out","Female","Right-handed","0","no","right","s","657.59226077","622.625388987","28","green","3"
"100","89","22","809.699322142","1","1","5","469","3","right","0","out","Female","Right-handed","0","no","right","s","538.236076092","478.204395906","28","red","3"
"100","89","22","806.015720295","1","1","5","470","1","right","0","out","Female","Right-handed","0","no","right","d","453.765943123","686.764461101","28","green","1"
"100","87","22","808.196067726","1","0","5","471","1","right","2","in","Female","Right-handed","0","no","right","s","965.395215004","934.442086476","28","red","3"
"100","88","22","807.855515524","1","1","5","472","0","right","0","in","Female","Right-handed","0","no","right","d","643.862147885","926.895992576","28","red","1"
"100","88","22","808.196817704","1","1","5","473","0","left","3","in","Female","Right-handed","0","no","left","d","575.546730204","1086.58139721","28","red","0"
"100","88","22","806.036857926","1","1","5","474","0","right","1","in","Female","Right-handed","0","no","right","s","536.177409056","782.141777021","28","green","0"
"100","88","22","803.033112546","1","1","5","475","1","right","3","out","Female","Right-handed","0","no","right","s","672.638265678","518.911096951","28","red","1"
"100","88","22","803.2484342","1","1","5","476","0","left","3","in","Female","Right-handed","0","no","left","s","1134.39064386","502.251256159","28","red","2"
"100","88","22","799.64668743","1","1","5","477","2","right","1","in","Female","Right-handed","0","no","right","s","713.834056489","374.011276966","28","green","3"
"100","89","22","800.267487841","1","1","5","478","1","left","0","in","Female","Right-handed","0","no","left","d","875.461067331","814.46916762","28","green","2"
"100","89","22","797.348156566","1","1","5","479","2","right","0","out","Female","Right-handed","0","no","right","d","482.155920538","686.318026372","28","red","2"
"100","89","22","794.941206064","1","1","5","480","0","right","0","out","Female","Right-handed","0","no","right","s","522.765124337","710.888613572","28","red","3"
"100","89","22","794.394541299","1","1","5","481","0","right","2","in","Female","Right-handed","0","no","right","d","500.450122945","1006.33924485","28","red","0"
"100","89","22","796.434896066","1","1","5","482","0","left","1","in","Female","Right-handed","0","no","left","d","761.098729745","1141.90498701","28","red","0"
"100","89","22","795.19229361","1","1","5","483","3","left","0","out","Female","Right-handed","0","no","left","s","920.550333431","478.473475458","28","green","1"
"100","89","22","797.254965548","1","1","5","484","1","left","0","out","Female","Right-handed","0","no","left","s","1270.26619633","646.020557164","28","red","3"
"100","90","22","798.986267241","1","1","5","485","3","left","3","in","Female","Right-handed","0","no","left","s","680.757476578","1190.76072542","28","green","0"
"100","90","22","801.340818274","1","1","5","486","3","left","0","in","Female","Right-handed","0","no","left","s","1053.14369265","926.266109094","28","red","1"
"100","90","22","802.0911347","1","1","5","487","3","right","0","out","Female","Right-handed","0","no","right","d","1071.97541273","653.758117689","28","green","2"
"100","90","22","801.029902305","1","1","5","488","3","right","1","in","Female","Right-handed","0","no","right","s","653.44702452","774.570667378","28","green","2"
"100","90","22","801.155615277","1","1","5","489","3","left","3","in","Female","Right-handed","0","no","left","s","977.134331631","646.04525219","28","green","0"
"100","90","22","798.279468026","1","1","5","490","3","left","0","out","Female","Right-handed","0","no","left","s","594.604874797","518.76132323","28","red","3"
"100","90","22","797.854441305","1","1","5","491","0","right","0","in","Female","Right-handed","0","no","right","s","861.178042469","662.276297557","28","red","2"
"100","90","22","797.343988372","1","1","5","492","0","right","2","in","Female","Right-handed","0","no","right","d","476.98664256","1029.90342963","28","red","0"
"100","89","22","798.573791998","1","0","5","493","0","left","0","out","Female","Right-handed","0","no","left","s","1028.48683322","782.646581807","28","green","2"
"100","89","22","799.237045543","1","1","5","494","1","left","3","out","Female","Right-handed","0","no","left","d","781.190216796","934.016498199","28","green","0"
"100","90","22","799.369622975","1","1","5","495","1","right","0","out","Female","Right-handed","0","no","right","s","807.775533132","814.562495572","28","red","2"
"100","90","22","798.873219991","1","1","5","496","1","left","1","in","Female","Right-handed","0","no","left","d","742.081957335","766.311945627","28","red","0"
"100","90","22","799.551830276","1","1","5","497","1","right","0","out","Female","Right-handed","0","no","right","s","516.776420547","1205.83431178","28","green","3"
"100","90","22","799.426747476","1","1","5","498","2","right","2","in","Female","Right-handed","0","no","right","d","697.462858843","878.375400934","28","green","0"
"100","90","22","799.789587678","1","1","5","499","0","left","2","out","Female","Right-handed","0","no","left","d","837.051324281","830.016128737","28","green","3"
"100","90","22","797.60829954","1","1","5","500","0","left","0","in","Female","Right-handed","0","no","left","s","642.588910909","542.545518223","28","green","2"
"100","90","22","796.110406363","1","1","5","501","1","right","2","out","Female","Right-handed","0","no","right","d","581.300670903","726.320438148","28","green","0"
dis_reply=No
dis_loc=3
