"acc_1","acc_2","age","avg_rt","correct_1","correct_2","count_block_loop","count_trial_sequence","cue_position","detection","dis_position","dis_shape","gender","hand","high_loc","practice","response_keyboard_response_1","response_keyboard_response_2","response_time_keyboard_response_1","response_time_keyboard_response_2","subject_nr","tar_color","tar_position"
"0","0","19","3000.11497618","0","0","0","0","3","right","1","in","Female","Right-handed","3","yes","None","None","3000.09396938","3000.13598299","11","red","3"
"0","0","19","2526.18746987","0","0","0","1","2","left","0","out","Female","Right-handed","3","yes","None","d","3000.09204509","1104.42788203","11","red","1"
"33","0","19","2354.14872669","1","0","0","2","1","right","1","out","Female","Right-handed","3","yes","right","None","1020.01194983","3000.13053084","11","green","3"
"25","0","19","2515.63126897","0","0","0","3","0","right","0","out","Female","Right-handed","3","yes","None","None","3000.03110932","3000.12668227","11","red","3"
"40","20","19","2196.98185108","1","1","0","4","2","left","2","out","Female","Right-handed","3","yes","left","d","1242.83483487","601.933524202","11","red","1"
"50","33","19","2010.20441707","1","1","0","5","0","right","0","in","Female","Right-handed","3","yes","right","s","1047.27846398","1105.35603009","11","red","1"
"57","42","19","1906.87192432","1","1","0","6","2","left","1","out","Female","Right-handed","3","yes","left","s","947.872972643","1625.88096293","11","green","3"
"62","37","19","1781.95119237","1","0","0","7","2","left","0","out","Female","Right-handed","3","yes","left","s","1133.46666509","681.545472358","11","red","2"
"55","44","19","1750.60366506","0","1","0","8","2","left","0","in","Female","Right-handed","3","yes","right","s","1858.95805598","1140.68883724","11","red","3"
"60","40","19","1671.99581018","1","0","0","9","1","right","2","in","Female","Right-handed","3","yes","right","s","1207.50876273","721.54146984","11","red","1"
"63","45","19","1597.36288919","1","1","0","10","2","left","2","in","Female","Right-handed","3","yes","left","s","1156.06806462","545.999293787","11","green","3"
"66","50","19","1529.09989255","1","1","0","11","0","left","1","out","Female","Right-handed","3","yes","left","s","978.750733233","577.66312587","11","green","2"
"69","46","19","1473.91547951","1","0","0","12","3","left","2","in","Female","Right-handed","3","yes","left","s","854.326937109","769.078109079","11","red","3"
"71","50","19","1413.58734449","1","1","0","13","0","left","1","out","Female","Right-handed","3","yes","left","s","680.882234561","577.760943825","11","green","0"
"73","53","19","1369.38371803","1","1","0","14","0","right","0","out","Female","Right-handed","3","yes","right","s","827.57869775","673.487197235","11","red","1"
"75","56","19","1323.41752599","1","1","0","15","1","left","3","in","Female","Right-handed","3","yes","left","d","745.072300297","522.77699078","11","red","0"
"76","58","19","1290.16645258","1","1","0","16","0","left","0","out","Female","Right-handed","3","yes","left","d","1034.73403298","481.564522806","11","green","3"
"77","61","19","1266.30503244","1","1","0","17","0","left","1","in","Female","Right-handed","3","yes","left","s","1127.95069462","593.371085717","11","red","3"
"78","63","19","1235.30224473","1","1","0","18","1","right","1","in","Female","Right-handed","3","yes","right","s","472.786243396","881.717888529","11","green","0"
"80","65","19","1206.95925032","1","1","0","19","0","right","3","in","Female","Right-handed","3","yes","right","s","903.455924352","433.42878869","11","red","1"
"80","61","19","1183.91082656","1","0","0","20","1","right","1","out","Female","Right-handed","3","yes","right","s","996.924026238","448.96067622","11","green","2"
"81","63","19","1163.37620287","1","1","0","21","2","left","3","in","Female","Right-handed","3","yes","left","d","1038.64065757","425.657553134","11","green","2"
"100","100","19","493.94234257","1","1","1","22","0","left","3","in","Female","Right-handed","3","no","left","s","625.949595853","361.935089288","11","red","0"
"100","50","19","544.964588297","1","0","1","23","3","right","2","in","Female","Right-handed","3","no","right","d","574.47650557","617.497162479","11","red","0"
"100","66","19","586.007104256","1","1","1","24","2","right","3","out","Female","Right-handed","3","no","right","s","831.053961194","505.130311154","11","green","1"
"100","75","19","578.559122294","1","1","1","25","0","right","2","in","Female","Right-handed","3","no","right","s","686.768951105","425.661401709","11","green","3"
"100","60","19","568.431676725","1","0","1","26","2","right","0","out","Female","Right-handed","3","no","right","s","718.381468852","337.462320043","11","red","3"
"100","66","19","571.353386762","1","1","1","27","2","left","2","in","Female","Right-handed","3","no","left","s","617.991062967","553.932810932","11","green","0"
"100","57","19","558.112936349","1","0","1","28","1","left","3","out","Female","Right-handed","3","no","left","s","611.681965289","345.658502449","11","red","0"
"100","62","19","558.619613879","1","1","1","29","3","right","3","in","Female","Right-handed","3","no","right","s","795.172411361","329.160301819","11","red","1"
"100","55","19","580.750128651","1","0","1","30","3","left","0","out","Female","Right-handed","3","no","left","d","897.757146564","617.831347095","11","green","3"
"100","60","19","572.462866861","1","1","1","31","2","right","3","in","Female","Right-handed","3","no","right","d","546.398262753","449.356758754","11","red","0"
"100","63","19","566.933662546","1","1","1","32","0","right","1","out","Female","Right-handed","3","no","right","s","422.198004706","601.085234075","11","green","0"
"100","58","19","584.539661225","1","0","1","33","2","right","3","in","Female","Right-handed","3","no","right","d","1026.68922787","529.722065517","11","green","2"
"100","61","19","591.13622301","1","1","1","34","1","right","3","in","Female","Right-handed","3","no","right","s","827.30127962","513.288649236","11","red","1"
"100","64","19","591.403524534","1","1","1","35","1","left","1","out","Female","Right-handed","3","no","left","d","667.870201669","521.886687042","11","red","3"
"100","66","19","592.507657863","1","1","1","36","3","left","1","in","Female","Right-handed","3","no","left","s","750.603344348","465.327704578","11","green","3"
"100","68","19","580.483710585","1","1","1","37","3","right","3","in","Female","Right-handed","3","no","right","s","431.065763492","369.183239325","11","red","0"
"100","70","19","571.736650146","1","1","1","38","0","right","3","out","Female","Right-handed","3","no","right","s","469.846894055","393.720472206","11","red","0"
"100","72","19","571.158900081","1","1","1","39","2","right","3","in","Female","Right-handed","3","no","right","s","753.353792788","369.320505177","11","green","1"
"100","73","19","564.885349678","1","1","1","40","3","right","1","out","Female","Right-handed","3","no","right","s","574.894075984","329.02880883","11","red","3"
"100","75","19","566.699048151","1","1","1","41","3","left","0","in","Female","Right-handed","3","no","left","s","632.701921113","569.616717185","11","red","3"
"100","76","19","565.915800474","1","1","1","42","2","left","3","out","Female","Right-handed","3","no","left","s","723.274932272","377.22676158","11","green","0"
"100","77","19","560.164849639","1","1","1","43","1","right","2","in","Female","Right-handed","3","no","right","d","533.896486795","344.893277404","11","red","0"
"100","78","19","559.136133463","1","1","1","44","1","left","0","out","Female","Right-handed","3","no","left","d","631.604756454","441.403998735","11","red","1"
"100","75","19","557.531783352","1","0","1","45","1","right","3","in","Female","Right-handed","3","no","right","s","464.163510567","577.099951026","11","red","0"
"100","76","19","562.716529663","1","1","1","46","1","right","0","out","Female","Right-handed","3","no","right","d","924.705832549","449.595049708","11","red","3"
"100","76","19","573.928478324","1","1","1","47","2","right","1","out","Female","Right-handed","3","no","right","d","1187.26493624","521.189453493","11","red","2"
"100","77","19","573.446886971","1","1","1","48","3","left","3","out","Female","Right-handed","3","no","left","d","640.936268557","480.914755021","11","green","0"
"100","75","19","575.058539578","1","0","1","49","2","left","1","out","Female","Right-handed","3","no","left","d","523.635543774","713.510776171","11","red","0"
"100","75","19","579.648028551","1","1","1","50","1","left","0","out","Female","Right-handed","3","no","left","d","927.181749286","489.125690297","11","green","3"
"100","76","19","590.033766972","1","1","1","51","0","left","1","in","Female","Right-handed","3","no","left","d","1053.60776668","728.832595636","11","red","2"
"100","77","19","587.850356263","1","1","1","52","0","left","3","out","Female","Right-handed","3","no","left","d","635.477385291","409.218684705","11","red","1"
"100","78","19","586.760486245","1","1","1","53","1","right","3","out","Female","Right-handed","3","no","right","d","649.056441602","456.892589793","11","red","1"
"100","78","19","585.34772475","1","1","1","54","0","left","1","out","Female","Right-handed","3","no","left","d","718.586084769","361.692629049","11","red","3"
"100","79","19","586.340384898","1","1","1","55","2","right","3","in","Female","Right-handed","3","no","right","s","573.004104826","665.19223473","11","red","1"
"100","80","19","582.798330213","1","1","1","56","2","left","2","in","Female","Right-handed","3","no","left","d","571.870378704","352.866563162","11","red","1"
"100","80","19","582.927656086","1","1","1","57","2","right","3","in","Female","Right-handed","3","no","right","d","693.521276367","481.386846917","11","red","2"
"100","81","19","583.215753148","1","1","1","58","1","left","3","out","Female","Right-handed","3","no","left","d","618.095295215","569.079199509","11","green","0"
"100","78","19","581.482545623","1","0","1","59","1","right","1","in","Female","Right-handed","3","no","right","s","345.861194079","688.846540308","11","green","0"
"100","76","19","582.914144956","1","0","1","60","1","left","3","in","Female","Right-handed","3","no","left","d","785.239559376","489.390279845","11","red","1"
"100","77","19","581.266149985","1","1","1","61","0","right","0","out","Female","Right-handed","3","no","right","s","720.902927065","313.085765179","11","green","3"
"100","78","19","580.298457323","1","1","1","62","3","right","2","out","Female","Right-handed","3","no","right","s","673.607785926","409.573715771","11","red","3"
"100","78","19","582.045614566","1","1","1","63","1","left","1","in","Female","Right-handed","3","no","left","d","922.206503643","385.151619432","11","green","2"
"100","79","19","596.108291628","1","1","1","64","1","left","2","in","Female","Right-handed","3","no","left","d","652.659990885","1720.82146556","11","red","3"
"100","79","19","597.15759904","1","1","1","65","2","right","3","out","Female","Right-handed","3","no","right","d","843.339254792","441.21638069","11","red","2"
"100","80","19","593.306949925","1","1","1","66","3","left","3","in","Female","Right-handed","3","no","left","s","526.956543492","320.800234251","11","green","1"
"100","78","19","590.074174455","1","0","1","67","3","left","1","in","Female","Right-handed","3","no","left","s","520.499917095","368.69863956","11","red","0"
"100","78","19","586.491354875","1","1","1","68","1","right","1","out","Female","Right-handed","3","no","right","s","530.211796717","313.151511671","11","green","3"
"100","79","19","588.279550964","1","1","1","69","3","left","0","out","Female","Right-handed","3","no","left","d","759.811060612","584.838473695","11","red","2"
"100","79","19","590.996887871","1","1","1","70","3","left","2","out","Female","Right-handed","3","no","left","d","489.462440631","953.395678114","11","red","3"
"100","78","19","592.407270985","1","0","1","71","3","right","3","in","Female","Right-handed","3","no","right","d","849.97002922","473.062057956","11","green","1"
"100","78","19","594.831701773","1","1","1","72","0","left","0","out","Female","Right-handed","3","no","left","d","887.624168669","544.482313711","11","green","2"
"100","78","19","594.626695726","1","1","1","73","0","right","3","out","Female","Right-handed","3","no","right","s","823.127820484","345.214954152","11","green","1"
"100","79","19","593.347147096","1","1","1","74","2","left","0","out","Female","Right-handed","3","no","left","d","668.827534761","384.793701935","11","red","3"
"100","79","19","593.469895512","1","1","1","75","2","left","0","in","Female","Right-handed","3","no","left","s","742.47739844","457.473724653","11","green","2"
"100","80","19","591.897883187","1","1","1","76","3","left","3","in","Female","Right-handed","3","no","left","s","668.936898439","345.081536876","11","green","2"
"100","80","19","591.502035461","1","1","1","77","0","right","3","out","Female","Right-handed","3","no","right","d","642.752154641","496.708666382","11","green","2"
"100","80","19","591.7184715","1","1","1","78","3","left","3","out","Female","Right-handed","3","no","left","d","622.345405138","585.332374183","11","green","2"
"100","79","19","590.971886125","1","0","1","79","3","left","2","in","Female","Right-handed","3","no","left","s","663.98763068","432.845408826","11","red","1"
"100","79","19","594.255005063","1","1","1","80","3","right","0","out","Female","Right-handed","3","no","right","s","832.649837062","736.701969861","11","red","1"
"100","80","19","591.963025669","1","1","1","81","0","left","2","out","Female","Right-handed","3","no","left","d","488.285097323","425.187385525","11","green","3"
"100","80","19","591.042461105","1","1","1","82","0","left","3","out","Female","Right-handed","3","no","left","s","622.827439187","448.789735337","11","green","0"
"100","80","19","589.072891881","1","1","1","83","2","right","1","out","Female","Right-handed","3","no","right","s","577.483204979","360.375133458","11","green","3"
"100","80","19","592.015878163","1","1","1","84","0","left","0","in","Female","Right-handed","3","no","left","d","1019.99142409","528.970631203","11","red","1"
"100","81","19","592.119792637","1","1","1","85","0","left","3","in","Female","Right-handed","3","no","left","s","764.773477671","432.559331401","11","red","2"
"100","81","19","592.776579525","1","1","1","86","2","right","3","in","Female","Right-handed","3","no","right","d","812.334170505","457.287710184","11","green","1"
"100","81","19","594.096583456","1","1","1","87","0","right","3","in","Female","Right-handed","3","no","right","d","702.982677883","656.810999999","11","red","0"
"100","82","19","593.035062976","1","1","1","88","1","left","3","out","Female","Right-handed","3","no","left","d","629.473607914","416.475814751","11","red","1"
"100","82","19","591.608662286","1","1","1","89","1","right","2","in","Female","Right-handed","3","no","right","s","559.105616771","432.974015383","11","green","3"
"100","81","19","592.270785959","1","0","1","90","3","left","3","out","Female","Right-handed","3","no","left","d","529.786529152","744.803862173","11","green","1"
"100","81","19","590.258660451","1","1","1","91","3","right","3","out","Female","Right-handed","3","no","right","s","494.456608438","408.387392454","11","green","0"
"100","81","19","590.466976589","1","1","1","92","2","left","2","in","Female","Right-handed","3","no","left","d","697.068379881","513.029832551","11","green","3"
"100","81","19","589.580582092","1","1","1","93","0","left","2","in","Female","Right-handed","3","no","left","s","508.677414668","544.615730989","11","green","0"
"100","82","19","590.09565603","1","1","1","94","3","right","3","in","Female","Right-handed","3","no","right","d","742.17015385","512.191805292","11","green","2"
"100","82","19","589.903053523","1","1","1","95","1","left","3","in","Female","Right-handed","3","no","left","s","774.824352629","376.861788362","11","green","2"
"100","81","19","591.317096836","1","0","1","96","0","right","2","in","Female","Right-handed","3","no","right","d","791.41107049","600.501533496","11","green","1"
"100","80","19","593.097322045","1","0","1","97","0","left","3","out","Female","Right-handed","3","no","left","d","756.185382021","697.043043428","11","red","2"
"100","80","19","592.403883364","1","1","1","98","2","right","0","out","Female","Right-handed","3","no","right","s","670.68767946","408.717407779","11","green","1"
"100","80","19","592.094528524","1","1","1","99","1","left","3","out","Female","Right-handed","3","no","left","s","680.268707525","456.279704185","11","red","2"
"100","81","19","591.097436373","1","1","1","100","1","right","2","out","Female","Right-handed","3","no","right","s","649.796971622","376.851525496","11","red","1"
"100","80","19","593.346182229","1","0","1","101","2","left","3","out","Female","Right-handed","3","no","left","d","837.570561222","704.423648596","11","green","2"
"100","79","19","599.187454902","1","0","1","102","0","left","3","in","Female","Right-handed","3","no","left","s","1540.06190433","592.916633126","11","red","1"
"100","79","19","597.321826161","1","1","1","103","3","left","3","out","Female","Right-handed","3","no","left","s","563.694401319","328.717394952","11","green","0"
"100","79","19","596.054885413","1","1","1","104","2","right","3","out","Female","Right-handed","3","no","right","d","448.136760404","536.194727645","11","green","0"
"100","78","19","602.898168822","1","0","1","105","0","right","3","out","Female","Right-handed","3","no","right","d","1580.92767982","760.853703789","11","red","2"
"100","77","19","603.913816138","1","0","1","106","1","right","0","in","Female","Right-handed","3","no","right","d","898.124044072","480.3323373","11","red","2"
"100","77","19","602.706918144","1","1","1","107","3","right","1","out","Female","Right-handed","3","no","right","d","640.051416965","360.189760417","11","red","2"
"100","78","19","601.498535667","1","1","1","108","2","left","3","in","Female","Right-handed","3","no","left","d","522.639724928","472.515560272","11","green","0"
"100","77","19","602.075126988","1","0","1","109","1","right","3","in","Female","Right-handed","3","no","right","s","672.174833075","632.302310716","11","green","2"
"100","77","19","601.561133106","1","1","1","110","2","left","2","in","Female","Right-handed","3","no","left","s","799.849392422","312.809950619","11","green","3"
"100","77","19","600.99896541","1","1","1","111","3","right","3","out","Female","Right-handed","3","no","right","d","581.41901459","520.513066394","11","green","2"
"100","78","19","602.27587823","1","1","1","112","2","right","1","in","Female","Right-handed","3","no","right","d","954.169883165","480.226180765","11","red","3"
"100","77","19","601.62976041","1","0","1","113","1","left","3","in","Female","Right-handed","3","no","left","s","660.838533988","424.827543739","11","green","2"
"100","77","19","606.415360773","1","1","1","114","0","right","0","in","Female","Right-handed","3","no","right","d","1629.34884993","464.032338294","11","green","3"
"100","76","19","604.995475229","1","0","1","115","1","left","3","in","Female","Right-handed","3","no","left","s","640.973150736","304.919088518","11","red","0"
"100","76","19","604.758180936","1","1","1","116","0","right","3","in","Female","Right-handed","3","no","right","d","652.392514905","512.512519896","11","green","1"
"100","77","19","604.646594356","1","1","1","117","0","right","1","out","Female","Right-handed","3","no","right","s","595.877791058","592.21394743","11","green","3"
"100","100","19","400.586971867","1","1","2","118","2","right","3","out","Female","Right-handed","3","no","right","s","447.631634903","353.542308831","11","green","0"
"100","100","19","512.835238966","1","1","2","119","3","left","2","in","Female","Right-handed","3","no","left","s","793.1220829","457.044929229","11","green","1"
"100","100","19","504.663243786","1","1","2","120","3","right","0","in","Female","Right-handed","3","no","right","s","543.858844523","432.779662333","11","green","3"
"100","75","19","566.7417513","1","0","2","121","0","left","0","in","Female","Right-handed","3","no","left","d","1072.48310395","433.471443732","11","red","3"
"100","80","19","556.795477411","1","1","2","122","1","right","2","out","Female","Right-handed","3","no","right","d","649.049385878","384.971377825","11","green","1"
"100","83","19","545.194647572","1","1","2","123","1","right","3","in","Female","Right-handed","3","no","right","s","445.630375778","528.750620984","11","red","0"
"100","85","19","531.919533256","1","1","2","124","3","right","1","in","Female","Right-handed","3","no","right","d","487.360477122","417.177217591","11","green","3"
"100","87","19","532.177556745","1","1","2","125","1","left","3","out","Female","Right-handed","3","no","left","s","539.072179066","528.895263271","11","green","2"
"100","88","19","535.046230832","1","1","2","126","3","left","1","in","Female","Right-handed","3","no","left","d","723.564216845","392.427030212","11","red","2"
"90","90","19","602.560970251","0","1","2","127","1","right","3","in","Female","Right-handed","3","no","left","s","528.249664773","1892.13758528","11","red","2"
"90","90","19","594.853209946","1","1","2","128","3","left","3","out","Female","Right-handed","3","no","left","s","698.737057963","336.814155829","11","red","2"
"91","83","19","599.93258579","1","0","2","129","2","right","1","in","Female","Right-handed","3","no","right","d","894.321010303","417.290429843","11","green","3"
"92","84","19","594.70392627","1","1","2","130","2","left","3","in","Female","Right-handed","3","no","left","s","543.008630109","520.911393931","11","red","1"
"92","78","19","591.942027262","1","0","2","131","2","left","2","in","Female","Right-handed","3","no","left","s","799.520980668","312.553699652","11","red","3"
"93","80","19","588.385320636","1","1","2","132","1","left","1","in","Female","Right-handed","3","no","left","d","580.135194034","497.047661718","11","red","3"
"93","81","19","576.60025763","1","1","2","133","1","left","3","in","Female","Right-handed","3","no","left","d","430.813361098","368.835263982","11","green","0"
"94","82","19","566.421371561","1","1","2","134","3","right","2","in","Female","Right-handed","3","no","right","s","493.553796828","313.564592081","11","red","3"
"94","83","19","558.406129312","1","1","2","135","0","left","3","out","Female","Right-handed","3","no","left","s","555.081610641","289.212411528","11","red","0"
"94","84","19","558.816982068","1","1","2","136","1","right","1","in","Female","Right-handed","3","no","right","d","739.715404276","392.709259062","11","green","2"
"95","85","19","554.671424682","1","1","2","137","2","left","3","in","Female","Right-handed","3","no","left","d","598.477182921","353.334485768","11","red","2"
"95","80","19","558.161219169","1","0","2","138","2","left","1","out","Female","Right-handed","3","no","left","d","478.972507383","776.941710441","11","green","3"
"95","81","19","557.092447471","1","1","2","139","3","right","3","out","Female","Right-handed","3","no","right","s","668.699569635","400.59691402","11","red","2"
"95","82","19","562.119929664","1","1","2","140","0","left","2","in","Female","Right-handed","3","no","left","d","824.160521508","521.288554306","11","green","3"
"95","79","19","561.108646509","1","0","2","141","2","right","3","in","Female","Right-handed","3","no","right","d","602.903365163","472.794902691","11","green","0"
"96","80","19","564.258159862","1","1","2","142","0","right","0","in","Female","Right-handed","3","no","right","d","551.406221286","728.286739381","11","green","1"
"96","80","19","560.556467961","1","1","2","143","2","left","2","out","Female","Right-handed","3","no","left","d","511.006444118","425.02189679","11","green","3"
"96","81","19","563.355465373","1","1","2","144","2","left","3","out","Female","Right-handed","3","no","left","s","751.589862468","520.66893369","11","red","2"
"96","82","19","567.651945072","1","1","2","145","2","left","2","out","Female","Right-handed","3","no","left","d","830.073215937","537.240577967","11","red","0"
"96","82","19","571.120752554","1","1","2","146","2","right","0","out","Female","Right-handed","3","no","right","d","807.787399572","528.707324511","11","red","2"
"96","83","19","570.283429393","1","1","2","147","0","left","3","in","Female","Right-handed","3","no","left","d","667.52896133","424.473154104","11","green","2"
"93","80","19","569.472111108","0","0","2","148","3","right","3","in","Female","Right-handed","3","no","left","d","463.111566669","627.153558473","11","red","1"
"93","81","19","570.917881387","1","1","2","149","0","left","0","out","Female","Right-handed","3","no","left","d","774.688369638","456.7851504","11","green","2"
"93","81","19","569.125372693","1","1","2","150","3","left","3","out","Female","Right-handed","3","no","left","s","631.330224755","392.199964272","11","red","0"
"94","82","19","570.679315412","1","1","2","151","1","left","0","out","Female","Right-handed","3","no","left","s","834.988167235","408.93068299","11","red","3"
"94","82","19","569.765217209","1","1","2","152","0","right","2","out","Female","Right-handed","3","no","right","s","716.70701791","360.664738744","11","green","3"
"94","83","19","570.137348345","1","1","2","153","3","left","0","out","Female","Right-handed","3","no","left","s","749.144734331","417.179141877","11","red","2"
"94","83","19","567.25191072","1","1","2","154","3","left","3","out","Female","Right-handed","3","no","left","s","613.821131692","312.931180739","11","red","1"
"94","84","19","567.862003191","1","1","2","155","3","right","3","in","Female","Right-handed","3","no","right","d","660.453676465","520.417172727","11","red","2"
"94","84","19","564.931952626","1","1","2","156","1","right","1","out","Female","Right-handed","3","no","right","s","626.06312882","281.116933507","11","red","3"
"95","82","19","561.616162669","1","0","2","157","2","left","3","in","Female","Right-handed","3","no","left","d","463.763579457","400.837129259","11","red","1"
"95","80","19","561.855185201","1","0","2","158","1","left","2","in","Female","Right-handed","3","no","left","d","710.398240944","432.43393199","11","green","3"
"95","80","19","562.120971655","1","1","2","159","1","right","3","in","Female","Right-handed","3","no","right","d","761.017588951","385.018843586","11","red","1"
"95","81","19","561.851273137","1","1","2","160","0","left","3","out","Female","Right-handed","3","no","left","d","652.606752261","448.441118562","11","green","2"
"95","79","19","563.597483551","1","0","2","161","2","left","0","in","Female","Right-handed","3","no","left","s","869.145876075","408.223186576","11","green","1"
"95","80","19","570.323048337","1","1","2","162","0","right","1","in","Female","Right-handed","3","no","right","d","1275.80750325","456.688294589","11","green","3"
"95","80","19","567.082032981","1","1","2","163","0","left","3","in","Female","Right-handed","3","no","left","s","522.213174507","320.259509428","11","green","0"
"95","80","19","563.271426521","1","1","2","164","3","left","0","out","Female","Right-handed","3","no","left","s","487.005766769","288.961291992","11","green","1"
"95","81","19","561.144219103","1","1","2","165","3","right","3","in","Female","Right-handed","3","no","right","s","625.601299791","296.729641119","11","red","1"
"95","79","19","561.402126415","1","0","2","166","1","right","1","in","Female","Right-handed","3","no","right","s","579.216988124","568.346366641","11","green","0"
"96","80","19","562.983399491","1","1","2","167","3","right","3","in","Female","Right-handed","3","no","right","d","623.994519628","656.937040838","11","red","0"
"96","80","19","563.602456842","1","1","2","168","1","left","3","in","Female","Right-handed","3","no","left","s","780.502283969","408.608364814","11","red","1"
"96","80","19","561.45163176","1","1","2","169","2","left","3","out","Female","Right-handed","3","no","left","s","623.186318828","280.332786302","11","red","1"
"96","79","19","560.119353274","1","0","2","170","1","left","3","out","Female","Right-handed","3","no","left","s","516.814585586","464.867158409","11","red","1"
"96","77","19","565.642950404","1","0","2","171","1","right","3","in","Female","Right-handed","3","no","right","d","1276.50249179","440.284704768","11","green","1"
"96","78","19","570.929098835","1","1","2","172","0","right","2","out","Female","Right-handed","3","no","right","d","447.920919474","1264.84130881","11","red","0"
"96","78","19","571.375387211","1","1","2","173","1","left","3","out","Female","Right-handed","3","no","left","d","783.454461893","408.388033882","11","red","2"
"96","78","19","568.529891352","1","1","2","174","2","right","3","out","Female","Right-handed","3","no","right","d","378.18184967","440.182396809","11","green","0"
"96","77","19","567.00928534","1","0","2","175","1","right","3","in","Female","Right-handed","3","no","right","d","448.783641759","511.885843562","11","red","0"
"96","77","19","567.396477933","1","1","2","176","2","right","2","out","Female","Right-handed","3","no","right","s","827.35772539","352.349571222","11","green","1"
"96","76","19","565.231124048","1","0","2","177","3","left","2","in","Female","Right-handed","3","no","left","s","546.920706844","328.029782842","11","red","0"
"96","77","19","562.942115268","1","1","2","178","3","right","2","in","Female","Right-handed","3","no","right","d","434.55674195","416.646434922","11","red","3"
"96","75","19","563.978360475","1","0","2","179","2","right","3","in","Female","Right-handed","3","no","right","s","566.214576671","688.164059631","11","green","0"
"96","76","19","562.444866678","1","1","2","180","3","right","0","out","Female","Right-handed","3","no","right","s","565.856338459","368.880164027","11","green","3"
"96","76","19","563.450480322","1","1","2","181","2","right","3","out","Female","Right-handed","3","no","right","d","781.328124074","472.280155751","11","green","2"
"96","76","19","561.753350191","1","1","2","182","0","left","3","out","Female","Right-handed","3","no","left","d","538.10265882","368.171384753","11","red","0"
"96","77","19","561.632767668","1","1","2","183","0","right","3","out","Female","Right-handed","3","no","right","s","763.836349601","343.753457704","11","red","1"
"97","76","19","563.016365171","1","0","2","184","0","left","0","in","Female","Right-handed","3","no","left","s","772.386921643","536.280679158","11","red","3"
"97","76","19","563.634885176","1","1","2","185","0","left","2","in","Female","Right-handed","3","no","left","d","714.069781723","496.081669333","11","green","1"
"97","75","19","563.576878007","1","0","2","186","2","right","0","in","Female","Right-handed","3","no","right","s","718.643171971","400.621609046","11","red","3"
"97","75","19","562.043117421","1","1","2","187","2","right","1","out","Female","Right-handed","3","no","right","s","640.192852104","272.234421849","11","red","0"
"97","76","19","565.919948361","1","1","2","188","2","left","1","in","Female","Right-handed","3","no","left","d","1082.82711206","591.769116276","11","green","2"
"95","75","19","563.94162996","0","0","2","189","2","right","3","out","Female","Right-handed","3","no","left","s","539.50289878","307.459148175","11","green","1"
"95","73","19","562.49898596","1","0","2","190","0","right","3","in","Female","Right-handed","3","no","right","s","613.087015965","304.170219917","11","green","1"
"95","74","19","564.366625627","1","1","2","191","3","left","3","out","Female","Right-handed","3","no","left","d","912.776211444","488.632431237","11","green","2"
"96","74","19","563.325943","1","1","2","192","3","right","3","in","Female","Right-handed","3","no","right","s","668.311825677","304.319031493","11","green","0"
"96","75","19","566.695749855","1","1","2","193","0","right","3","in","Female","Right-handed","3","no","right","d","1102.94778413","535.914743794","11","red","1"
"96","75","19","566.393245944","1","1","2","194","0","left","1","out","Female","Right-handed","3","no","left","d","670.399357032","416.406540397","11","green","3"
"96","75","19","564.760771206","1","1","2","195","3","right","1","out","Female","Right-handed","3","no","right","s","574.065670164","304.054762661","11","red","3"
"96","75","19","565.463347369","1","1","2","196","0","right","1","out","Female","Right-handed","3","no","right","s","456.820749721","783.707826431","11","green","0"
"96","75","19","565.224596838","1","0","2","197","1","left","0","out","Female","Right-handed","3","no","left","d","588.288721398","504.437888325","11","green","1"
"96","74","19","564.085974051","1","0","2","198","1","right","2","out","Female","Right-handed","3","no","right","s","417.968420516","528.023881692","11","green","0"
"96","74","19","562.90387502","1","1","2","199","0","left","3","out","Female","Right-handed","3","no","left","s","646.658137797","287.649569263","11","green","1"
"96","74","19","560.389213215","1","1","2","200","3","right","3","out","Female","Right-handed","3","no","right","s","404.226761901","304.147128465","11","green","0"
"96","75","19","560.503512459","1","1","2","201","2","left","0","in","Female","Right-handed","3","no","left","s","859.935914807","280.044784586","11","green","3"
"96","75","19","559.266979607","1","1","2","202","2","right","3","out","Female","Right-handed","3","no","right","s","479.39585066","431.400589538","11","red","2"
"96","75","19","560.968875386","1","1","2","203","3","left","1","in","Female","Right-handed","3","no","left","d","571.126962252","840.133070902","11","green","0"
"96","74","19","562.156056858","1","0","2","204","1","left","0","in","Female","Right-handed","3","no","left","d","728.76107628","599.746250606","11","red","3"
"96","73","19","562.95882233","1","0","2","205","0","left","3","out","Female","Right-handed","3","no","left","s","937.239038536","328.359798168","11","green","2"
"96","73","19","561.015749707","1","0","2","206","0","left","3","in","Female","Right-handed","3","no","left","s","492.003783149","288.046934658","11","green","0"
"96","72","19","561.854507963","1","0","2","207","1","right","3","out","Female","Right-handed","3","no","right","d","649.465673434","623.54231204","11","red","2"
"96","72","19","564.005203725","1","1","2","208","0","right","1","out","Female","Right-handed","3","no","right","d","923.149404576","591.986240061","11","red","2"
"96","72","19","563.671355184","1","1","2","209","0","left","3","in","Female","Right-handed","3","no","left","d","538.709130134","527.873145829","11","red","2"
"96","73","19","563.608277376","1","1","2","210","3","right","3","out","Female","Right-handed","3","no","right","s","835.35987546","280.250362648","11","red","1"
"96","73","19","564.320275866","1","1","2","211","1","left","2","out","Female","Right-handed","3","no","left","d","693.023527301","568.048743487","11","green","3"
"96","72","19","564.382531634","1","0","2","212","1","right","0","out","Female","Right-handed","3","no","right","d","612.765339218","527.703808517","11","green","2"
"96","72","19","562.881204384","1","1","2","213","1","right","3","out","Female","Right-handed","3","no","right","d","352.320386192","488.189845084","11","red","0"
"100","100","19","352.720638016","1","1","3","214","2","right","3","in","Female","Right-handed","3","no","right","s","384.65130465","320.789971381","11","red","0"
"100","100","19","449.277221533","1","1","3","215","0","left","1","in","Female","Right-handed","3","no","left","d","635.310292982","456.357317118","11","green","3"
"100","66","19","494.838900243","1","0","3","216","2","left","3","in","Female","Right-handed","3","no","left","d","746.881130659","425.043384668","11","red","2"
"100","50","19","520.392517792","1","0","3","217","1","left","3","in","Female","Right-handed","3","no","left","d","657.563396459","536.543344419","11","green","1"
"100","60","19","516.350511556","1","1","3","218","2","left","2","out","Female","Right-handed","3","no","left","s","607.197092273","393.167880946","11","green","3"
"100","50","19","604.592248264","1","0","3","219","2","left","3","in","Female","Right-handed","3","no","left","d","1466.85174037","624.750123236","11","red","1"
"100","42","19","602.904533479","1","0","3","220","1","right","0","out","Female","Right-handed","3","no","right","d","561.331055404","624.225434143","11","green","2"
"100","50","19","598.908203302","1","1","3","221","3","right","1","out","Female","Right-handed","3","no","right","s","828.936924097","312.930860026","11","green","2"
"100","55","19","585.541854271","1","1","3","222","0","left","1","out","Female","Right-handed","3","no","left","d","476.631290776","480.590833271","11","red","0"
"100","60","19","578.616979208","1","1","3","223","0","left","3","out","Female","Right-handed","3","no","left","s","520.213839669","512.372367615","11","red","1"
"100","63","19","571.871923964","1","1","3","224","2","right","3","out","Female","Right-handed","3","no","right","s","711.961083209","296.88165984","11","green","2"
"100","66","19","566.386760324","1","1","3","225","3","right","3","in","Female","Right-handed","3","no","right","d","571.541646235","440.558274326","11","red","1"
"100","69","19","555.482047494","1","1","3","226","0","right","0","in","Female","Right-handed","3","no","right","s","585.108836105","264.142150974","11","green","2"
"100","71","19","550.75385342","1","1","3","227","2","right","2","out","Female","Right-handed","3","no","right","d","561.72713794","416.847522976","11","green","1"
"100","73","19","550.965741159","1","1","3","228","2","left","3","out","Female","Right-handed","3","no","left","d","715.42512164","392.439217367","11","green","1"
"100","75","19","550.377499129","1","1","3","229","2","left","0","in","Female","Right-handed","3","no","left","d","674.01156561","409.096171727","11","green","2"
"100","70","19","544.597252166","1","0","3","230","2","left","1","in","Female","Right-handed","3","no","left","s","439.664763439","464.561838105","11","green","2"
"100","72","19","554.243583383","1","1","3","231","3","left","3","out","Female","Right-handed","3","no","left","s","1156.18704974","280.275378387","11","green","0"
"100","68","19","553.61673825","1","0","3","232","1","left","1","out","Female","Right-handed","3","no","left","d","667.867635952","416.799415785","11","red","0"
"100","70","19","552.859363119","1","1","3","233","2","left","3","in","Female","Right-handed","3","no","left","s","748.547884455","328.39058677","11","green","1"
"100","71","19","549.58816656","1","1","3","234","0","right","3","in","Female","Right-handed","3","no","right","s","464.078200484","504.250270282","11","red","0"
"100","68","19","551.209557633","1","0","3","235","1","right","3","out","Female","Right-handed","3","no","right","s","929.738806819","240.778733541","11","red","2"
"100","69","19","554.932673569","1","1","3","236","2","right","3","out","Female","Right-handed","3","no","right","d","609.332410102","664.350038182","11","red","0"
"100","70","19","555.035801906","1","1","3","237","0","left","1","out","Female","Right-handed","3","no","left","d","665.923784741","448.891722579","11","red","3"
"100","68","19","562.83497598","1","0","3","238","1","right","3","in","Female","Right-handed","3","no","right","d","883.494647433","616.535660096","11","green","2"
"100","69","19","573.155506789","1","1","3","239","0","right","2","in","Female","Right-handed","3","no","right","s","1270.17735838","392.160195663","11","red","1"
"100","70","19","575.605688237","1","1","3","240","3","right","0","in","Female","Right-handed","3","no","right","d","805.756634703","472.864177043","11","red","2"
"100","71","19","574.453797831","1","1","3","241","3","left","3","out","Female","Right-handed","3","no","left","s","790.358164448","296.347349309","11","green","1"
"100","72","19","573.779769683","1","1","3","242","2","left","2","out","Female","Right-handed","3","no","left","d","693.901323171","415.912639908","11","red","3"
"100","73","19","570.691479928","1","1","3","243","2","right","1","in","Female","Right-handed","3","no","right","d","497.682035202","464.580118838","11","green","0"
"100","74","19","574.128457806","1","1","3","244","2","right","0","in","Female","Right-handed","3","no","right","s","802.247054799","552.22853353","11","red","3"
"100","75","19","572.055611431","1","1","3","245","2","right","3","out","Female","Right-handed","3","no","right","s","511.729014121","503.865733471","11","green","2"
"100","75","19","579.353286971","1","1","3","246","0","right","2","out","Female","Right-handed","3","no","right","s","1321.43460773","304.323200782","11","green","3"
"100","76","19","576.491706349","1","1","3","247","0","right","2","out","Female","Right-handed","3","no","right","d","548.063092259","416.055999336","11","red","3"
"100","77","19","578.681307685","1","1","3","248","0","left","3","in","Female","Right-handed","3","no","left","d","794.715072336","511.540433934","11","green","0"
"100","77","19","573.046256525","1","1","3","249","0","right","2","in","Female","Right-handed","3","no","right","s","423.210179993","328.428751807","11","green","0"
"100","78","19","576.540113349","1","1","3","250","0","left","3","in","Female","Right-handed","3","no","left","d","868.794372869","535.843545154","11","red","2"
"100","76","19","576.685870494","1","0","3","251","1","right","0","in","Female","Right-handed","3","no","right","d","699.653981015","464.503788762","11","red","3"
"100","76","19","573.441090808","1","1","3","252","3","right","3","out","Female","Right-handed","3","no","right","s","588.09597192","312.18295357","11","red","1"
"100","77","19","580.725878173","1","1","3","253","0","right","3","out","Female","Right-handed","3","no","right","d","1249.88927328","479.775897464","11","green","2"
"100","78","19","577.986629126","1","1","3","254","3","left","3","in","Female","Right-handed","3","no","left","s","624.427163628","312.406170935","11","red","2"
"100","78","19","583.273397883","1","1","3","255","3","left","3","in","Female","Right-handed","3","no","left","d","687.997929468","912.063904308","11","green","1"
"100","79","19","580.073087278","1","1","3","256","2","right","3","out","Female","Right-handed","3","no","right","d","490.639463225","400.680620531","11","green","0"
"100","79","19","585.635300059","1","1","3","257","2","right","0","in","Female","Right-handed","3","no","right","d","1153.34519764","496.275701667","11","red","1"
"100","80","19","583.683038755","1","1","3","258","1","right","3","in","Female","Right-handed","3","no","right","s","691.790700368","303.776382385","11","green","0"
"100","80","19","583.414908719","1","1","3","259","1","left","1","in","Female","Right-handed","3","no","left","d","830.493993495","312.204120734","11","red","3"
"100","80","19","579.738497364","1","1","3","260","3","right","2","out","Female","Right-handed","3","no","right","s","469.096742598","352.150407451","11","green","3"
"100","81","19","581.427697271","1","1","3","261","1","left","2","out","Female","Right-handed","3","no","left","s","737.905932483","583.734253314","11","green","3"
"100","81","19","578.139174338","1","1","3","262","3","right","2","out","Female","Right-handed","3","no","right","d","360.208041149","480.372105911","11","red","3"
"100","82","19","575.947806264","1","1","3","263","0","right","0","out","Female","Right-handed","3","no","right","d","497.139065379","440.002475918","11","red","3"
"100","82","19","571.717328663","1","1","3","264","3","left","0","in","Female","Right-handed","3","no","left","s","408.738895658","311.648001611","11","red","3"
"100","82","19","568.902624533","1","1","3","265","3","right","1","out","Female","Right-handed","3","no","right","d","362.354263274","488.351164529","11","red","3"
"100","83","19","565.950737474","1","1","3","266","1","right","3","out","Female","Right-handed","3","no","right","s","488.939675828","335.965544988","11","green","0"
"100","81","19","565.518533925","1","0","3","267","3","left","3","out","Female","Right-handed","3","no","left","s","685.65799572","399.565495856","11","red","2"
"100","81","19","569.176472248","1","1","3","268","1","right","3","out","Female","Right-handed","3","no","right","d","957.214426897","576.19585656","11","red","0"
"100","80","19","569.178394818","1","0","3","269","0","left","3","in","Female","Right-handed","3","no","left","s","562.777157553","575.79111473","11","red","1"
"100","80","19","571.303946074","1","1","3","270","2","right","3","in","Female","Right-handed","3","no","right","s","612.370860256","768.298772593","11","green","1"
"100","81","19","568.977060202","1","1","3","271","3","left","1","in","Female","Right-handed","3","no","left","s","608.902652535","263.786478479","11","green","0"
"100","81","19","566.751327893","1","1","3","272","0","left","3","in","Female","Right-handed","3","no","left","d","443.611156636","431.70655127","11","red","0"
"100","81","19","567.718546423","1","1","3","273","1","right","3","out","Female","Right-handed","3","no","right","s","873.336653798","376.232225595","11","green","2"
"100","81","19","564.679386842","1","1","3","274","0","left","3","out","Female","Right-handed","3","no","left","s","460.818457254","303.841166735","11","green","0"
"100","82","19","561.758288639","1","1","3","275","2","left","3","out","Female","Right-handed","3","no","left","s","455.608769236","311.533827213","11","red","2"
"100","82","19","564.241509886","1","1","3","276","1","right","3","in","Female","Right-handed","3","no","right","d","580.284326325","856.118128169","11","green","1"
"100","82","19","562.851934166","1","1","3","277","2","left","0","out","Female","Right-handed","3","no","left","s","598.822913263","351.794414242","11","red","3"
"100","83","19","561.844758787","1","1","3","278","1","left","0","out","Female","Right-handed","3","no","left","d","603.348517032","391.422552073","11","red","3"
"100","83","19","561.090806151","1","1","3","279","1","right","1","in","Female","Right-handed","3","no","right","d","592.098169458","432.069600201","11","green","2"
"100","83","19","563.436039377","1","1","3","280","0","left","3","in","Female","Right-handed","3","no","left","d","964.810872994","471.631991539","11","green","2"
"100","83","19","563.48510674","1","1","3","281","1","right","3","out","Female","Right-handed","3","no","right","s","509.297355997","624.247884165","11","red","1"
"100","82","19","565.063292585","1","0","3","282","2","left","3","out","Female","Right-handed","3","no","left","s","824.872828641","519.887031487","11","red","0"
"100","82","19","562.191887762","1","1","3","283","3","right","2","in","Female","Right-handed","3","no","right","s","424.600477802","303.52943214","11","red","0"
"100","83","19","562.212356549","1","1","3","284","1","left","2","in","Female","Right-handed","3","no","left","s","727.152692543","400.137650708","11","green","3"
"100","83","19","561.282284513","1","1","3","285","0","right","1","out","Female","Right-handed","3","no","right","s","710.798172056","279.696167812","11","red","2"
"100","83","19","560.208290691","1","1","3","286","1","right","3","in","Female","Right-handed","3","no","right","d","550.416175305","415.345295774","11","red","1"
"100","83","19","557.502884546","1","1","3","287","1","left","2","out","Female","Right-handed","3","no","left","s","416.107634386","303.908837515","11","green","1"
"100","84","19","556.252193287","1","1","3","288","3","left","1","in","Female","Right-handed","3","no","left","s","431.675441952","495.726638266","11","red","3"
"100","84","19","557.462901802","1","1","3","289","3","left","3","out","Female","Right-handed","3","no","left","d","761.285064931","535.24701599","11","red","2"
"100","84","19","559.306080059","1","1","3","290","3","left","3","out","Female","Right-handed","3","no","left","d","910.928895328","487.846359745","11","green","0"
"100","84","19","562.525678241","1","1","3","291","0","right","0","out","Female","Right-handed","3","no","right","d","1173.42225253","447.447224007","11","red","1"
"100","84","19","563.654740288","1","1","3","292","3","left","2","in","Female","Right-handed","3","no","left","d","808.18636854","495.256791373","11","green","1"
"100","85","19","563.805302423","1","1","3","293","3","left","3","in","Female","Right-handed","3","no","left","s","847.733365575","303.666056559","11","red","0"
"100","85","19","562.262877827","1","1","3","294","0","right","0","in","Female","Right-handed","3","no","right","s","598.392193549","279.345626752","11","red","3"
"100","85","19","561.864370545","1","1","3","295","2","left","2","out","Female","Right-handed","3","no","left","d","651.02242212","408.148139357","11","green","0"
"100","85","19","560.518687246","1","1","3","296","1","left","3","out","Female","Right-handed","3","no","left","s","572.756513151","327.588800261","11","green","0"
"100","85","19","559.82516671","1","1","3","297","2","left","1","in","Female","Right-handed","3","no","left","d","653.286346505","351.239577978","11","red","3"
"100","85","19","560.018859151","1","1","3","298","3","right","0","in","Female","Right-handed","3","no","right","s","800.640595349","351.937452955","11","green","1"
"100","86","19","560.536386149","1","1","3","299","3","right","3","out","Female","Right-handed","3","no","right","s","913.552661499","295.499700613","11","green","2"
"100","86","19","561.27310928","1","1","3","300","0","right","3","in","Female","Right-handed","3","no","right","d","738.075269794","511.187327156","11","green","1"
"100","86","19","560.420679669","1","1","3","301","1","left","0","in","Female","Right-handed","3","no","left","d","612.777205659","359.7414014","11","green","1"
"100","86","19","561.99872375","1","1","3","302","3","left","3","out","Female","Right-handed","3","no","left","d","1018.3753432","383.357862656","11","green","0"
"100","86","19","561.75422407","1","1","3","303","1","left","1","in","Female","Right-handed","3","no","left","d","631.933809637","448.053695322","11","red","3"
"100","86","19","560.76327954","1","1","3","304","1","right","2","in","Female","Right-handed","3","no","right","d","479.57705441","463.579489275","11","red","0"
"100","85","19","561.893419746","1","0","3","305","0","right","3","in","Female","Right-handed","3","no","right","s","1026.30597392","303.166383208","11","green","2"
"100","86","19","562.101982616","1","1","3","306","0","right","3","out","Female","Right-handed","3","no","right","s","706.783466648","455.796066564","11","red","1"
"100","85","19","561.174957807","1","0","3","307","1","right","3","in","Female","Right-handed","3","no","right","s","670.516417862","279.406883241","11","green","2"
"100","85","19","560.331788035","1","1","3","308","2","left","1","out","Female","Right-handed","3","no","left","s","675.038173056","287.109485873","11","red","3"
"100","85","19","559.607805728","1","1","3","309","3","left","0","out","Female","Right-handed","3","no","left","d","645.802791949","335.856181307","11","green","3"
"100","0","19","483.992332356","1","0","4","310","1","left","0","out","Female","Right-handed","3","no","left","d","648.001931986","319.982732726","11","green","3"
"100","50","19","450.561683521","1","1","4","311","1","left","3","in","Female","Right-handed","3","no","left","s","433.601012432","400.661056941","11","red","1"
"100","66","19","459.9563764","1","1","4","312","0","right","3","in","Female","Right-handed","3","no","right","s","693.270156833","264.221367483","11","green","1"
"100","75","19","465.590450017","1","1","4","313","1","right","3","in","Female","Right-handed","3","no","right","d","581.012669188","383.972672549","11","green","2"
"100","80","19","477.884354804","1","1","4","314","1","left","3","in","Female","Right-handed","3","no","left","s","717.602773797","336.517174107","11","red","2"
"100","83","19","500.249168521","1","1","4","315","0","right","2","out","Female","Right-handed","3","no","right","d","552.176577763","671.969896445","11","green","3"
"100","85","19","488.323743432","1","1","4","316","1","right","0","in","Female","Right-handed","3","no","right","s","505.745762479","327.796623324","11","green","1"
"100","87","19","473.218606771","1","1","4","317","1","left","3","in","Female","Right-handed","3","no","left","s","414.372889097","320.592411186","11","green","1"
"100","88","19","480.656579765","1","1","4","318","2","left","3","in","Female","Right-handed","3","no","left","s","800.223987078","280.096740352","11","red","1"
"100","90","19","470.366772428","1","1","4","319","1","left","3","in","Female","Right-handed","3","no","left","s","387.734654849","367.782357938","11","red","1"
"100","90","19","483.454333608","1","1","4","320","0","right","3","in","Female","Right-handed","3","no","right","s","804.355111886","424.304778937","11","red","1"
"100","91","19","496.244913066","1","1","4","321","3","left","1","in","Female","Right-handed","3","no","left","d","873.895980068","399.986594129","11","red","2"
"100","92","19","494.736962341","1","1","4","322","3","left","3","in","Female","Right-handed","3","no","left","s","617.760148453","335.522958836","11","green","2"
"100","92","19","490.811137172","1","1","4","323","2","left","1","out","Female","Right-handed","3","no","left","d","479.327217733","400.223602221","11","green","3"
"100","93","19","495.017538278","1","1","4","324","3","left","3","in","Female","Right-handed","3","no","left","d","539.89096345","567.923344077","11","red","2"
"100","93","19","496.516397977","1","1","4","325","0","left","3","in","Female","Right-handed","3","no","left","d","622.555473205","415.443113728","11","green","2"
"100","94","19","487.140787617","1","1","4","326","3","left","2","out","Female","Right-handed","3","no","left","s","394.155361209","280.106682507","11","green","3"
"100","94","19","488.871924868","1","1","4","327","2","right","0","out","Female","Right-handed","3","no","right","s","484.813361742","551.789154524","11","green","2"
"100","94","19","482.43086579","1","1","4","328","0","right","3","in","Female","Right-handed","3","no","right","s","452.558773355","280.424831393","11","green","0"
"100","95","19","485.29073741","1","1","4","329","0","left","3","out","Female","Right-handed","3","no","left","d","559.103051055","520.153545323","11","green","1"
"100","95","19","486.620176183","1","1","4","330","2","left","0","out","Female","Right-handed","3","no","left","s","666.657579752","359.760323561","11","red","3"
"100","95","19","487.152887305","1","1","4","331","2","left","1","out","Female","Right-handed","3","no","left","s","612.313131627","384.366510083","11","red","3"
"100","91","19","485.213104605","1","0","4","332","1","right","2","in","Female","Right-handed","3","no","right","s","469.006301078","416.069469349","11","green","3"
"100","91","19","492.901029024","1","1","4","333","3","right","3","out","Female","Right-handed","3","no","right","d","771.781733187","567.664848107","11","green","2"
"100","92","19","488.03046917","1","1","4","334","3","left","0","out","Female","Right-handed","3","no","left","s","422.046627413","320.227437967","11","green","3"
"100","92","19","480.773794785","1","1","4","335","0","right","3","out","Female","Right-handed","3","no","right","s","342.856739673","255.857130623","11","red","0"
"100","92","19","481.281438717","1","1","4","336","2","left","2","out","Female","Right-handed","3","no","left","d","565.477253798","423.483108123","11","red","3"
"100","89","19","487.758655755","1","0","4","337","0","right","3","out","Female","Right-handed","3","no","right","s","661.169511459","664.117520095","11","red","2"
"100","89","19","487.259933093","1","1","4","338","2","right","1","out","Female","Right-handed","3","no","right","d","514.779651429","431.811745661","11","red","0"
"100","90","19","497.930562295","1","1","4","339","3","right","3","in","Female","Right-handed","3","no","right","s","1231.36447707","383.393141261","11","green","2"
"100","90","19","500.266255195","1","1","4","340","1","left","1","out","Female","Right-handed","3","no","left","s","644.788692374","495.885391994","11","red","3"
"100","90","19","501.00934398","1","1","4","341","0","left","0","in","Female","Right-handed","3","no","left","d","592.495214136","455.594978507","11","green","2"
"100","87","19","504.806646948","1","0","4","342","0","right","1","out","Female","Right-handed","3","no","right","s","356.30943443","896.331249438","11","red","3"
"100","88","19","504.876974916","1","1","4","343","0","left","1","out","Female","Right-handed","3","no","left","s","662.74967231","351.64592338","11","red","2"
"100","88","19","504.778725479","1","1","4","344","3","left","3","in","Female","Right-handed","3","no","left","d","603.468464293","399.408024985","11","red","0"
"100","88","19","504.216626429","1","1","4","345","1","right","2","out","Female","Right-handed","3","no","right","d","617.081837066","352.004482307","11","green","1"
"100","86","19","499.786629441","1","0","4","346","3","left","1","in","Female","Right-handed","3","no","left","s","384.752650465","295.860825257","11","green","3"
"100","86","19","507.077348412","1","1","4","347","2","right","2","in","Female","Right-handed","3","no","right","d","1098.27465165","455.393249022","11","red","1"
"100","87","19","507.369014215","1","1","4","348","2","right","3","in","Female","Right-handed","3","no","right","d","508.873371291","528.031258129","11","red","0"
"100","87","19","505.911884625","1","1","4","349","1","right","3","out","Female","Right-handed","3","no","right","d","450.654370041","447.513291214","11","green","0"
"100","87","19","506.211142835","1","1","4","350","2","left","3","out","Female","Right-handed","3","no","left","s","645.147892728","391.215049725","11","red","0"
"97","88","19","508.476269341","0","1","4","351","0","left","1","out","Female","Right-handed","3","no","right","s","550.828293572","651.864618669","11","green","3"
"97","88","19","506.878045386","1","1","4","352","2","left","3","in","Female","Right-handed","3","no","left","d","488.294398045","391.210880435","11","green","2"
"97","88","19","505.232291109","1","1","4","353","0","left","3","out","Female","Right-handed","3","no","left","s","420.893658413","448.036056018","11","red","0"
"97","88","19","505.506844353","1","1","4","354","0","left","2","in","Female","Right-handed","3","no","left","s","531.605943097","503.568431035","11","red","1"
"97","89","19","503.602419811","1","1","4","355","3","left","3","in","Female","Right-handed","3","no","left","s","556.379863358","279.426767547","11","red","0"
"95","89","19","502.748022609","0","1","4","356","0","right","0","in","Female","Right-handed","3","no","left","s","611.881449771","315.0100528","11","red","1"
"95","87","19","504.037883718","1","0","4","357","1","left","3","out","Female","Right-handed","3","no","left","d","617.685742666","511.636969028","11","red","0"
"95","85","19","504.265206419","1","0","4","358","0","left","0","in","Female","Right-handed","3","no","left","s","719.192556086","311.160836129","11","green","3"
"96","86","19","502.585148925","1","1","4","359","1","right","2","in","Female","Right-handed","3","no","right","d","424.752817236","415.771846198","11","red","0"
"96","84","19","501.150271224","1","0","4","360","1","right","3","in","Female","Right-handed","3","no","right","s","379.379398","479.433374267","11","red","0"
"96","84","19","499.716867597","1","1","4","361","2","left","2","out","Female","Right-handed","3","no","left","s","502.105010299","351.121555004","11","green","3"
"96","83","19","499.001694105","1","0","4","362","2","right","2","in","Female","Right-handed","3","no","right","s","539.768771185","383.856573864","11","green","0"
"96","83","19","500.896165689","1","1","4","363","2","right","3","in","Female","Right-handed","3","no","right","s","811.292810187","391.313509108","11","green","1"
"96","83","19","502.178923354","1","1","4","364","1","left","0","in","Female","Right-handed","3","no","left","d","703.03046436","439.865210068","11","green","3"
"96","83","19","502.383350486","1","1","4","365","2","right","1","out","Female","Right-handed","3","no","right","s","499.649298581","527.604386991","11","red","2"
"96","84","19","503.476388757","1","1","4","366","1","left","2","out","Female","Right-handed","3","no","left","d","762.133355058","367.23970883","11","red","3"
"96","84","19","507.473551579","1","1","4","367","2","right","3","in","Female","Right-handed","3","no","right","s","1046.81663495","423.807029872","11","green","1"
"96","84","19","509.852945125","1","1","4","368","3","right","0","in","Female","Right-handed","3","no","right","s","992.36570958","303.349831962","11","red","2"
"96","85","19","510.889113354","1","1","4","369","3","left","3","out","Female","Right-handed","3","no","left","s","649.008975839","495.037101869","11","green","1"
"96","83","19","515.909439597","1","0","4","370","3","right","3","in","Female","Right-handed","3","no","right","s","1298.63500657","335.623021793","11","green","1"
"96","83","19","514.132364007","1","1","4","371","2","right","3","in","Female","Right-handed","3","no","right","d","428.217497099","383.244008972","11","red","2"
"96","82","19","513.032696075","1","0","4","372","0","right","1","out","Female","Right-handed","3","no","right","s","441.852999178","447.853569409","11","red","0"
"96","81","19","513.993121413","1","0","4","373","2","left","0","out","Female","Right-handed","3","no","left","s","853.518415594","295.48141988","11","red","1"
"96","81","19","512.617751292","1","1","4","374","2","right","3","out","Female","Right-handed","3","no","right","d","410.051259814","439.136867202","11","red","2"
"96","81","19","510.7111996","1","1","4","375","1","left","1","out","Female","Right-handed","3","no","left","s","461.8319154","311.738763843","11","red","0"
"97","82","19","510.399644909","1","1","4","376","1","left","3","in","Female","Right-handed","3","no","left","d","580.324094935","399.349975642","11","red","0"
"97","82","19","510.75353943","1","1","4","377","3","left","3","out","Female","Right-handed","3","no","left","d","589.96798306","478.960961656","11","green","1"
"97","82","19","513.338710927","1","1","4","378","2","right","0","out","Female","Right-handed","3","no","right","d","994.682231161","383.578514302","11","red","3"
"97","82","19","513.280099902","1","1","4","379","2","right","3","out","Female","Right-handed","3","no","right","d","595.252076868","423.219801434","11","green","0"
"97","83","19","512.125575469","1","1","4","380","3","right","3","out","Female","Right-handed","3","no","right","s","415.907829189","446.709901133","11","red","0"
"97","83","19","511.17870795","1","1","4","381","1","right","3","out","Female","Right-handed","3","no","right","d","328.493215442","559.409012785","11","green","2"
"97","83","19","513.492610544","1","1","4","382","2","right","3","in","Female","Right-handed","3","no","right","s","1025.11772631","335.069468387","11","green","2"
"97","83","19","516.150465822","1","1","4","383","1","right","0","in","Female","Right-handed","3","no","right","d","860.740267035","559.607535124","11","red","2"
"97","84","19","515.104449798","1","1","4","384","0","right","3","in","Female","Right-handed","3","no","right","d","388.107325218","487.291202766","11","green","0"
"97","84","19","515.228989467","1","1","4","385","3","left","2","out","Female","Right-handed","3","no","left","s","458.077950967","591.060978429","11","green","3"
"97","84","19","515.058685629","1","1","4","386","2","left","3","in","Female","Right-handed","3","no","left","s","620.668709191","383.562478574","11","green","1"
"97","84","19","514.579455616","1","1","4","387","3","right","3","in","Female","Right-handed","3","no","right","s","636.092195185","319.265294158","11","red","0"
"96","84","19","514.77267893","0","1","4","388","0","left","2","out","Female","Right-handed","3","no","right","d","520.867135316","538.821059532","11","green","3"
"96","85","19","512.743608799","1","1","4","389","3","right","1","out","Female","Right-handed","3","no","right","s","401.423716269","303.470420653","11","green","3"
"96","85","19","512.9286075","1","1","4","390","0","left","2","in","Female","Right-handed","3","no","left","d","408.262313757","647.194693329","11","green","0"
"96","85","19","512.195694935","1","1","4","391","0","left","0","out","Female","Right-handed","3","no","left","s","554.831453252","350.828101142","11","red","3"
"96","85","19","512.180048977","1","1","4","392","3","right","3","out","Female","Right-handed","3","no","right","s","750.461267779","271.332893099","11","red","1"
"96","85","19","512.77312342","1","1","4","393","3","left","2","in","Female","Right-handed","3","no","left","d","676.938727795","447.057876477","11","green","0"
"96","85","19","512.848826889","1","1","4","394","3","right","2","out","Female","Right-handed","3","no","right","d","599.721876297","438.693960334","11","green","1"
"96","86","19","512.538825952","1","1","4","395","1","right","3","out","Female","Right-handed","3","no","right","d","525.048612315","447.328880318","11","green","2"
"96","86","19","511.945291884","1","1","4","396","2","right","3","out","Female","Right-handed","3","no","right","d","530.953930309","390.848793648","11","green","0"
"96","86","19","511.713238971","1","1","4","397","0","right","3","out","Female","Right-handed","3","no","right","s","695.471221155","287.578049907","11","red","2"
"96","86","19","510.915317929","1","1","4","398","1","left","3","in","Female","Right-handed","3","no","left","d","410.190770668","471.205761831","11","red","1"
"96","86","19","509.680602821","1","1","4","399","3","right","0","out","Female","Right-handed","3","no","right","d","384.767082622","414.814833821","11","red","3"
"96","86","19","511.628300924","1","1","4","400","3","right","0","out","Female","Right-handed","3","no","right","s","846.436716434","527.405543937","11","green","1"
"96","85","19","513.370989225","1","0","4","401","1","left","1","out","Female","Right-handed","3","no","left","s","881.042142861","462.869106428","11","green","2"
"96","86","19","515.008655449","1","1","4","402","3","right","1","in","Female","Right-handed","3","no","right","s","780.58663191","550.76126422","11","red","0"
"96","86","19","514.734244723","1","1","4","403","0","right","3","in","Female","Right-handed","3","no","right","s","651.202663728","327.225430616","11","red","1"
"96","86","19","514.962129598","1","1","4","404","0","left","3","in","Female","Right-handed","3","no","left","s","793.900777959","278.865837705","11","red","2"
"95","85","19","514.853026586","0","0","4","405","1","left","1","in","Female","Right-handed","3","no","right","d","551.482230647","457.494250388","11","green","3"
"100","100","19","550.05088137","1","1","5","406","3","left","3","out","Female","Right-handed","3","no","left","s","828.58542089","271.516341851","11","green","1"
"100","100","19","501.863351845","1","1","5","407","2","left","3","out","Female","Right-handed","3","no","left","d","547.208387841","360.143256797","11","red","1"
"100","100","19","490.822751621","1","1","5","408","0","left","3","in","Female","Right-handed","3","no","left","d","521.789831229","415.693271118","11","green","0"
"100","100","19","464.107144975","1","1","5","409","1","right","0","out","Female","Right-handed","3","no","right","s","480.461585287","287.45906479","11","green","1"
"100","100","19","456.887458359","1","1","5","410","1","left","3","in","Female","Right-handed","3","no","left","d","512.035296566","343.982127217","11","red","0"
"100","100","19","462.189084563","1","1","5","411","2","right","1","in","Female","Right-handed","3","no","right","d","513.702691789","463.691739385","11","green","3"
"100","100","19","476.271540624","1","1","5","412","1","right","0","out","Female","Right-handed","3","no","right","s","570.210680631","551.321873345","11","green","3"
"100","100","19","478.984834849","1","1","5","413","1","left","2","in","Female","Right-handed","3","no","left","d","595.99645546","399.959333388","11","red","0"
"100","88","19","490.707900159","1","0","5","414","0","right","3","in","Female","Right-handed","3","no","right","s","817.408196246","351.576649025","11","red","1"
"100","80","19","492.556454589","1","0","5","415","1","right","1","out","Female","Right-handed","3","no","right","s","603.190404732","415.196484199","11","red","2"
"100","81","19","494.163504444","1","1","5","416","2","right","3","out","Female","Right-handed","3","no","right","d","540.812055789","479.655950201","11","red","0"
"100","83","19","507.808331545","1","1","5","417","1","right","2","out","Female","Right-handed","3","no","right","s","564.42466847","751.378190831","11","red","3"
"100","76","19","515.207793088","1","0","5","418","3","right","0","out","Female","Right-handed","3","no","right","s","799.961001103","408.041662109","11","green","1"
"100","78","19","508.950514607","1","1","5","419","0","right","0","in","Female","Right-handed","3","no","right","s","527.607273424","327.604515276","11","green","1"
"100","80","19","509.303438883","1","1","5","420","3","left","3","out","Female","Right-handed","3","no","left","d","573.231170765","455.257586744","11","red","2"
"100","81","19","508.962800553","1","1","5","421","2","left","3","in","Female","Right-handed","3","no","left","s","767.778573507","239.927877701","11","red","0"
"100","82","19","503.060730385","1","1","5","422","2","left","0","out","Female","Right-handed","3","no","left","s","489.572766455","327.682448926","11","green","2"
"100","83","19","498.785177626","1","1","5","423","0","left","2","out","Female","Right-handed","3","no","left","s","541.145919693","311.05564174","11","red","1"
"100","84","19","498.465144306","1","1","5","424","1","left","3","out","Female","Right-handed","3","no","left","d","569.735702302","415.673386813","11","red","2"
"100","85","19","496.868077576","1","1","5","425","1","right","3","out","Female","Right-handed","3","no","right","d","493.559248976","439.488370408","11","red","1"
"100","85","19","490.451005216","1","1","5","426","0","right","2","in","Female","Right-handed","3","no","right","s","357.087808772","367.131307294","11","red","0"
"100","81","19","486.89597304","1","0","5","427","3","left","0","in","Female","Right-handed","3","no","left","s","560.67102475","263.809569932","11","red","2"
"100","82","19","491.632158588","1","1","5","428","1","right","2","in","Female","Right-handed","3","no","right","d","776.338125557","415.318355746","11","red","3"
"100","79","19","498.414166509","1","0","5","429","0","left","0","in","Female","Right-handed","3","no","left","s","781.784821669","527.015875694","11","green","2"
"100","80","19","496.859331688","1","1","5","430","3","right","2","out","Female","Right-handed","3","no","right","d","383.67793583","535.408656151","11","green","3"
"100","80","19","493.797959322","1","1","5","431","1","left","3","in","Female","Right-handed","3","no","left","s","435.259427648","399.267872702","11","red","1"
"100","81","19","487.689815383","1","1","5","432","3","right","1","out","Female","Right-handed","3","no","right","s","361.886019955","295.870125979","11","green","3"
"100","82","19","491.667720061","1","1","5","433","2","left","1","out","Female","Right-handed","3","no","left","s","830.626448627","367.515844104","11","red","0"
"100","82","19","500.387550421","1","1","5","434","0","right","3","out","Female","Right-handed","3","no","right","d","834.036927721","655.04867325","11","red","2"
"100","80","19","500.017206338","1","0","5","435","2","right","3","out","Female","Right-handed","3","no","right","s","426.695385591","551.859070307","11","green","2"
"100","80","19","501.686658791","1","1","5","436","0","left","2","in","Female","Right-handed","3","no","left","s","720.32083006","383.219634661","11","green","3"
"100","81","19","504.630617757","1","1","5","437","3","right","2","in","Female","Right-handed","3","no","right","d","656.872256488","534.914434948","11","green","0"
"100","81","19","505.535592367","1","1","5","438","2","left","3","out","Female","Right-handed","3","no","left","s","677.393821818","391.595737959","11","green","1"
"100","82","19","506.362855106","1","1","5","439","0","right","3","out","Female","Right-handed","3","no","right","d","652.156789673","415.168261314","11","green","1"
"100","82","19","506.317358371","1","1","5","440","2","left","2","in","Female","Right-handed","3","no","left","d","650.792790464","358.748148275","11","green","3"
"100","83","19","510.113841925","1","1","5","441","2","left","2","in","Female","Right-handed","3","no","left","d","782.547160281","503.434372331","11","green","1"
"100","83","19","509.491015609","1","1","5","442","0","left","3","out","Female","Right-handed","3","no","left","d","478.995598833","495.142937689","11","green","0"
"100","84","19","508.614786702","1","1","5","443","0","right","2","in","Female","Right-handed","3","no","right","s","624.645570273","327.743063985","11","red","3"
"100","82","19","519.464777819","1","0","5","444","0","right","3","in","Female","Right-handed","3","no","right","d","1320.32333163","543.205548875","11","red","2"
"100","82","19","516.676950915","1","1","5","445","0","right","3","out","Female","Right-handed","3","no","right","d","441.109903443","374.793499885","11","red","0"
"100","82","19","514.173993633","1","1","5","446","2","right","2","in","Female","Right-handed","3","no","right","s","492.533282959","335.578121749","11","green","3"
"100","83","19","512.816427527","1","1","5","447","1","left","3","out","Female","Right-handed","3","no","left","s","603.097076782","311.215357611","11","green","1"
"100","83","19","513.316074064","1","1","5","448","1","left","1","out","Female","Right-handed","3","no","left","s","757.808518629","310.793938623","11","green","3"
"100","84","19","515.683122688","1","1","5","449","2","left","2","out","Female","Right-handed","3","no","left","d","731.416272481","503.516154555","11","red","0"
"100","84","19","514.125272478","1","1","5","450","3","left","0","out","Female","Right-handed","3","no","left","s","428.077986246","463.08174021","11","green","3"
"100","84","19","515.518734746","1","1","5","451","3","left","3","out","Female","Right-handed","3","no","left","d","621.74566883","534.703404739","11","green","2"
"100","85","19","517.226451375","1","1","5","452","3","left","1","out","Female","Right-handed","3","no","left","d","760.274813931","431.288018712","11","green","0"
"100","85","19","518.92726297","1","1","5","453","3","right","3","out","Female","Right-handed","3","no","right","d","694.859939122","502.870876773","11","red","2"
"100","85","19","517.540788172","1","1","5","454","2","left","3","in","Female","Right-handed","3","no","left","s","446.425106565","455.554889183","11","green","2"
"100","86","19","520.03162246","1","1","5","455","2","left","3","out","Female","Right-handed","3","no","left","d","837.164536533","447.000468565","11","red","1"
"100","86","19","518.273066689","1","1","5","456","1","right","1","out","Female","Right-handed","3","no","right","d","493.899206456","366.791349814","11","green","3"
"100","86","19","518.660803872","1","1","5","457","2","right","1","in","Female","Right-handed","3","no","right","d","461.443850731","615.426949711","11","red","3"
"100","86","19","518.509165911","1","1","5","458","1","right","0","in","Female","Right-handed","3","no","right","d","542.164509274","479.083474635","11","green","3"
"100","87","19","519.196901175","1","1","5","459","1","left","3","in","Female","Right-handed","3","no","left","s","832.612954881","278.680785378","11","green","0"
"100","87","19","520.490132384","1","1","5","460","3","right","3","out","Female","Right-handed","3","no","right","s","677.329999611","503.31923579","11","red","0"
"100","87","19","519.845876932","1","1","5","461","3","right","2","out","Female","Right-handed","3","no","right","s","641.873717343","326.949936773","11","green","1"
"100","87","19","520.99983239","1","1","5","462","3","right","3","out","Female","Right-handed","3","no","right","s","756.715843976","414.526832107","11","red","0"
"100","87","19","520.623323098","1","1","5","463","0","right","0","in","Female","Right-handed","3","no","right","s","647.116438964","351.208147948","11","red","3"
"100","88","19","519.617636657","1","1","5","464","3","left","1","in","Female","Right-handed","3","no","left","s","571.868454415","350.707191737","11","green","3"
"100","88","19","520.013975673","1","1","5","465","2","right","3","in","Female","Right-handed","3","no","right","d","640.311516508","446.484438768","11","green","0"
"100","88","19","520.015674847","1","1","5","466","2","left","3","in","Female","Right-handed","3","no","left","d","585.235197659","455.000052918","11","green","1"
"100","88","19","519.268644591","1","1","5","467","3","left","3","out","Female","Right-handed","3","no","left","s","660.658613095","286.740984793","11","red","0"
"100","88","19","522.270078441","1","1","5","468","0","left","3","in","Female","Right-handed","3","no","left","s","993.442348503","423.275605775","11","green","2"
"100","87","19","523.836110668","1","0","5","469","0","right","1","in","Female","Right-handed","3","no","right","s","629.981940561","615.010341442","11","red","3"
"100","87","19","522.930472454","1","1","5","470","0","right","1","in","Female","Right-handed","3","no","right","s","515.470149968","414.469103478","11","green","3"
"100","87","19","521.609616349","1","1","5","471","3","left","2","out","Female","Right-handed","3","no","left","d","408.186945826","463.320993306","11","green","3"
"100","88","19","523.471110524","1","1","5","472","0","right","1","in","Female","Right-handed","3","no","right","s","773.83655165","518.822900434","11","green","2"
"100","88","19","526.338575973","1","1","5","473","3","left","1","in","Female","Right-handed","3","no","left","s","1014.55050084","422.367021301","11","red","2"
"100","88","19","525.935109312","1","1","5","474","1","left","3","out","Female","Right-handed","3","no","left","s","653.962733604","343.036019136","11","red","2"
"100","88","19","525.723993745","1","1","5","475","1","right","3","in","Female","Right-handed","3","no","right","d","591.668732604","430.645306646","11","green","2"
"100","88","19","525.134335716","1","1","5","476","2","right","3","out","Female","Right-handed","3","no","right","d","489.407598435","478.308948868","11","red","2"
"100","88","19","526.651445908","1","1","5","477","3","right","3","in","Female","Right-handed","3","no","right","d","693.818258091","574.914281004","11","red","2"
"100","89","19","526.799716248","1","1","5","478","3","left","3","in","Female","Right-handed","3","no","left","d","700.459616099","374.4907453","11","red","1"
"100","89","19","527.169931387","1","1","5","479","1","left","3","out","Female","Right-handed","3","no","left","d","678.299840573","430.091432527","11","red","0"
"100","89","19","525.365621597","1","1","5","480","0","right","3","in","Female","Right-handed","3","no","right","s","400.841619261","382.85177501","11","red","0"
"100","89","19","524.603067993","1","1","5","481","0","left","3","out","Female","Right-handed","3","no","left","s","608.400092749","326.423002678","11","green","1"
"100","89","19","524.93327793","1","1","5","482","0","right","3","in","Female","Right-handed","3","no","right","s","782.057749795","318.000716475","11","red","2"
"100","89","19","523.642761908","1","1","5","483","3","right","0","out","Female","Right-handed","3","no","right","s","441.813230567","406.732825811","11","red","3"
"100","89","19","522.049622238","1","1","5","484","2","right","1","out","Female","Right-handed","3","no","right","d","421.302569534","374.266886505","11","green","2"
"100","90","19","522.092545727","1","1","5","485","2","left","0","out","Female","Right-handed","3","no","left","d","652.011185242","398.955817393","11","red","1"
"100","90","19","521.715344274","1","1","5","486","0","left","3","in","Female","Right-handed","3","no","left","s","600.545150682","382.53330541","11","red","1"
"100","90","19","522.398876085","1","1","5","487","2","left","3","in","Female","Right-handed","3","no","left","d","725.276832827","430.253072687","11","red","0"
"100","90","19","521.766989009","1","1","5","488","3","left","3","in","Female","Right-handed","3","no","left","s","604.952731477","334.951766126","11","red","0"
"100","90","19","520.579931571","1","1","5","489","2","left","3","in","Female","Right-handed","3","no","left","d","389.46523085","454.643097564","11","red","2"
"100","90","19","521.027496391","1","1","5","490","3","left","3","in","Female","Right-handed","3","no","left","d","703.125075166","414.120807418","11","green","1"
"100","90","19","521.559205732","1","1","5","491","1","right","2","out","Female","Right-handed","3","no","right","s","598.778654648","534.730344765","11","green","1"
"100","90","19","520.666100712","1","1","5","492","0","left","1","in","Female","Right-handed","3","no","left","s","513.382618616","374.335519431","11","red","0"
"100","90","19","519.09160096","1","1","5","493","1","left","3","out","Female","Right-handed","3","no","left","s","429.103631548","335.116613433","11","red","1"
"100","91","19","519.362873918","1","1","5","494","3","right","3","in","Female","Right-handed","3","no","right","s","783.778383644","302.691404881","11","green","1"
"100","91","19","521.20142862","1","1","5","495","0","right","0","out","Female","Right-handed","3","no","right","s","859.329443492","510.336150597","11","red","3"
"100","91","19","519.961766801","1","1","5","496","1","right","3","in","Female","Right-handed","3","no","right","s","465.856242245","350.928164098","11","red","0"
"100","91","19","519.71134612","1","1","5","497","2","left","0","out","Female","Right-handed","3","no","left","d","523.539970822","470.306157367","11","green","3"
"100","90","19","520.04939067","1","0","5","498","1","right","0","out","Female","Right-handed","3","no","right","s","680.21835533","422.080623162","11","green","2"
"100","90","19","521.690005398","1","1","5","499","1","left","1","in","Female","Right-handed","3","no","left","s","981.844667015","366.689683286","11","green","0"
"100","90","19","521.913088604","1","1","5","500","1","right","3","in","Female","Right-handed","3","no","right","s","687.335333096","398.430486873","11","green","2"
"100","90","19","520.861151984","1","1","5","501","2","right","0","in","Female","Right-handed","3","no","right","s","515.887078955","325.967267227","11","green","3"
dis_reply=No
dis_loc=3
