"acc_1","acc_2","age","avg_rt","correct_1","correct_2","count_block_loop","count_trial_sequence","cue_position","detection","dis_position","dis_shape","gender","hand","high_loc","practice","response_keyboard_response_1","response_keyboard_response_2","response_time_keyboard_response_1","response_time_keyboard_response_2","subject_nr","tar_color","tar_position"
"100","100","25","1224.09531444","1","1","0","0","3","right","3","in","Male","Left-handed","2","yes","right","s","1032.21406427","1415.9765646","22","red","1"
"100","50","25","1039.9459817","1","0","0","1","2","right","2","out","Male","Left-handed","2","yes","right","s","549.857810285","1161.73548764","22","red","0"
"100","66","25","915.967424167","1","1","0","2","2","right","3","out","Male","Left-handed","2","yes","right","d","502.5979653","833.422652911","22","red","0"
"100","75","25","928.258208663","1","1","0","3","1","right","0","in","Male","Left-handed","2","yes","right","s","1040.14121796","890.11990634","22","red","2"
"100","60","25","939.449977342","1","0","0","4","3","left","0","in","Male","Left-handed","2","yes","left","s","998.758185073","969.675919041","22","red","2"
"100","50","25","898.674381829","1","0","0","5","2","left","2","in","Male","Left-handed","2","yes","left","s","692.358316213","697.234492312","22","red","1"
"100","42","25","850.039647453","1","0","0","6","0","left","0","in","Male","Left-handed","2","yes","left","s","666.821572813","449.640909588","22","green","1"
"100","50","25","823.164069505","1","1","0","7","1","left","2","out","Male","Left-handed","2","yes","left","d","652.587846707","617.482201022","22","green","3"
"100","55","25","792.877011255","1","1","0","8","2","right","3","in","Male","Left-handed","2","yes","right","d","515.063259751","586.097830761","22","red","2"
"100","60","25","769.194523313","1","1","0","9","2","right","1","out","Male","Left-handed","2","yes","right","s","446.557539603","665.546724078","22","red","3"
"100","63","25","789.029679614","1","1","0","10","2","left","0","out","Male","Left-handed","2","yes","left","s","1285.31403132","689.448453923","22","red","1"
"100","66","25","763.850883963","1","1","0","11","1","right","2","out","Male","Left-handed","2","yes","right","s","459.816607792","513.951655797","22","green","1"
"100","61","25","753.893814806","1","0","0","12","1","left","3","in","Male","Left-handed","2","yes","left","s","827.461813053","441.356156807","22","green","0"
"100","64","25","749.406204555","1","1","0","13","0","right","0","out","Male","Left-handed","2","yes","right","s","781.062450929","601.072091638","22","green","2"
"100","66","25","730.932886723","1","1","0","14","3","left","3","out","Male","Left-handed","2","yes","left","s","422.762287693","521.850586461","22","green","2"
"100","68","25","728.614823539","1","1","0","15","3","right","2","in","Male","Left-handed","2","yes","right","s","650.349565141","737.338186416","22","green","1"
"100","70","25","719.400805439","1","1","0","16","1","left","1","out","Male","Left-handed","2","yes","left","d","405.989447783","737.963583902","22","green","2"
"100","72","25","709.970373619","1","1","0","17","2","left","1","out","Male","Left-handed","2","yes","left","s","489.687836845","609.618228511","22","red","3"
"100","73","25","697.455373246","1","1","0","18","2","left","0","out","Male","Left-handed","2","yes","left","s","519.157849369","425.212883711","22","red","3"
"100","75","25","693.79992957","1","1","0","19","2","right","3","in","Male","Left-handed","2","yes","right","d","814.838405291","433.854594128","22","red","1"
"100","76","25","677.788227032","1","1","0","20","0","right","1","in","Male","Left-handed","2","yes","right","s","369.591955416","345.516397123","22","green","3"
"100","77","25","671.889610375","1","1","0","21","3","left","1","out","Male","Left-handed","2","yes","left","d","487.124990032","608.912331139","22","red","2"
"100","100","25","850.257872225","1","1","1","22","3","right","1","in","Male","Left-handed","2","no","right","s","602.321924467","1098.19381998","22","green","2"
"100","100","25","678.021319312","1","1","1","23","2","left","2","out","Male","Left-handed","2","no","left","d","441.759297653","569.810235145","22","green","3"
"100","66","25","622.268148839","1","0","1","24","0","right","2","in","Male","Left-handed","2","no","right","d","500.263789436","521.259826346","22","green","1"
"100","75","25","585.653638187","1","1","1","25","2","right","2","in","Male","Left-handed","2","no","right","s","413.707494212","537.912718253","22","green","0"
"100","80","25","575.539870368","1","1","1","26","3","right","0","out","Male","Left-handed","2","no","right","d","468.548118894","601.621479291","22","green","1"
"100","83","25","584.657759505","1","1","1","27","2","left","0","in","Male","Left-handed","2","no","left","d","523.292849277","737.201561104","22","green","2"
"100","85","25","555.887558383","1","1","1","28","1","right","2","in","Male","Left-handed","2","no","right","d","404.662642948","361.870060355","22","red","0"
"100","87","25","575.892165592","1","1","1","29","1","right","0","in","Male","Left-handed","2","no","right","s","734.315111156","697.533720959","22","green","2"
"100","88","25","567.796704691","1","1","1","30","2","left","2","out","Male","Left-handed","2","no","left","d","501.047620986","505.018413969","22","green","1"
"100","90","25","559.048379144","1","1","1","31","2","left","0","in","Male","Left-handed","2","no","left","s","486.831534276","473.795364174","22","red","1"
"100","90","25","554.888659272","1","1","1","32","3","right","2","out","Male","Left-handed","2","no","right","s","569.37758837","457.205332728","22","red","1"
"100","91","25","550.070231601","1","1","1","33","1","left","2","out","Male","Left-handed","2","no","left","s","553.09480353","441.040250909","22","red","0"
"100","92","25","548.770420429","1","1","1","34","3","left","2","out","Male","Left-handed","2","no","left","s","424.683059769","641.662312963","22","red","3"
"100","92","25","555.802763191","1","1","1","35","3","right","3","out","Male","Left-handed","2","no","right","d","581.237049046","713.209389156","22","red","1"
"100","93","25","550.24288407","1","1","1","36","3","right","2","out","Male","Left-handed","2","no","right","d","382.937617076","561.871535669","22","green","3"
"100","93","25","560.883738363","1","1","1","37","0","left","2","out","Male","Left-handed","2","no","left","d","511.412221269","929.580884258","22","green","3"
"100","88","25","565.925148993","1","0","1","38","0","right","3","in","Male","Left-handed","2","no","right","s","516.154979297","777.020458831","22","green","2"
"100","88","25","556.328046175","1","1","1","39","1","right","0","in","Male","Left-handed","2","no","right","s","392.709533015","393.645063537","22","red","1"
"100","89","25","568.565381879","1","1","1","40","0","left","2","out","Male","Left-handed","2","no","left","d","680.368003115","897.306845989","22","red","0"
"100","90","25","567.110209788","1","1","1","41","0","right","0","in","Male","Left-handed","2","no","right","d","380.907159881","698.016720242","22","green","3"
"100","85","25","560.133297173","1","0","1","42","2","left","2","out","Male","Left-handed","2","no","left","d","479.586224188","361.603865545","22","red","0"
"100","86","25","554.410237484","1","1","1","43","1","right","1","out","Male","Left-handed","2","no","right","d","371.39855235","497.05341566","22","red","0"
"100","86","25","549.882986524","1","1","1","44","0","left","2","out","Male","Left-handed","2","no","left","s","426.73404282","473.832888005","22","green","3"
"100","87","25","549.237617742","1","1","1","45","3","left","1","out","Male","Left-handed","2","no","left","s","579.379778879","489.408492635","22","red","0"
"100","88","25","554.99088042","1","1","1","46","1","right","1","out","Male","Left-handed","2","no","right","s","592.998049717","793.140319642","22","red","2"
"100","88","25","557.862540393","1","1","1","47","0","right","2","in","Male","Left-handed","2","no","right","d","857.564278849","401.743800612","22","green","1"
"100","88","25","554.360309891","1","1","1","48","1","right","2","out","Male","Left-handed","2","no","right","d","445.375057287","481.22957637","22","red","1"
"100","89","25","548.224864207","1","1","1","49","2","right","2","in","Male","Left-handed","2","no","right","s","388.073573675","377.062087849","22","green","3"
"100","89","25","542.083339815","1","1","1","50","2","right","1","out","Male","Left-handed","2","no","right","s","394.711446424","345.52986722","22","green","2"
"100","90","25","538.524014887","1","1","1","51","3","left","3","in","Male","Left-handed","2","no","left","d","421.343437192","449.263746792","22","green","2"
"100","90","25","537.279964962","1","1","1","52","0","left","0","out","Male","Left-handed","2","no","left","d","430.981935002","568.934999377","22","red","2"
"100","90","25","537.977087078","1","1","1","53","1","left","2","out","Male","Left-handed","2","no","left","d","429.53774787","689.637997479","22","green","3"
"96","90","25","544.134140383","0","1","1","54","0","left","2","in","Male","Left-handed","2","no","right","s","366.118273232","1116.20141906","22","green","1"
"97","88","25","538.503794331","1","0","1","55","1","right","3","in","Male","Left-handed","2","no","right","d","384.645433282","320.759315946","22","red","2"
"97","88","25","533.742787711","1","1","1","56","1","left","2","in","Male","Left-handed","2","no","left","s","470.401540486","273.335584789","22","red","1"
"97","88","25","535.123824069","1","1","1","57","1","left","2","out","Male","Left-handed","2","no","left","s","517.908337264","649.011855945","22","red","1"
"97","89","25","531.367775338","1","1","1","58","0","right","3","in","Male","Left-handed","2","no","right","s","406.601054448","385.698987549","22","red","2"
"97","86","25","536.444696808","1","0","1","59","0","right","3","in","Male","Left-handed","2","no","right","s","727.226631541","721.354950918","22","green","1"
"97","87","25","538.137162341","1","1","1","60","1","left","2","in","Male","Left-handed","2","no","left","d","539.890577871","665.011127276","22","green","1"
"97","87","25","537.708109031","1","1","1","61","2","right","3","out","Male","Left-handed","2","no","right","d","472.486519458","569.463540451","22","green","2"
"97","85","25","537.329530196","1","0","1","62","1","left","0","in","Male","Left-handed","2","no","left","d","627.223328163","417.149425426","22","red","2"
"97","85","25","536.175079194","1","1","1","63","2","left","2","out","Male","Left-handed","2","no","left","d","416.864308296","560.82086789","22","red","1"
"97","86","25","534.30577459","1","1","1","64","0","right","1","out","Male","Left-handed","2","no","right","s","422.226690891","489.363271598","22","red","2"
"97","86","25","538.135437741","1","1","1","65","3","right","2","in","Male","Left-handed","2","no","right","d","452.898107993","952.723798488","22","green","0"
"97","86","25","534.677556636","1","1","1","66","0","right","1","in","Male","Left-handed","2","no","right","s","419.44383239","345.617743587","22","red","3"
"97","86","25","534.342109939","1","1","1","67","2","right","2","out","Male","Left-handed","2","no","right","d","517.33072655","521.163290658","22","green","1"
"97","87","25","535.790358682","1","1","1","68","3","right","2","out","Male","Left-handed","2","no","right","d","387.99531883","816.824282869","22","red","0"
"97","87","25","534.430219725","1","1","1","69","1","left","3","out","Male","Left-handed","2","no","left","d","451.553984458","489.453392976","22","red","2"
"97","87","25","534.117671453","1","1","1","70","3","left","2","in","Male","Left-handed","2","no","left","s","493.131692347","545.099016454","22","red","0"
"98","88","25","532.951783136","1","1","1","71","3","left","2","out","Male","Left-handed","2","no","left","s","462.845776667","488.800734543","22","green","1"
"98","88","25","535.078413053","1","1","1","72","0","right","1","in","Male","Left-handed","2","no","right","s","537.412400241","745.40741762","22","red","2"
"98","88","25","534.876336342","1","1","1","73","1","left","2","out","Male","Left-handed","2","no","left","s","408.061598137","641.079250054","22","green","3"
"98","88","25","534.510165601","1","1","1","74","2","left","3","in","Male","Left-handed","2","no","left","d","406.498104392","624.440469692","22","green","1"
"98","87","25","533.401980952","1","0","1","75","3","right","0","out","Male","Left-handed","2","no","right","d","412.055161985","537.281227123","22","green","2"
"98","87","25","532.172365261","1","1","1","76","2","right","3","in","Male","Left-handed","2","no","right","s","362.871658494","568.674577458","22","red","2"
"98","87","25","529.122891132","1","1","1","77","1","left","1","in","Male","Left-handed","2","no","left","d","306.377098022","416.42653005","22","red","2"
"98","85","25","526.518673707","1","0","1","78","3","right","2","out","Male","Left-handed","2","no","right","d","400.18992839","361.175067374","22","red","3"
"98","86","25","524.462345336","1","1","1","79","2","left","0","out","Male","Left-handed","2","no","left","d","405.615171418","408.888084959","22","red","3"
"98","86","25","523.640413719","1","1","1","80","0","left","2","out","Male","Left-handed","2","no","left","d","375.462353142","576.474406669","22","green","1"
"98","86","25","523.238816529","1","1","1","81","2","right","1","out","Male","Left-handed","2","no","right","d","494.153495645","504.935669043","22","green","2"
"98","86","25","520.802663158","1","1","1","82","2","right","1","out","Male","Left-handed","2","no","right","d","372.53870006","376.728221803","22","red","0"
"98","87","25","522.481322314","1","1","1","83","0","right","2","out","Male","Left-handed","2","no","right","s","425.453421223","824.305640388","22","green","0"
"98","87","25","528.964980494","1","1","1","84","3","right","2","out","Male","Left-handed","2","no","right","s","404.965720198","1456.93785508","22","green","0"
"98","87","25","529.04460441","1","1","1","85","0","right","0","in","Male","Left-handed","2","no","right","s","667.603800743","400.518021546","22","red","1"
"98","87","25","527.676495867","1","1","1","86","2","right","2","out","Male","Left-handed","2","no","right","d","359.126970783","521.108127374","22","red","0"
"98","87","25","528.489032573","1","1","1","87","0","right","0","in","Male","Left-handed","2","no","right","d","601.862337498","560.745499475","22","red","2"
"97","88","25","528.636410074","0","1","1","88","1","left","2","in","Male","Left-handed","2","no","right","s","425.413010904","651.313639391","22","green","3"
"97","86","25","532.258962233","1","0","1","89","1","left","2","in","Male","Left-handed","2","no","left","s","524.913430534","1025.02648317","22","red","0"
"97","86","25","531.975218659","1","1","1","90","0","left","1","in","Male","Left-handed","2","no","left","d","472.779333766","552.581977594","22","green","0"
"97","87","25","532.934632125","1","1","1","91","3","left","2","out","Male","Left-handed","2","no","left","d","621.075831208","577.192491241","22","red","1"
"97","87","25","532.903849004","1","1","1","92","1","left","1","out","Male","Left-handed","2","no","left","s","540.761002892","520.737058192","22","green","3"
"97","87","25","533.133358476","1","1","1","93","0","right","2","out","Male","Left-handed","2","no","right","d","458.351574081","640.505487943","22","green","0"
"97","87","25","535.084702433","1","1","1","94","2","right","2","in","Male","Left-handed","2","no","right","s","518.088259298","833.074675349","22","red","3"
"97","87","25","536.626187195","1","1","1","95","3","left","1","in","Male","Left-handed","2","no","left","s","713.696237042","584.612912615","22","red","2"
"97","88","25","536.221361203","1","1","1","96","0","right","2","in","Male","Left-handed","2","no","right","s","484.309097723","528.219377884","22","green","3"
"97","88","25","535.632743502","1","1","1","97","3","right","3","in","Male","Left-handed","2","no","right","d","566.008459864","416.964371892","22","red","0"
"97","88","25","534.20391121","1","1","1","98","1","left","0","in","Male","Left-handed","2","no","left","d","450.704726769","400.520587282","22","green","3"
"97","88","25","532.292847483","1","1","1","99","0","right","2","in","Male","Left-handed","2","no","right","d","314.043188322","456.238692714","22","green","3"
"97","88","25","531.249720005","1","1","1","100","3","left","0","in","Male","Left-handed","2","no","left","s","418.845054402","480.92649912","22","red","3"
"97","88","25","529.298118401","1","1","1","101","2","left","1","in","Male","Left-handed","2","no","left","d","357.661937072","392.581246328","22","green","3"
"97","88","25","528.363724145","1","1","1","102","1","left","3","in","Male","Left-handed","2","no","left","d","531.000632793","376.223734493","22","red","0"
"97","89","25","527.150151568","1","1","1","103","0","left","3","out","Male","Left-handed","2","no","left","s","488.837616984","368.863928568","22","green","0"
"97","89","25","525.761405404","1","1","1","104","1","left","3","out","Male","Left-handed","2","no","left","s","479.407585022","344.360855001","22","green","1"
"97","89","25","524.462292936","1","1","1","105","2","left","0","in","Male","Left-handed","2","no","left","s","504.206038633","329.065877449","22","green","2"
"97","89","25","525.025313504","1","1","1","106","1","right","2","out","Male","Left-handed","2","no","right","d","343.855726271","800.782356207","22","red","0"
"97","89","25","522.988433217","1","1","1","107","1","right","2","out","Male","Left-handed","2","no","right","s","347.239607741","352.467610006","22","green","3"
"97","88","25","521.25889001","1","0","1","108","2","left","2","in","Male","Left-handed","2","no","left","d","376.070752653","368.965595757","22","green","0"
"97","88","25","519.938940211","1","1","1","109","3","left","2","out","Male","Left-handed","2","no","left","d","425.644889037","384.561726241","22","green","3"
"97","88","25","525.891569522","1","1","1","110","3","right","2","out","Male","Left-handed","2","no","right","d","515.192187857","1584.25370997","22","red","1"
"97","88","25","525.306766375","1","1","1","111","3","right","1","out","Male","Left-handed","2","no","right","s","505.689673912","440.828898631","22","green","3"
"97","89","25","524.736375573","1","1","1","112","2","left","2","in","Male","Left-handed","2","no","left","s","378.303582052","568.498824723","22","green","3"
"97","89","25","524.6160286","1","1","1","113","2","left","3","in","Male","Left-handed","2","no","left","d","523.165845458","504.163062637","22","red","0"
"97","89","25","523.589162149","1","1","1","114","3","right","0","in","Male","Left-handed","2","no","right","s","441.620427329","416.614470043","22","red","2"
"97","89","25","524.277500594","1","1","1","115","3","left","3","out","Male","Left-handed","2","no","left","d","440.336277825","736.249674053","22","red","2"
"97","89","25","525.822393897","1","1","1","116","0","left","2","in","Male","Left-handed","2","no","left","s","413.973368326","928.111360525","22","red","0"
"97","88","25","524.939007707","1","0","1","117","2","left","2","in","Male","Left-handed","2","no","left","s","433.624960977","448.409678327","22","red","1"
"100","100","25","447.713562811","1","1","2","118","3","right","2","out","Male","Left-handed","2","no","right","s","526.326828869","369.100296753","22","green","1"
"100","100","25","422.971074237","1","1","2","119","0","right","1","out","Male","Left-handed","2","no","right","s","379.753542074","416.703629249","22","red","0"
"100","100","25","419.496216132","1","1","2","120","2","left","3","out","Male","Left-handed","2","no","left","d","383.539602277","441.55339757","22","green","2"
"100","100","25","439.646817191","1","1","2","121","2","left","2","in","Male","Left-handed","2","no","left","d","503.193536133","497.003704601","22","green","0"
"100","100","25","460.857846512","1","1","2","122","3","right","2","in","Male","Left-handed","2","no","right","d","610.708023742","480.695903854","22","red","3"
"100","100","25","467.835433015","1","1","2","123","1","left","2","in","Male","Left-handed","2","no","left","s","484.305249149","521.141481906","22","red","0"
"100","100","25","456.841594242","1","1","2","124","1","right","1","in","Male","Left-handed","2","no","right","s","420.920732635","360.836390581","22","green","3"
"100","100","25","490.811407542","1","1","2","125","2","left","1","in","Male","Left-handed","2","no","left","s","567.730387615","889.469813672","22","red","2"
"100","100","25","489.020300762","1","1","2","126","1","right","2","out","Male","Left-handed","2","no","right","d","500.177837384","449.205055658","22","green","3"
"100","100","25","494.555417758","1","1","2","127","3","left","2","out","Male","Left-handed","2","no","left","d","591.985547246","496.757394198","22","red","0"
"100","100","25","511.773071273","1","1","2","128","3","left","2","out","Male","Left-handed","2","no","left","s","606.541914283","761.357298557","22","red","0"
"100","100","25","516.170894836","1","1","2","129","1","right","3","in","Male","Left-handed","2","no","right","s","552.178516024","576.915392041","22","green","2"
"100","100","25","526.165150678","1","1","2","130","0","right","0","out","Male","Left-handed","2","no","right","s","515.59949803","776.592943526","22","green","3"
"100","100","25","536.853688924","1","1","2","131","0","left","0","in","Male","Left-handed","2","no","left","d","454.273982468","897.335389775","22","green","2"
"100","100","25","534.283574038","1","1","2","132","0","right","2","in","Male","Left-handed","2","no","right","d","435.825718712","560.778212559","22","red","1"
"100","100","25","538.013593656","1","1","2","133","2","left","0","in","Male","Left-handed","2","no","left","d","715.330288425","472.597487416","22","green","1"
"100","100","25","533.109769295","1","1","2","134","2","left","2","in","Male","Left-handed","2","no","left","s","436.237198184","473.059960874","22","red","3"
"100","100","25","533.534303302","1","1","2","135","1","left","1","out","Male","Left-handed","2","no","left","s","512.816639559","568.686123268","22","green","0"
"100","100","25","530.945883064","1","1","2","136","1","left","2","out","Male","Left-handed","2","no","left","s","431.374812877","537.333824672","22","green","3"
"100","100","25","539.147445314","1","1","2","137","0","left","2","in","Male","Left-handed","2","no","left","s","852.894002805","537.060253351","22","red","3"
"100","100","25","532.381409631","1","1","2","138","2","right","1","out","Male","Left-handed","2","no","right","d","377.443419973","416.677971953","22","green","3"
"100","100","25","534.917530771","1","1","2","139","0","right","3","out","Male","Left-handed","2","no","right","s","479.181800474","697.170348954","22","green","2"
"100","100","25","530.199371001","1","1","2","140","0","right","2","out","Male","Left-handed","2","no","right","d","395.94652626","456.853185868","22","green","3"
"100","100","25","526.62805532","1","1","2","141","3","left","3","out","Male","Left-handed","2","no","left","d","400.470876193","488.50471311","22","green","2"
"100","100","25","520.612081332","1","1","2","142","3","right","1","out","Male","Left-handed","2","no","right","s","487.224732904","265.232678328","22","red","0"
"100","100","25","518.657167483","1","1","2","143","2","left","0","in","Male","Left-handed","2","no","left","s","426.763228053","512.805414473","22","green","3"
"100","100","25","511.485736678","1","1","2","144","3","right","1","out","Male","Left-handed","2","no","right","s","353.476584627","296.580486873","22","red","3"
"100","100","25","509.654298824","1","1","2","145","0","left","0","out","Male","Left-handed","2","no","left","d","383.238770039","537.172183482","22","red","1"
"100","100","25","505.657779199","1","1","2","146","3","left","2","out","Male","Left-handed","2","no","left","d","410.722904984","376.787554414","22","red","3"
"100","100","25","501.881083394","1","1","2","147","0","left","2","out","Male","Left-handed","2","no","left","s","432.390522561","352.323287545","22","green","0"
"100","100","25","498.495549183","1","1","2","148","2","right","2","out","Male","Left-handed","2","no","right","d","384.928626125","408.930419566","22","red","3"
"100","100","25","499.191197683","1","1","2","149","0","right","3","in","Male","Left-handed","2","no","right","d","472.602939612","568.909662776","22","red","2"
"100","100","25","496.405499996","1","1","2","150","1","left","2","out","Male","Left-handed","2","no","left","d","430.315485777","384.210862219","22","green","0"
"100","100","25","496.069202279","1","1","2","151","1","right","2","in","Male","Left-handed","2","no","right","s","513.010031689","456.93272358","22","red","1"
"100","100","25","497.913160833","1","1","2","152","0","left","2","out","Male","Left-handed","2","no","left","d","504.66049416","616.555009154","22","green","3"
"100","100","25","496.530371351","1","1","2","153","0","left","2","in","Male","Left-handed","2","no","left","d","392.118772928","504.146706051","22","red","0"
"100","100","25","494.526203067","1","1","2","154","0","right","1","in","Male","Left-handed","2","no","right","s","491.890839621","352.861450083","22","green","2"
"100","100","25","492.488153275","1","1","2","155","0","right","0","out","Male","Left-handed","2","no","right","s","417.639159772","416.521462175","22","green","2"
"100","100","25","490.108814476","1","1","2","156","2","right","2","in","Male","Left-handed","2","no","right","s","510.200553748","289.187326416","22","green","3"
"100","100","25","490.863660301","1","1","2","157","1","right","2","out","Male","Left-handed","2","no","right","d","519.855408085","520.749886869","22","red","3"
"100","100","25","492.511082149","1","1","2","158","0","left","2","out","Male","Left-handed","2","no","left","d","428.421012446","688.394899684","22","red","0"
"100","100","25","488.701885112","1","1","2","159","0","right","2","in","Male","Left-handed","2","no","right","s","344.058098475","320.991514775","22","green","3"
"100","100","25","489.505490784","1","1","2","160","3","right","3","in","Male","Left-handed","2","no","right","d","445.848114352","600.665743637","22","red","0"
"100","100","25","494.911181456","1","1","2","161","0","right","1","in","Male","Left-handed","2","no","right","s","374.457547878","1080.25421284","22","green","3"
"100","100","25","494.167888686","1","1","2","162","3","left","3","out","Male","Left-handed","2","no","left","d","353.790566267","569.135447324","22","red","1"
"100","100","25","492.449406006","1","1","2","163","1","right","2","in","Male","Left-handed","2","no","right","s","373.590009316","456.645361468","22","red","0"
"100","100","25","491.517699408","1","1","2","164","2","left","2","in","Male","Left-handed","2","no","left","d","417.244036857","480.074354942","22","green","0"
"100","100","25","489.586316666","1","1","2","165","3","right","2","in","Male","Left-handed","2","no","right","s","396.691871778","400.930783886","22","green","0"
"100","100","25","488.155796273","1","1","2","166","0","right","2","out","Male","Left-handed","2","no","right","s","390.610121744","448.371513048","22","red","0"
"100","100","25","488.124545184","1","1","2","167","1","right","0","out","Male","Left-handed","2","no","right","d","524.103620992","449.082862615","22","red","2"
"100","100","25","487.177222813","1","1","2","168","1","left","3","out","Male","Left-handed","2","no","left","d","374.798790377","504.823418218","22","red","0"
"100","100","25","486.353900819","1","1","2","169","3","left","2","in","Male","Left-handed","2","no","left","d","448.336875648","440.392082528","22","red","1"
"100","98","25","487.235026088","1","0","2","170","2","left","2","out","Male","Left-handed","2","no","left","d","401.001662278","665.105417953","22","green","1"
"100","98","25","489.972547129","1","1","2","171","0","right","2","out","Male","Left-handed","2","no","right","d","565.601791139","704.520533385","22","green","1"
"100","98","25","487.649248049","1","1","2","172","1","left","2","out","Male","Left-handed","2","no","left","d","356.178622489","368.203572958","22","green","1"
"100","98","25","487.387144388","1","1","2","173","2","right","1","out","Male","Left-handed","2","no","right","d","497.07009297","448.872793175","22","red","2"
"100","98","25","486.487244937","1","1","2","174","3","right","3","in","Male","Left-handed","2","no","right","d","391.607871279","480.577880109","22","green","2"
"100","98","25","486.240268226","1","1","2","175","1","right","3","in","Male","Left-handed","2","no","right","s","344.129939011","600.195252307","22","red","1"
"100","98","25","486.223868611","1","1","2","176","3","left","1","in","Male","Left-handed","2","no","left","s","601.683056884","368.862325005","22","green","2"
"100","98","25","484.878784069","1","1","2","177","3","right","2","in","Male","Left-handed","2","no","right","s","506.457469601","304.580122553","22","green","1"
"100","96","25","482.792993846","1","0","2","178","2","right","1","out","Male","Left-handed","2","no","right","s","395.098230685","320.192930318","22","green","0"
"100","96","25","481.742777334","1","1","2","179","3","left","2","in","Male","Left-handed","2","no","left","s","562.71309618","272.646043944","22","red","0"
"100","96","25","480.141018199","1","1","2","180","3","right","1","out","Male","Left-handed","2","no","right","d","345.441670157","416.222233558","22","red","2"
"100","96","25","481.279583105","1","1","2","181","1","right","2","in","Male","Left-handed","2","no","right","s","506.038613647","599.979730701","22","red","1"
"100","96","25","479.547691319","1","1","2","182","0","right","1","out","Male","Left-handed","2","no","right","s","368.746546272","368.666687835","22","red","2"
"100","96","25","479.854340891","1","1","2","183","1","left","1","out","Male","Left-handed","2","no","left","s","391.324037046","608.249089069","22","red","2"
"100","97","25","481.332117137","1","1","2","184","1","left","2","in","Male","Left-handed","2","no","left","d","581.885858846","575.844839856","22","red","3"
"100","97","25","479.402121038","1","1","2","185","3","left","2","in","Male","Left-handed","2","no","left","s","379.60889886","320.575866004","22","green","3"
"100","97","25","478.341018517","1","1","2","186","3","left","2","out","Male","Left-handed","2","no","left","d","396.080585837","416.291508358","22","green","3"
"100","97","25","478.377248378","1","1","2","187","2","right","2","out","Male","Left-handed","2","no","right","s","561.896551546","399.857665936","22","green","1"
"100","97","25","479.349932805","1","1","2","188","2","right","2","in","Male","Left-handed","2","no","right","s","446.421555767","648.454129667","22","green","0"
"100","97","25","481.671430377","1","1","2","189","2","right","2","in","Male","Left-handed","2","no","right","d","828.954107681","464.041408355","22","green","1"
"100","97","25","481.546477372","1","1","2","190","3","left","0","out","Male","Left-handed","2","no","left","d","552.540605131","392.559116881","22","green","2"
"100","97","25","481.765721437","1","1","2","191","1","left","0","in","Male","Left-handed","2","no","left","d","619.305475237","376.235601027","22","green","1"
"100","97","25","481.056019472","1","1","2","192","0","right","3","out","Male","Left-handed","2","no","right","d","489.068533003","368.007615121","22","green","1"
"100","96","25","481.405597059","1","0","2","193","3","left","2","in","Male","Left-handed","2","no","left","d","542.578824941","472.669007257","22","red","1"
"100","96","25","482.033617195","1","1","2","194","3","left","0","out","Male","Left-handed","2","no","left","s","571.27270312","488.253591931","22","red","3"
"100","96","25","481.043034394","1","1","2","195","0","left","2","in","Male","Left-handed","2","no","left","s","417.732488306","391.803829174","22","green","1"
"100","96","25","480.959806963","1","1","2","196","2","left","3","in","Male","Left-handed","2","no","left","d","532.518905442","416.41722928","22","green","2"
"100","96","25","480.691514029","1","1","2","197","2","right","3","out","Male","Left-handed","2","no","right","s","391.088951728","527.90379271","22","green","0"
"100","96","25","479.815495031","1","1","2","198","2","right","2","in","Male","Left-handed","2","no","right","d","419.603870017","399.864080275","22","red","0"
"100","96","25","482.541366171","1","1","2","199","1","right","2","in","Male","Left-handed","2","no","right","d","470.381014602","936.292842525","22","red","0"
"100","96","25","487.202902913","1","1","2","200","1","left","3","in","Male","Left-handed","2","no","left","s","923.072260368","815.82557119","22","green","2"
"100","96","25","486.463546267","1","1","2","201","2","left","3","out","Male","Left-handed","2","no","left","s","482.641050388","367.55283887","22","green","1"
"100","96","25","486.019600428","1","1","2","202","2","left","0","in","Male","Left-handed","2","no","left","d","473.209735559","424.246564391","22","red","2"
"100","96","25","486.373036243","1","1","2","203","2","right","2","out","Male","Left-handed","2","no","right","d","616.919022577","415.911138378","22","red","1"
"100","96","25","487.632466993","1","1","2","204","1","left","1","in","Male","Left-handed","2","no","left","d","391.404216207","800.482806866","22","green","2"
"100","96","25","487.847438918","1","1","2","205","1","right","0","in","Male","Left-handed","2","no","right","s","541.127902776","471.972089959","22","red","2"
"100","96","25","488.141566337","1","1","2","206","2","left","2","out","Male","Left-handed","2","no","left","d","452.504588669","575.544969761","22","red","3"
"100","96","25","489.106094247","1","1","2","207","1","right","0","in","Male","Left-handed","2","no","right","d","581.482076581","568.416079826","22","green","3"
"100","96","25","491.775076739","1","1","2","208","2","left","0","in","Male","Left-handed","2","no","left","s","472.110639559","991.856362554","22","red","2"
"100","96","25","490.012518896","1","1","2","209","3","right","0","out","Male","Left-handed","2","no","right","s","347.63280637","311.606703879","22","red","2"
"100","96","25","488.406806571","1","1","2","210","3","left","0","out","Male","Left-handed","2","no","left","s","353.125399881","328.237145586","22","red","1"
"100","95","25","488.709980284","1","0","2","211","0","left","3","in","Male","Left-handed","2","no","left","s","441.879887134","591.930383962","22","red","0"
"100","95","25","489.148639563","1","1","2","212","0","right","2","in","Male","Left-handed","2","no","right","d","476.521776494","584.243447054","22","red","1"
"100","95","25","488.57059698","1","1","2","213","1","left","2","out","Male","Left-handed","2","no","left","s","347.207856772","520.105246396","22","red","1"
"100","100","25","318.686203449","1","1","3","214","1","right","1","in","Male","Left-handed","2","no","right","s","396.643122862","240.729284036","22","red","2"
"100","100","25","373.736416448","1","1","3","215","1","right","2","in","Male","Left-handed","2","no","right","d","312.292396091","545.280862803","22","red","3"
"100","100","25","374.856252117","1","1","3","216","0","right","2","out","Male","Left-handed","2","no","right","d","401.130590355","353.061256552","22","red","1"
"100","100","25","368.933684455","1","1","3","217","3","left","2","out","Male","Left-handed","2","no","left","d","357.838331227","344.49363171","22","green","1"
"100","100","25","411.089387906","1","1","3","218","1","left","2","out","Male","Left-handed","2","no","left","s","471.198842104","688.225561316","22","red","0"
"100","100","25","412.296848716","1","1","3","219","2","left","2","out","Male","Left-handed","2","no","left","d","379.879904445","456.78840109","22","red","0"
"100","100","25","434.746003175","1","1","3","220","0","left","2","in","Male","Left-handed","2","no","left","d","482.418473024","656.46338684","22","red","3"
"100","100","25","429.048434473","1","1","3","221","2","right","2","out","Male","Left-handed","2","no","right","s","353.097818239","425.23308887","22","red","3"
"100","100","25","424.731292004","1","1","3","222","3","left","1","in","Male","Left-handed","2","no","left","s","427.742375992","352.645928506","22","green","2"
"100","100","25","434.798286864","1","1","3","223","1","right","0","out","Male","Left-handed","2","no","right","d","466.430106055","584.37237516","22","red","1"
"100","100","25","432.778064918","1","1","3","224","2","left","0","in","Male","Left-handed","2","no","left","d","400.156253134","424.995437788","22","red","2"
"100","100","25","446.609803069","1","1","3","225","3","left","0","out","Male","Left-handed","2","no","left","s","404.730314156","792.787531303","22","green","3"
"100","100","25","448.927450709","1","1","3","226","3","left","0","out","Male","Left-handed","2","no","left","d","409.309827373","544.168617402","22","green","2"
"100","100","25","443.827393226","1","1","3","227","0","right","0","out","Male","Left-handed","2","no","right","d","354.148486047","400.904805836","22","red","3"
"100","100","25","442.377243827","1","1","3","228","0","left","3","in","Male","Left-handed","2","no","left","s","387.626494659","456.523809844","22","red","2"
"100","93","25","442.021633862","1","0","3","229","3","left","2","out","Male","Left-handed","2","no","left","s","401.227767521","472.147201246","22","red","3"
"100","88","25","444.180925399","1","0","3","230","2","left","2","in","Male","Left-handed","2","no","left","s","388.811863435","568.647316541","22","red","1"
"100","88","25","443.779705712","1","1","3","231","2","right","0","out","Male","Left-handed","2","no","right","d","457.508410007","416.409532074","22","red","2"
"100","89","25","448.194156734","1","1","3","232","1","left","2","in","Male","Left-handed","2","no","left","d","575.13284884","480.175701407","22","red","0"
"100","85","25","449.848461377","1","0","3","233","1","left","3","in","Male","Left-handed","2","no","left","d","441.718887363","520.84161184","22","green","2"
"100","80","25","450.183111649","1","0","3","234","2","right","2","in","Male","Left-handed","2","no","right","d","457.476338313","456.275895849","22","green","1"
"100","81","25","450.060363248","1","1","3","235","2","right","1","out","Male","Left-handed","2","no","right","d","414.990681602","479.97461207","22","green","2"
"100","82","25","448.411881515","1","1","3","236","1","left","2","out","Male","Left-handed","2","no","left","s","447.61173529","376.678831468","22","red","3"
"100","83","25","454.986594845","1","1","3","237","0","left","0","in","Male","Left-handed","2","no","left","d","476.161290979","736.24871191","22","green","2"
"100","84","25","451.562060117","1","1","3","238","3","right","1","in","Male","Left-handed","2","no","right","d","361.909508501","376.836944779","22","green","3"
"100","84","25","449.442527833","1","1","3","239","0","right","1","out","Male","Left-handed","2","no","right","s","376.463630586","416.444810893","22","red","3"
"100","85","25","449.652657323","1","1","3","240","0","right","1","in","Male","Left-handed","2","no","right","s","478.02401334","432.208034763","22","red","2"
"100","85","25","450.194592542","1","1","3","241","1","left","2","in","Male","Left-handed","2","no","left","s","536.882255605","392.771431332","22","green","3"
"100","82","25","446.838647768","1","0","3","242","0","right","1","in","Male","Left-handed","2","no","right","s","345.450329478","360.294058686","22","green","0"
"100","83","25","444.846297074","1","1","3","243","2","left","2","out","Male","Left-handed","2","no","left","d","406.002276461","368.133977463","22","green","1"
"100","83","25","442.806354787","1","1","3","244","0","right","3","out","Male","Left-handed","2","no","right","d","394.565199618","368.650972698","22","red","0"
"100","84","25","443.320185553","1","1","3","245","2","left","3","in","Male","Left-handed","2","no","left","d","374.226311134","544.271567487","22","red","0"
"100","84","25","448.777856197","1","1","3","246","3","right","0","in","Male","Left-handed","2","no","right","d","806.844221806","440.002411808","22","green","2"
"100","85","25","450.051436349","1","1","3","247","3","left","3","in","Male","Left-handed","2","no","left","s","591.669641319","392.489521386","22","red","1"
"100","85","25","448.672601849","1","1","3","248","2","left","2","out","Male","Left-handed","2","no","left","s","363.259404956","440.325052739","22","green","0"
"100","86","25","448.639093194","1","1","3","249","3","left","2","in","Male","Left-handed","2","no","left","d","398.900647444","496.031933115","22","green","0"
"100","86","25","457.753723566","1","1","3","250","3","left","1","in","Male","Left-handed","2","no","left","d","835.285695997","736.475137877","22","red","2"
"100","86","25","459.330730498","1","1","3","251","0","left","2","in","Male","Left-handed","2","no","left","s","451.177783834","584.182190156","22","red","3"
"100","87","25","459.008405926","1","1","3","252","1","left","1","out","Male","Left-handed","2","no","left","d","437.702231895","455.817912472","22","green","3"
"100","87","25","457.730189572","1","1","3","253","0","left","1","out","Male","Left-handed","2","no","left","s","423.367480049","392.392023525","22","red","2"
"100","87","25","458.784056599","1","1","3","254","1","right","0","in","Male","Left-handed","2","no","right","d","617.939863703","383.937611623","22","green","2"
"100","88","25","460.93548514","1","1","3","255","2","left","2","out","Male","Left-handed","2","no","left","s","385.673330195","712.614780496","22","red","3"
"100","88","25","458.500188973","1","1","3","256","0","left","3","out","Male","Left-handed","2","no","left","s","384.204127186","328.231372696","22","red","2"
"100","88","25","459.009498811","1","1","3","257","3","right","2","out","Male","Left-handed","2","no","right","d","410.002254648","551.81738906","22","red","0"
"100","88","25","460.866384699","1","1","3","258","1","left","3","out","Male","Left-handed","2","no","left","s","508.659510175","576.479217387","22","red","1"
"100","89","25","458.80701964","1","1","3","259","1","right","2","in","Male","Left-handed","2","no","right","d","324.230432336","408.040751558","22","red","0"
"100","89","25","456.880467242","1","1","3","260","2","left","3","out","Male","Left-handed","2","no","left","s","360.76198431","375.756129593","22","red","1"
"100","89","25","455.164592592","1","1","3","261","1","right","3","out","Male","Left-handed","2","no","right","d","364.541630144","384.495337901","22","green","0"
"100","89","25","452.571680615","1","1","3","262","0","left","2","out","Male","Left-handed","2","no","left","s","360.159999138","296.063812362","22","green","1"
"100","90","25","451.895974268","1","1","3","263","1","left","2","out","Male","Left-handed","2","no","left","d","325.88629247","511.686434038","22","green","1"
"100","90","25","450.955860477","1","1","3","264","1","right","1","out","Male","Left-handed","2","no","right","d","367.455982458","440.444359352","22","green","0"
"100","90","25","450.965321376","1","1","3","265","2","left","2","in","Male","Left-handed","2","no","left","s","543.034884031","359.860770463","22","green","3"
"100","90","25","449.686817457","1","1","3","266","1","left","3","out","Male","Left-handed","2","no","left","d","366.71929626","399.689931131","22","green","2"
"100","90","25","448.781944255","1","1","3","267","0","left","2","in","Male","Left-handed","2","no","left","s","481.259403023","320.387926069","22","green","0"
"100","90","25","448.205495527","1","1","3","268","0","right","2","out","Male","Left-handed","2","no","right","s","426.092288806","408.062239556","22","green","3"
"100","91","25","448.026464875","1","1","3","269","3","left","2","out","Male","Left-handed","2","no","left","d","476.640120964","399.71943706","22","green","1"
"100","91","25","448.37233172","1","1","3","270","2","right","1","out","Male","Left-handed","2","no","right","d","487.236278714","448.245471402","22","green","3"
"100","91","25","447.73491536","1","1","3","271","0","right","2","in","Male","Left-handed","2","no","right","s","310.91395588","511.890409834","22","green","0"
"100","91","25","449.918144683","1","1","3","272","2","left","2","out","Male","Left-handed","2","no","left","s","337.628370849","815.462519939","22","red","0"
"100","91","25","452.438259103","1","1","3","273","2","right","2","out","Male","Left-handed","2","no","right","d","490.211887867","712.038131926","22","green","3"
"100","90","25","450.985372234","1","0","3","274","0","left","2","out","Male","Left-handed","2","no","left","s","359.895407892","367.728912301","22","green","3"
"98","90","25","453.750270269","0","1","3","275","0","right","2","out","Male","Left-handed","2","no","left","s","466.572504258","778.245596477","22","green","1"
"98","90","25","453.079083826","1","1","3","276","1","left","0","in","Male","Left-handed","2","no","left","s","518.935272004","303.995776805","22","green","2"
"98","90","25","453.142494092","1","1","3","277","2","right","0","out","Male","Left-handed","2","no","right","d","306.596468203","607.678213419","22","red","3"
"98","90","25","453.506403885","1","1","3","278","3","right","2","in","Male","Left-handed","2","no","right","d","385.313165403","568.280095962","22","green","3"
"98","90","25","455.133148389","1","1","3","279","0","left","0","in","Male","Left-handed","2","no","left","d","537.90886965","583.834212564","22","red","2"
"98","91","25","454.497146218","1","1","3","280","0","right","2","out","Male","Left-handed","2","no","right","s","433.537726058","391.504279803","22","red","0"
"98","91","25","456.287823696","1","1","3","281","3","right","2","in","Male","Left-handed","2","no","right","d","744.270797761","408.255631715","22","green","0"
"98","91","25","455.931971404","1","1","3","282","3","right","2","in","Male","Left-handed","2","no","right","d","471.624433092","391.843598045","22","red","1"
"98","91","25","454.33173896","1","1","3","283","3","right","2","out","Male","Left-handed","2","no","right","d","336.50265538","351.328745164","22","green","3"
"98","91","25","454.63132407","1","1","3","284","2","left","1","in","Male","Left-handed","2","no","left","s","351.121562184","600.083001482","22","green","2"
"98","91","25","453.591559778","1","1","3","285","1","right","2","in","Male","Left-handed","2","no","right","d","359.74948178","399.787108297","22","red","0"
"98","91","25","454.65051701","1","1","3","286","1","right","2","in","Male","Left-handed","2","no","right","s","438.34206165","623.448813771","22","red","1"
"98","91","25","453.37874742","1","1","3","287","2","left","1","out","Male","Left-handed","2","no","left","s","361.038762785","360.040371801","22","red","0"
"98","92","25","454.149587168","1","1","3","288","2","right","0","out","Male","Left-handed","2","no","right","d","486.708058364","535.675398802","22","green","1"
"98","90","25","452.744740023","1","0","3","289","3","right","2","in","Male","Left-handed","2","no","right","s","383.470006724","311.292401544","22","red","3"
"98","90","25","451.811613666","1","1","3","290","0","right","0","out","Male","Left-handed","2","no","right","s","337.876605539","423.911415506","22","green","1"
"98","91","25","452.102683393","1","1","3","291","0","right","2","in","Male","Left-handed","2","no","right","d","437.567851623","511.462253082","22","red","1"
"98","91","25","450.761789962","1","1","3","292","1","left","0","in","Male","Left-handed","2","no","left","s","413.104546897","279.239657772","22","green","3"
"98","91","25","449.081186857","1","1","3","293","2","right","2","in","Male","Left-handed","2","no","right","s","360.824524047","271.802559146","22","red","0"
"98","91","25","447.438482952","1","1","3","294","1","right","2","in","Male","Left-handed","2","no","right","s","384.509770171","247.534570866","22","green","1"
"98","91","25","446.484895337","1","1","3","295","3","right","2","in","Male","Left-handed","2","no","right","s","363.300456665","375.188140431","22","red","0"
"98","91","25","445.579404034","1","1","3","296","2","left","3","in","Male","Left-handed","2","no","left","s","406.78450439","335.873730015","22","red","2"
"98","91","25","444.37616425","1","1","3","297","3","left","3","in","Male","Left-handed","2","no","left","s","385.528045532","303.486478748","22","red","2"
"97","91","25","443.654489754","0","1","3","298","3","right","3","in","Male","Left-handed","2","no","left","s","404.038207635","362.029456533","22","green","0"
"97","91","25","442.526494795","1","1","3","299","3","right","1","out","Male","Left-handed","2","no","right","d","325.571990135","367.721856542","22","red","0"
"97","91","25","442.083029791","1","1","3","300","1","left","1","in","Male","Left-handed","2","no","left","s","488.480338623","319.409740216","22","green","2"
"97","92","25","441.667641937","1","1","3","301","1","right","2","in","Male","Left-handed","2","no","right","s","450.971562997","360.086234286","22","green","1"
"97","92","25","444.016431245","1","1","3","302","0","left","3","in","Male","Left-handed","2","no","left","s","517.788709956","783.631070662","22","green","1"
"97","92","25","443.536889348","1","1","3","303","3","right","3","out","Male","Left-handed","2","no","right","s","498.353280331","303.362040693","22","green","2"
"97","92","25","445.903612443","1","1","3","304","1","right","2","out","Male","Left-handed","2","no","right","d","381.992785813","935.824596207","22","green","3"
"97","92","25","444.953011593","1","1","3","305","2","right","2","in","Male","Left-handed","2","no","right","s","421.433879295","295.462789305","22","green","1"
"97","92","25","444.92956288","1","1","3","306","3","right","0","out","Male","Left-handed","2","no","right","s","382.319275377","503.225287103","22","red","1"
"97","92","25","443.661990188","1","1","3","307","3","left","2","out","Male","Left-handed","2","no","left","s","395.731966826","255.823492916","22","green","1"
"97","92","25","443.522526961","1","1","3","308","2","left","3","out","Male","Left-handed","2","no","left","s","493.387624243","367.438343004","22","red","2"
"97","92","25","443.758222708","1","1","3","309","0","right","2","in","Male","Left-handed","2","no","right","d","365.237585298","567.06105193","22","red","0"
"100","100","25","917.74836379","1","1","4","310","2","right","3","in","Male","Left-handed","2","no","right","d","443.167243793","1392.32948379","22","green","2"
"100","100","25","662.217845507","1","1","4","311","1","right","3","out","Male","Left-handed","2","no","right","d","325.604703248","487.7699512","22","red","2"
"100","100","25","563.941387532","1","1","4","312","3","right","0","out","Male","Left-handed","2","no","right","d","342.43751716","392.339426005","22","red","2"
"100","100","25","504.109182213","1","1","4","313","3","left","2","out","Male","Left-handed","2","no","left","s","337.159483083","312.065649428","22","green","3"
"100","100","25","481.337754091","1","1","4","314","1","right","2","out","Male","Left-handed","2","no","right","s","395.682576462","384.821506741","22","green","1"
"100","100","25","476.672005529","1","1","4","315","3","left","2","in","Male","Left-handed","2","no","left","d","514.311499923","392.37502552","22","red","3"
"100","100","25","472.295395257","1","1","4","316","0","right","2","in","Male","Left-handed","2","no","right","s","412.153622019","479.917845223","22","green","1"
"100","100","25","459.767878912","1","1","4","317","3","left","2","in","Male","Left-handed","2","no","left","s","399.656255875","344.494273129","22","red","1"
"100","100","25","465.991365667","1","1","4","318","3","left","1","in","Male","Left-handed","2","no","left","s","495.238159376","536.320360028","22","red","2"
"100","100","25","462.027516207","1","1","4","319","0","right","2","out","Male","Left-handed","2","no","right","d","404.945835762","447.759906383","22","red","1"
"100","100","25","459.890853708","1","1","4","320","1","left","1","out","Male","Left-handed","2","no","left","d","412.489733077","464.558724343","22","green","3"
"100","100","25","457.163599493","1","1","4","321","3","right","2","out","Male","Left-handed","2","no","right","s","446.129062154","408.198544115","22","red","0"
"100","100","25","477.288955424","1","1","4","322","2","left","0","out","Male","Left-handed","2","no","left","s","685.73968648","751.846766711","22","green","1"
"100","100","25","474.435835341","1","1","4","323","3","left","0","out","Male","Left-handed","2","no","left","s","530.269719515","344.420829002","22","red","3"
"100","100","25","469.583777127","1","1","4","324","3","left","2","in","Male","Left-handed","2","no","left","d","379.136162519","424.173761741","22","red","3"
"100","100","25","468.998815996","1","1","4","325","2","left","2","out","Male","Left-handed","2","no","left","d","440.725307155","479.72349092","22","red","1"
"100","100","25","469.956348012","1","1","4","326","1","left","3","in","Male","Left-handed","2","no","left","s","514.22105782","456.332662725","22","red","2"
"100","100","25","468.317692875","1","1","4","327","0","right","3","out","Male","Left-handed","2","no","right","s","456.871145987","424.049965077","22","red","2"
"100","100","25","465.012361182","1","1","4","328","3","right","0","in","Male","Left-handed","2","no","right","d","427.475539763","383.557241672","22","green","2"
"100","100","25","462.448376647","1","1","4","329","1","left","2","out","Male","Left-handed","2","no","left","d","411.317192949","416.148148011","22","red","1"
"100","100","25","461.705506755","1","1","4","330","1","right","0","out","Male","Left-handed","2","no","right","d","445.834644255","447.861573572","22","green","2"
"100","100","25","460.219143656","1","1","4","331","0","left","2","in","Male","Left-handed","2","no","left","d","458.460938477","399.550098664","22","green","1"
"100","100","25","459.021795223","1","1","4","332","2","right","2","out","Male","Left-handed","2","no","right","s","417.177327763","448.182931636","22","green","0"
"100","100","25","456.07442567","1","1","4","333","3","left","3","out","Male","Left-handed","2","no","left","s","456.816944876","319.752907031","22","green","1"
"100","100","25","454.089352304","1","1","4","334","1","left","2","in","Male","Left-handed","2","no","left","s","413.40858629","399.486596754","22","red","0"
"100","100","25","456.334827553","1","1","4","335","1","left","2","out","Male","Left-handed","2","no","left","d","473.032699957","551.910717594","22","red","3"
"100","100","25","453.40373563","1","1","4","336","0","right","2","in","Male","Left-handed","2","no","right","s","410.663572402","343.727118888","22","red","3"
"100","100","25","449.311940205","1","1","4","337","3","right","2","out","Male","Left-handed","2","no","right","s","333.335578355","344.331349071","22","green","3"
"100","100","25","446.059328403","1","1","4","338","0","right","2","out","Male","Left-handed","2","no","right","d","341.980816651","367.99157926","22","green","3"
"100","100","25","446.215399083","1","1","4","339","2","left","0","in","Male","Left-handed","2","no","left","s","389.775937714","511.706959893","22","red","2"
"100","100","25","442.283074519","1","1","4","340","0","right","1","out","Male","Left-handed","2","no","right","s","368.178236357","280.448438862","22","red","0"
"100","100","25","441.143281131","1","1","4","341","1","right","2","in","Male","Left-handed","2","no","right","d","379.771502223","431.847869971","22","red","0"
"100","100","25","437.867488449","1","1","4","342","2","left","2","out","Male","Left-handed","2","no","left","s","386.582241219","279.502004006","22","green","3"
"100","100","25","434.881118542","1","1","4","343","3","left","3","in","Male","Left-handed","2","no","left","s","376.289481442","296.372341778","22","red","2"
"100","100","25","432.982409746","1","1","4","344","3","left","3","out","Male","Left-handed","2","no","left","d","320.982534729","415.870086639","22","red","2"
"100","100","25","436.453628488","1","1","4","345","1","left","2","in","Male","Left-handed","2","no","left","d","412.527256907","703.365311987","22","red","0"
"100","100","25","436.769028764","1","1","4","346","2","right","2","in","Male","Left-handed","2","no","right","d","512.099837797","384.147039615","22","red","1"
"100","100","25","437.165512569","1","1","4","347","2","left","2","out","Male","Left-handed","2","no","left","d","431.711244688","471.959582006","22","red","3"
"97","100","25","439.70917808","0","1","4","348","0","right","3","in","Male","Left-handed","2","no","left","d","414.39446932","658.342465729","22","green","0"
"97","100","25","439.241242913","1","1","4","349","2","right","2","in","Male","Left-handed","2","no","right","s","409.95831645","432.025226299","22","green","0"
"97","100","25","439.967962127","1","1","4","350","2","right","1","in","Male","Left-handed","2","no","right","d","538.588788972","399.484672467","22","red","2"
"97","100","25","444.91795205","1","1","4","351","0","left","2","in","Male","Left-handed","2","no","left","d","544.416210702","751.318867086","22","green","3"
"97","100","25","444.232705566","1","1","4","352","1","right","3","out","Male","Left-handed","2","no","right","s","502.860311535","328.044394875","22","red","1"
"97","100","25","442.037067441","1","1","4","353","0","right","1","in","Male","Left-handed","2","no","right","s","335.718823859","359.530432324","22","green","3"
"97","100","25","441.041986337","1","1","4","354","0","left","1","in","Male","Left-handed","2","no","left","s","499.233326816","295.28350872","22","red","2"
"97","97","25","439.595126034","1","0","4","355","2","right","0","in","Male","Left-handed","2","no","right","s","436.956886377","312.01593834","22","red","2"
"97","97","25","437.965414039","1","1","4","356","2","right","1","out","Male","Left-handed","2","no","right","d","334.461293852","391.536030744","22","red","3"
"97","97","25","436.281290054","1","1","4","357","1","left","0","in","Male","Left-handed","2","no","left","d","386.169478879","328.085446614","22","green","2"
"97","97","25","436.434815292","1","1","4","358","2","right","3","out","Male","Left-handed","2","no","right","d","471.787677874","415.820375579","22","green","1"
"98","98","25","436.834135286","1","1","4","359","3","right","2","out","Male","Left-handed","2","no","right","d","409.52823541","503.27339457","22","green","0"
"98","98","25","437.277452116","1","1","4","360","2","right","1","in","Male","Left-handed","2","no","right","d","462.948085245","455.938501953","22","green","2"
"98","98","25","440.034708574","1","1","4","361","1","left","1","in","Male","Left-handed","2","no","left","d","729.635855095","431.673720828","22","green","2"
"96","98","25","441.236826012","0","1","4","362","1","left","2","in","Male","Left-handed","2","no","right","d","373.267368326","634.226497175","22","green","1"
"96","98","25","441.228921388","1","1","4","363","2","left","2","out","Male","Left-handed","2","no","left","s","385.717909812","495.902042865","22","red","3"
"96","98","25","439.834169661","1","1","4","364","1","right","1","out","Male","Left-handed","2","no","right","s","369.537112856","359.498039936","22","red","0"
"96","98","25","438.234111846","1","1","4","365","2","right","2","in","Male","Left-handed","2","no","right","s","373.172115477","327.289748588","22","red","3"
"96","98","25","438.068841989","1","1","4","366","3","left","3","in","Male","Left-handed","2","no","left","s","529.78800307","327.839456935","22","green","0"
"96","98","25","439.213161266","1","1","4","367","1","left","0","in","Male","Left-handed","2","no","left","s","409.485259384","599.393460667","22","red","1"
"96","98","25","438.915236669","1","1","4","368","1","left","2","out","Male","Left-handed","2","no","left","d","388.169788668","455.101431435","22","green","0"
"96","98","25","437.620815302","1","1","4","369","3","left","2","out","Male","Left-handed","2","no","left","s","378.770224779","343.729684595","22","red","0"
"96","98","25","438.664105855","1","1","4","370","1","right","3","in","Male","Left-handed","2","no","right","d","403.165858297","599.357219675","22","green","0"
"96","98","25","437.677151339","1","1","4","371","0","right","2","out","Male","Left-handed","2","no","right","s","379.857774999","375.088076806","22","red","0"
"96","98","25","437.944238073","1","1","4","372","2","left","2","in","Male","Left-handed","2","no","left","d","373.542222486","535.465008696","22","green","0"
"95","98","25","437.597214732","0","1","4","373","0","right","3","out","Male","Left-handed","2","no","left","s","413.20012047","418.269367976","22","green","1"
"95","98","25","437.961854503","1","1","4","374","0","right","3","in","Male","Left-handed","2","no","right","s","474.822940334","447.774659347","22","green","2"
"95","98","25","437.198959428","1","1","4","375","0","left","2","in","Male","Left-handed","2","no","left","d","391.602419113","383.619139989","22","red","1"
"95","98","25","435.549785113","1","1","4","376","0","right","1","in","Male","Left-handed","2","no","right","s","382.179763634","271.228797035","22","red","2"
"95","98","25","433.854870033","1","1","4","377","2","left","2","out","Male","Left-handed","2","no","left","s","376.830530411","263.760588859","22","red","1"
"95","98","25","434.470772168","1","1","4","378","0","left","0","out","Male","Left-handed","2","no","left","s","665.317090956","287.387143821","22","green","3"
"94","98","25","442.757038024","0","1","4","379","3","right","1","in","Male","Left-handed","2","no","left","d","371.013692347","1658.0050718","22","red","2"
"94","98","25","443.092830755","1","1","4","380","3","left","1","out","Male","Left-handed","2","no","left","s","501.642871095","431.553772796","22","red","0"
"94","98","25","445.44246124","1","1","4","381","3","right","1","out","Male","Left-handed","2","no","right","d","841.277966101","383.254485147","22","red","3"
"94","98","25","444.017529564","1","1","4","382","0","right","2","in","Male","Left-handed","2","no","right","s","371.855252859","310.989645019","22","red","0"
"94","98","25","443.016545972","1","1","4","383","0","right","0","in","Male","Left-handed","2","no","right","d","404.45129067","335.43819678","22","red","2"
"94","98","25","441.938424325","1","1","4","384","3","right","2","in","Male","Left-handed","2","no","right","d","349.158776226","375.156068738","22","red","0"
"94","98","25","441.252653951","1","1","4","385","2","right","2","out","Male","Left-handed","2","no","right","d","436.886649433","342.753102363","22","green","1"
"94","98","25","441.652113731","1","1","4","386","3","left","2","out","Male","Left-handed","2","no","left","s","472.578565153","471.443548886","22","green","1"
"94","98","25","441.023238528","1","1","4","387","3","left","0","in","Male","Left-handed","2","no","left","s","434.142918414","351.056777406","22","green","1"
"94","97","25","441.197436574","1","0","4","388","1","right","2","out","Male","Left-handed","2","no","right","d","398.73579907","510.833969165","22","green","3"
"95","97","25","440.268837132","1","1","4","389","0","left","2","out","Male","Left-handed","2","no","left","s","374.383462301","359.435500199","22","green","0"
"95","97","25","440.024622407","1","1","4","390","1","right","0","in","Male","Left-handed","2","no","right","d","386.112712004","454.862176819","22","green","3"
"95","97","25","439.381690115","1","1","4","391","0","right","2","in","Male","Left-handed","2","no","right","s","375.763506075","398.84484274","22","green","0"
"95","97","25","439.085853805","1","1","4","392","2","right","3","out","Male","Left-handed","2","no","right","d","430.263850401","399.390702485","22","green","2"
"95","97","25","439.221361724","1","1","4","393","2","right","1","out","Male","Left-handed","2","no","right","d","405.981750577","494.955287286","22","green","0"
"95","97","25","442.172188284","1","1","4","394","0","left","2","out","Male","Left-handed","2","no","left","d","412.635338434","967.447900359","22","green","3"
"95","97","25","443.585851758","1","1","4","395","0","left","0","out","Male","Left-handed","2","no","left","s","368.139429629","759.355064453","22","red","1"
"95","97","25","443.703240593","1","1","4","396","1","left","2","in","Male","Left-handed","2","no","left","d","500.874754682","406.722606072","22","green","3"
"95","97","25","443.802636345","1","1","4","397","3","right","2","out","Male","Left-handed","2","no","right","s","425.462721963","479.437411646","22","red","1"
"95","97","25","445.058434269","1","1","4","398","3","left","2","in","Male","Left-handed","2","no","left","d","416.017616342","695.119686658","22","green","1"
"95","97","25","445.460679727","1","1","4","399","1","left","2","out","Male","Left-handed","2","no","left","d","459.815966373","502.705084683","22","green","1"
"95","96","25","450.574457637","1","0","4","400","0","left","0","in","Male","Left-handed","2","no","left","d","1030.27469059","791.354248562","22","green","2"
"95","96","25","449.921357137","1","1","4","401","1","right","1","in","Male","Left-handed","2","no","right","s","381.937622529","399.040800606","22","green","2"
"95","96","25","450.347558748","1","1","4","402","2","right","3","in","Male","Left-handed","2","no","right","d","516.428550589","462.687663355","22","red","0"
"95","96","25","452.58521648","1","1","4","403","1","left","2","out","Male","Left-handed","2","no","left","s","538.239207817","783.135563397","22","green","3"
"95","96","25","456.329477491","1","1","4","404","2","left","2","out","Male","Left-handed","2","no","left","s","513.779751694","1102.80027337","22","red","0"
"95","96","25","456.534091151","1","1","4","405","2","left","0","in","Male","Left-handed","2","no","left","d","585.528558702","366.416219011","22","green","3"
"100","100","25","413.491972635","1","1","5","406","1","right","1","out","Male","Left-handed","2","no","right","d","403.396453592","423.587491677","22","red","0"
"100","100","25","413.331293588","1","1","5","407","1","left","1","in","Male","Left-handed","2","no","left","s","458.296410827","368.044818257","22","red","3"
"100","100","25","413.475669532","1","1","5","408","3","right","0","in","Male","Left-handed","2","no","right","d","443.800979905","383.727862936","22","green","2"
"100","100","25","408.960807468","1","1","5","409","2","left","1","in","Male","Left-handed","2","no","left","d","391.359957313","399.472485239","22","green","3"
"100","100","25","409.369673103","1","1","5","410","0","left","1","in","Male","Left-handed","2","no","left","d","374.129133997","447.881137283","22","green","2"
"100","100","25","406.008824415","1","1","5","411","1","right","2","out","Male","Left-handed","2","no","right","d","402.809221356","375.599940598","22","red","3"
"100","100","25","410.419094663","1","1","5","412","1","right","2","in","Male","Left-handed","2","no","right","d","370.251669548","503.509762755","22","red","3"
"100","100","25","423.23165653","1","1","5","413","1","right","2","out","Male","Left-handed","2","no","right","s","321.894652909","703.944526292","22","green","3"
"100","100","25","417.052943156","1","1","5","414","0","right","2","out","Male","Left-handed","2","no","right","d","327.693851548","407.552620774","22","green","3"
"100","100","25","418.818787708","1","1","5","415","3","left","2","out","Male","Left-handed","2","no","left","s","518.270105648","351.152671705","22","red","3"
"100","100","25","456.000866748","1","1","5","416","2","right","3","in","Male","Left-handed","2","no","right","s","615.787534189","1039.85578011","22","red","2"
"100","100","25","455.075172775","1","1","5","417","1","right","2","out","Male","Left-handed","2","no","right","s","458.214628103","431.570450048","22","red","0"
"100","100","25","448.389522519","1","1","5","418","3","left","3","in","Male","Left-handed","2","no","left","s","361.179557367","375.143881509","22","red","2"
"100","100","25","446.487130851","1","1","5","419","0","right","1","out","Male","Left-handed","2","no","right","s","459.797044081","383.715034259","22","red","2"
"100","100","25","444.748205881","1","1","5","420","0","left","3","in","Male","Left-handed","2","no","left","s","449.405182823","391.401329776","22","red","1"
"100","100","25","454.017238758","1","1","5","421","0","right","2","in","Male","Left-handed","2","no","right","d","419.01375138","767.091712449","22","red","1"
"100","100","25","450.52386142","1","1","5","422","2","right","2","out","Male","Left-handed","2","no","right","s","405.565460358","383.69418768","22","green","0"
"100","100","25","446.151351963","1","1","5","423","1","right","0","out","Male","Left-handed","2","no","right","s","384.278854181","359.358528192","22","red","2"
"100","100","25","446.325306991","1","1","5","424","3","right","2","out","Male","Left-handed","2","no","right","d","330.872153659","568.040841346","22","green","0"
"100","100","25","449.638488177","1","1","5","425","1","right","0","in","Male","Left-handed","2","no","right","d","457.653053192","567.524808226","22","red","1"
"100","100","25","448.76298591","1","1","5","426","0","right","0","in","Male","Left-handed","2","no","right","d","503.193215438","359.312665707","22","green","1"
"100","100","25","448.679335439","1","1","5","427","3","left","3","in","Male","Left-handed","2","no","left","d","413.873304729","479.972046334","22","red","1"
"100","100","25","452.215155809","1","1","5","428","3","left","2","out","Male","Left-handed","2","no","left","s","380.624608515","679.381799389","22","red","1"
"100","100","25","456.192442716","1","1","5","429","0","left","2","in","Male","Left-handed","2","no","left","s","520.142128807","575.197954342","22","red","0"
"100","100","25","459.194212217","1","1","5","430","3","left","3","out","Male","Left-handed","2","no","left","s","550.755816919","511.717543559","22","red","2"
"100","100","25","458.531613322","1","1","5","431","1","right","2","in","Male","Left-handed","2","no","right","d","436.444381136","447.488900798","22","green","0"
"100","100","25","463.367980589","1","1","5","432","2","left","2","out","Male","Left-handed","2","no","left","s","426.118908275","752.108150773","22","green","3"
"100","100","25","458.988116483","1","1","5","433","1","left","2","out","Male","Left-handed","2","no","left","s","369.710299856","311.753271409","22","green","1"
"100","100","25","456.881215383","1","1","5","434","2","right","2","out","Male","Left-handed","2","no","right","d","404.32653189","391.449437273","22","green","1"
"100","100","25","455.265713217","1","1","5","435","2","left","2","out","Male","Left-handed","2","no","left","d","458.017066616","358.815234184","22","red","0"
"100","100","25","452.291741419","1","1","5","436","2","left","0","in","Male","Left-handed","2","no","left","d","374.633300584","351.511874353","22","red","2"
"96","100","25","453.212119673","0","1","5","437","2","right","3","out","Male","Left-handed","2","no","left","s","321.272783331","642.21490774","22","red","1"
"96","100","25","461.112176764","1","1","5","438","0","left","2","out","Male","Left-handed","2","no","left","s","364.900191373","1062.927816","22","red","1"
"97","100","25","459.562925636","1","1","5","439","0","left","2","out","Male","Left-handed","2","no","left","s","465.369496058","351.505780738","22","green","0"
"97","100","25","459.179458335","1","1","5","440","0","left","2","out","Male","Left-handed","2","no","left","d","421.088788163","471.194352053","22","red","0"
"97","100","25","463.599010915","1","1","5","441","2","right","0","in","Male","Left-handed","2","no","right","d","557.709274814","678.857427644","22","green","3"
"97","100","25","463.697353069","1","1","5","442","2","right","1","in","Male","Left-handed","2","no","right","d","527.16261649","407.312724739","22","red","2"
"97","100","25","466.969057745","1","1","5","443","1","left","0","out","Male","Left-handed","2","no","left","s","657.065371983","518.978889478","22","red","3"
"97","100","25","464.767408094","1","1","5","444","3","right","0","in","Male","Left-handed","2","no","right","s","482.666707714","279.542735021","22","red","2"
"97","97","25","462.552926266","1","0","5","445","1","right","2","in","Male","Left-handed","2","no","right","s","393.252506328","359.123763599","22","red","0"
"97","97","25","463.642683246","1","1","5","446","0","right","3","out","Male","Left-handed","2","no","right","s","415.740196419","598.725728545","22","red","0"
"97","97","25","462.150390394","1","1","5","447","1","left","3","out","Male","Left-handed","2","no","left","d","426.418136922","375.514629966","22","green","2"
"97","97","25","462.475140076","1","1","5","448","0","left","2","in","Male","Left-handed","2","no","left","s","617.009785404","335.219468019","22","green","3"
"97","97","25","463.630165786","1","1","5","449","2","left","2","out","Male","Left-handed","2","no","left","d","434.781465272","591.811077378","22","green","3"
"97","95","25","462.824245879","1","0","5","450","3","right","2","in","Male","Left-handed","2","no","right","s","455.46768987","399.259850091","22","green","0"
"97","95","25","462.254249638","1","1","5","451","3","left","1","out","Male","Left-handed","2","no","left","d","434.155105643","439.053731912","22","green","2"
"97","95","25","461.083960625","1","1","5","452","3","left","2","in","Male","Left-handed","2","no","left","s","422.699106508","391.802225582","22","green","3"
"97","95","25","463.432581241","1","1","5","453","1","left","2","in","Male","Left-handed","2","no","left","d","468.213611399","679.421888984","22","red","3"
"97","95","25","465.788754551","1","1","5","454","3","right","2","in","Male","Left-handed","2","no","right","s","398.848691344","758.921455533","22","green","0"
"98","96","25","465.604549301","1","1","5","455","2","left","0","in","Male","Left-handed","2","no","left","s","457.691218471","455.465765582","22","green","2"
"98","96","25","464.047102661","1","1","5","456","3","right","1","in","Male","Left-handed","2","no","right","d","365.161575435","407.187965931","22","green","0"
"98","96","25","464.150220747","1","1","5","457","1","right","1","out","Male","Left-handed","2","no","right","s","523.941659078","414.876827155","22","red","2"
"98","96","25","464.043084567","1","1","5","458","2","right","2","in","Male","Left-handed","2","no","right","d","413.45124162","503.492764779","22","green","3"
"98","96","25","462.092579519","1","1","5","459","1","left","2","in","Male","Left-handed","2","no","left","s","398.200202239","319.231421774","22","red","1"
"98","96","25","461.668428712","1","1","5","460","3","right","2","in","Male","Left-handed","2","no","right","d","446.655999636","430.872570607","22","red","1"
"98","94","25","468.442534377","1","0","5","461","3","right","0","out","Male","Left-handed","2","no","right","s","522.483360401","1159.5533315","22","red","3"
"98","94","25","468.618555577","1","1","5","462","2","left","3","out","Male","Left-handed","2","no","left","s","454.001052596","502.950432914","22","red","2"
"98","94","25","467.688451699","1","1","5","463","2","right","2","in","Male","Left-handed","2","no","right","s","518.704356014","310.640705284","22","green","0"
"98","94","25","468.943970217","1","1","5","464","1","right","3","out","Male","Left-handed","2","no","right","s","660.237259784","423.290828767","22","red","1"
"98","95","25","467.283907261","1","1","5","465","1","left","3","out","Male","Left-handed","2","no","left","s","379.748089909","358.932295756","22","green","2"
"98","95","25","469.085059037","1","1","5","466","1","left","0","in","Male","Left-handed","2","no","left","d","507.687738718","646.62059251","22","green","2"
"98","95","25","468.142652846","1","1","5","467","2","right","1","out","Male","Left-handed","2","no","right","d","454.243193672","367.06855669","22","green","2"
"98","95","25","469.613241822","1","1","5","468","0","left","2","in","Male","Left-handed","2","no","left","s","546.757442295","574.822074413","22","green","3"
"96","95","25","469.038765262","0","1","5","469","0","left","2","out","Male","Left-handed","2","no","right","d","383.46327169","482.230212336","22","green","0"
"96","95","25","468.069636764","1","1","5","470","0","left","3","out","Male","Left-handed","2","no","left","d","372.944727365","439.146098303","22","green","2"
"96","95","25","467.80043602","1","1","5","471","3","right","1","out","Male","Left-handed","2","no","right","d","381.832748186","518.772027222","22","green","3"
"97","95","25","467.271329104","1","1","5","472","3","right","1","out","Male","Left-handed","2","no","right","s","441.297786397","423.402758868","22","green","2"
"97","95","25","467.677809419","1","1","5","473","2","right","1","out","Male","Left-handed","2","no","right","s","438.974514895","550.849466177","22","red","0"
"97","95","25","467.044304027","1","1","5","474","0","left","0","in","Male","Left-handed","2","no","left","d","369.532943528","478.398931126","22","red","2"
"97","95","25","469.125422618","1","1","5","475","2","right","2","in","Male","Left-handed","2","no","right","d","770.234094322","455.211116554","22","red","1"
"97","95","25","469.529825806","1","1","5","476","3","left","0","out","Male","Left-handed","2","no","left","d","428.844679147","566.831418837","22","red","1"
"97","95","25","469.508970409","1","1","5","477","0","left","2","out","Male","Left-handed","2","no","left","s","401.559067832","534.497406537","22","red","3"
"97","95","25","470.409075111","1","1","5","478","1","left","2","out","Male","Left-handed","2","no","left","s","431.277315016","639.155912242","22","green","1"
"97","95","25","470.016093215","1","1","5","479","1","right","2","out","Male","Left-handed","2","no","right","d","411.838678236","470.818151399","22","green","0"
"97","96","25","469.25458713","1","1","5","480","3","right","2","out","Male","Left-handed","2","no","right","d","387.437913276","438.368360396","22","green","1"
"97","96","25","468.362966202","1","1","5","481","2","left","0","in","Male","Left-handed","2","no","left","s","355.993248261","446.989544958","22","red","1"
"97","96","25","469.508255015","1","1","5","482","1","left","1","in","Male","Left-handed","2","no","left","d","714.48199288","398.618416773","22","green","2"
"97","96","25","472.068934049","1","1","5","483","3","left","3","in","Male","Left-handed","2","no","left","s","563.158892328","775.323546986","22","red","0"
"97","96","25","473.249871815","1","1","5","484","0","right","3","out","Male","Left-handed","2","no","right","s","547.888930683","582.837104507","22","green","2"
"97","96","25","472.652460281","1","1","5","485","0","right","1","in","Male","Left-handed","2","no","right","d","364.513727778","486.400170368","22","green","0"
"97","96","25","472.680499603","1","1","5","486","3","right","2","in","Male","Left-handed","2","no","right","s","454.910284316","494.937006442","22","green","3"
"97","96","25","472.26646678","1","1","5","487","3","left","2","out","Male","Left-handed","2","no","left","d","406.686685805","470.772930363","22","green","3"
"97","96","25","471.111906617","1","1","5","488","0","left","2","out","Male","Left-handed","2","no","left","d","362.463706901","390.412239562","22","red","1"
"97","96","25","469.574822639","1","1","5","489","2","right","2","out","Male","Left-handed","2","no","right","s","332.946869778","351.046835218","22","green","3"
"96","96","25","471.598883294","0","1","5","490","2","left","3","in","Male","Left-handed","2","no","right","d","585.595267767","697.644688917","22","green","0"
"96","96","25","470.898613997","1","1","5","491","2","left","2","in","Male","Left-handed","2","no","left","s","424.253940902","398.497506598","22","red","0"
"96","95","25","488.785955798","1","0","5","492","2","left","2","in","Male","Left-handed","2","no","left","None","1054.09816562","3000.09653572","22","green","1"
"96","95","25","489.803426053","1","1","5","493","0","left","2","in","Male","Left-handed","2","no","left","d","726.243314276","430.403362145","22","green","1"
"96","94","25","489.058520495","1","0","5","494","3","right","2","in","Male","Left-handed","2","no","right","d","408.012849192","439.000813669","22","green","0"
"96","94","25","491.010554322","1","1","5","495","0","right","0","out","Male","Left-handed","2","no","right","s","482.794994372","846.68813544","22","red","2"
"96","94","25","489.885694362","1","1","5","496","0","left","1","out","Male","Left-handed","2","no","left","s","403.194402082","374.102193775","22","green","3"
"96","94","25","489.885269332","1","1","5","497","2","right","2","in","Male","Left-handed","2","no","right","d","516.922454233","462.770728976","22","red","1"
"96","94","25","491.639639132","1","1","5","498","3","left","2","in","Male","Left-handed","2","no","left","d","539.581086312","766.50223523","22","green","1"
"96","94","25","491.033855676","1","1","5","499","1","right","3","in","Male","Left-handed","2","no","right","s","431.248129811","438.143858744","22","red","0"
"96","93","25","491.299129171","1","0","5","500","1","right","2","in","Male","Left-handed","2","no","right","d","657.608666021","374.861009419","22","red","1"
"95","93","25","490.283548005","0","1","5","501","0","left","0","out","Male","Left-handed","2","no","right","s","401.29704232","386.309632042","22","red","3"
dis_reply=No
dis_loc=2
