"acc_1","acc_2","age","avg_rt","correct_1","correct_2","count_block_loop","count_trial_sequence","cue_position","detection","dis_position","dis_shape","gender","hand","high_loc","practice","response_keyboard_response_1","response_keyboard_response_2","response_time_keyboard_response_1","response_time_keyboard_response_2","subject_nr","tar_color","tar_position"
"0","0","19","3000.08114079","0","0","0","0","1","left","1","in","Female","Right-handed","0","yes","None","None","3000.07793365","3000.08434794","8","green","2"
"50","50","19","2169.0343155","1","1","0","1","3","right","1","in","Female","Right-handed","0","yes","right","s","1114.48100199","1561.49397842","8","red","3"
"66","66","19","1819.21590411","1","1","0","2","1","right","0","out","Female","Right-handed","0","yes","right","s","1292.98658098","946.171581672","8","red","2"
"75","50","19","1682.0744911","1","0","0","3","3","left","0","out","Female","Right-handed","0","yes","left","d","1155.68032066","1385.62018347","8","red","1"
"80","60","19","1489.49999631","1","1","0","4","2","left","1","out","Female","Right-handed","0","yes","left","s","829.143464302","609.260570032","8","green","2"
"83","66","19","1362.48196114","1","1","0","5","0","right","0","in","Female","Right-handed","0","yes","right","s","788.842146517","665.941424043","8","red","3"
"85","57","19","1289.75455666","1","0","0","6","0","right","3","in","Female","Right-handed","0","yes","right","s","689.399772998","1017.3804865","8","red","2"
"87","62","19","1258.45788552","1","1","0","7","1","left","1","in","Female","Right-handed","0","yes","left","d","748.879824069","1329.88255111","8","red","3"
"88","66","19","1229.62639991","1","1","0","8","0","right","3","in","Female","Right-handed","0","yes","right","d","1156.41924711","841.529783001","8","red","1"
"90","70","19","1192.66440713","1","1","0","9","0","left","2","out","Female","Right-handed","0","yes","left","d","750.001683752","970.01126029","8","green","0"
"90","72","19","1189.51523026","1","1","0","10","0","left","1","out","Female","Right-handed","0","yes","left","d","1298.51217288","1017.53475023","8","green","2"
"91","66","19","1169.16465926","1","0","0","11","0","left","0","in","Female","Right-handed","0","yes","left","s","921.262319851","969.354436782","8","green","1"
"92","61","19","1238.29858584","1","0","0","12","3","left","2","in","Female","Right-handed","0","yes","left","None","1135.73604162","3000.07536793","8","red","0"
"92","57","19","1276.83129299","1","0","0","13","0","left","1","in","Female","Right-handed","0","yes","left","None","555.297130855","3000.21584093","8","green","3"
"93","53","19","1277.452844","1","0","0","14","3","left","3","out","Female","Right-handed","0","yes","left","escape","754.666477659","1817.64263862","8","red","2"
"93","50","19","1246.13725318","1","0","0","15","1","left","0","out","Female","Right-handed","0","yes","left","s","639.355145561","913.451636398","8","red","2"
"94","47","19","1213.65391864","1","0","0","16","2","right","2","out","Female","Right-handed","0","yes","right","s","585.877268294","801.963863803","8","red","3"
"94","50","19","1190.11738974","1","1","0","17","3","right","1","in","Female","Right-handed","0","yes","right","d","674.479488216","905.513308534","8","red","2"
"94","52","19","1171.19845123","1","1","0","18","3","right","3","out","Female","Right-handed","0","yes","right","d","652.177636122","1009.13747977","8","red","2"
"95","55","19","1193.8511153","1","1","0","19","0","right","0","in","Female","Right-handed","0","yes","right","s","1278.79046977","1969.71299571","8","red","1"
"95","52","19","1186.86885371","1","0","0","20","1","left","3","in","Female","Right-handed","0","yes","left","d","1141.30108142","953.146162153","8","green","0"
"95","54","19","1168.27178737","1","1","0","21","2","right","1","out","Female","Right-handed","0","yes","right","s","649.704605814","905.762183066","8","green","2"
"100","100","19","655.918290899","1","1","1","22","2","right","0","out","Female","Right-handed","0","no","right","s","685.789167993","626.047413805","8","green","2"
"100","100","19","624.280677234","1","1","1","23","2","left","0","out","Female","Right-handed","0","no","left","s","583.747402613","601.538724524","8","green","3"
"100","100","19","692.076617436","1","1","1","24","3","right","2","in","Female","Right-handed","0","no","right","d","1030.09265124","625.244344438","8","red","1"
"100","75","19","721.346074469","1","0","1","25","1","right","2","out","Female","Right-handed","0","no","right","d","784.591715878","833.717175261","8","green","0"
"100","80","19","727.840336725","1","1","1","26","3","left","0","out","Female","Right-handed","0","no","left","d","554.354229921","953.280541571","8","green","2"
"100","66","19","736.613746619","1","0","1","27","2","left","1","in","Female","Right-handed","0","no","left","s","840.061230832","720.900361349","8","red","0"
"100","71","19","765.452590845","1","1","1","28","3","right","3","out","Female","Right-handed","0","no","right","s","979.477151811","897.494160589","8","green","1"
"100","75","19","733.471070901","1","1","1","29","2","left","0","in","Female","Right-handed","0","no","left","s","538.005482296","481.195380298","8","red","3"
"100","77","19","749.547605326","1","1","1","30","0","right","1","in","Female","Right-handed","0","no","right","d","914.535010329","841.784751111","8","green","3"
"100","80","19","735.224501826","1","1","1","31","3","right","0","out","Female","Right-handed","0","no","right","d","523.252289822","689.380850837","8","red","3"
"100","81","19","745.284059403","1","1","1","32","0","right","2","in","Female","Right-handed","0","no","right","s","1065.90588887","625.85338147","8","green","1"
"100","83","19","735.004828358","1","1","1","33","1","right","2","in","Female","Right-handed","0","no","right","d","714.41711564","529.449458105","8","red","0"
"100","84","19","747.545404615","1","1","1","34","2","left","3","out","Female","Right-handed","0","no","left","s","923.077243792","872.987395595","8","green","0"
"100","85","19","774.191525446","1","1","1","35","2","right","0","in","Female","Right-handed","0","no","right","d","1287.6899793","953.49221321","8","red","1"
"100","86","19","773.026725896","1","1","1","36","0","left","3","in","Female","Right-handed","0","no","left","s","624.24403559","889.195028796","8","red","2"
"100","87","19","779.45524099","1","1","1","37","3","right","2","out","Female","Right-handed","0","no","right","s","734.842787305","1016.92314748","8","green","0"
"100","88","19","782.864592276","1","1","1","38","1","left","0","in","Female","Right-handed","0","no","left","s","921.388681404","753.439744301","8","red","3"
"100","88","19","774.762944692","1","1","1","39","1","right","0","out","Female","Right-handed","0","no","right","d","553.021981458","721.047890067","8","red","2"
"100","89","19","783.808134143","1","1","1","40","2","right","3","in","Female","Right-handed","0","no","right","s","603.657365195","1289.58572333","8","green","2"
"100","90","19","782.348301191","1","1","1","41","1","right","0","out","Female","Right-handed","0","no","right","s","684.140053502","825.082896707","8","green","1"
"100","90","19","781.463267098","1","1","1","42","0","right","0","in","Female","Right-handed","0","no","right","s","654.796591574","872.72857891","8","red","1"
"100","90","19","774.934605563","1","1","1","43","0","left","0","out","Female","Right-handed","0","no","left","d","666.415119512","609.250307164","8","red","3"
"100","91","19","779.248094652","1","1","1","44","0","left","0","out","Female","Right-handed","0","no","left","d","499.147380227","1249.14232897","8","red","2"
"100","91","19","771.971148568","1","1","1","45","2","right","2","out","Female","Right-handed","0","no","right","s","735.552849437","473.649927823","8","green","0"
"100","92","19","759.061807156","1","1","1","46","3","right","0","out","Female","Right-handed","0","no","right","s","465.22892448","433.246302081","8","green","3"
"100","92","19","755.572157196","1","1","1","47","0","left","0","in","Female","Right-handed","0","no","left","d","679.738886998","656.922929394","8","red","3"
"100","88","19","750.065945456","1","0","1","48","1","right","0","in","Female","Right-handed","0","no","right","s","540.348943903","673.459936492","8","red","3"
"100","89","19","752.653661354","1","1","1","49","0","left","0","out","Female","Right-handed","0","no","left","d","875.970682837","769.07329836","8","red","1"
"100","89","19","745.878344568","1","1","1","50","0","right","3","out","Female","Right-handed","0","no","right","d","550.652862682","561.68608647","8","green","0"
"100","90","19","745.258314767","1","1","1","51","0","right","1","out","Female","Right-handed","0","no","right","d","477.226857796","977.328043253","8","green","0"
"100","90","19","738.506651626","1","1","1","52","1","right","3","in","Female","Right-handed","0","no","right","d","550.881852909","521.031661908","8","green","0"
"100","87","19","738.646302145","1","0","1","53","0","left","0","out","Female","Right-handed","0","no","left","s","780.415370311","705.535566127","8","red","3"
"100","87","19","733.539364282","1","1","1","54","2","left","0","out","Female","Right-handed","0","no","left","s","651.126333652","489.108371709","8","red","2"
"100","88","19","729.105802031","1","1","1","55","0","right","2","out","Female","Right-handed","0","no","right","s","596.789903391","568.806592096","8","red","3"
"100","88","19","736.5392072","1","1","1","56","2","left","0","out","Female","Right-handed","0","no","left","s","1049.26144238","929.288523517","8","green","1"
"100","88","19","751.271869484","1","1","1","57","3","left","2","in","Female","Right-handed","0","no","left","s","1828.96226055","704.867838323","8","green","3"
"100","89","19","750.044663843","1","1","1","58","2","left","3","in","Female","Right-handed","0","no","left","d","786.300804","625.429717479","8","red","0"
"100","89","19","749.071206288","1","1","1","59","3","right","0","in","Female","Right-handed","0","no","right","d","793.097387876","633.009165703","8","green","1"
"100","89","19","746.905122579","1","1","1","60","3","right","0","out","Female","Right-handed","0","no","right","s","536.557135146","792.630748128","8","red","3"
"100","90","19","748.312969025","1","1","1","61","1","right","0","out","Female","Right-handed","0","no","right","s","757.227704482","849.210256325","8","red","2"
"100","90","19","750.130106483","1","1","1","62","3","left","3","in","Female","Right-handed","0","no","left","s","900.775712411","744.855497225","8","green","0"
"100","90","19","750.172552093","1","1","1","63","1","left","1","in","Female","Right-handed","0","no","left","d","766.387313557","737.43833059","8","red","3"
"100","90","19","755.890671405","1","1","1","64","2","left","2","out","Female","Right-handed","0","no","left","s","1007.11633634","984.987028698","8","red","1"
"100","90","19","753.747991124","1","1","1","65","1","right","3","in","Female","Right-handed","0","no","right","d","834.649171899","488.576306183","8","green","0"
"100","91","19","749.523680016","1","1","1","66","2","right","2","in","Female","Right-handed","0","no","right","d","566.150754465","561.157228089","8","green","3"
"100","91","19","746.726319629","1","1","1","67","0","right","1","in","Female","Right-handed","0","no","right","d","560.806045599","680.884158848","8","green","0"
"100","91","19","744.114513428","1","1","1","68","0","left","0","in","Female","Right-handed","0","no","left","s","630.501498218","617.441358137","8","green","3"
"100","91","19","745.154747335","1","1","1","69","3","left","0","out","Female","Right-handed","0","no","left","s","779.133474041","808.958007875","8","red","2"
"100","91","19","741.674473067","1","1","1","70","1","left","2","out","Female","Right-handed","0","no","left","d","708.424563275","440.818053153","8","red","1"
"100","92","19","740.487293768","1","1","1","71","1","left","0","in","Female","Right-handed","0","no","left","s","691.203792643","673.427223603","8","green","3"
"100","92","19","743.573336837","1","1","1","72","3","left","1","out","Female","Right-handed","0","no","left","d","1018.83813438","776.912846127","8","green","0"
"100","92","19","748.598982925","1","1","1","73","1","left","3","in","Female","Right-handed","0","no","left","s","673.355704246","1336.45816262","8","green","2"
"100","92","19","747.172741926","1","1","1","74","3","right","3","in","Female","Right-handed","0","no","right","s","736.896322911","609.120097035","8","red","0"
"100","92","19","747.302950542","1","1","1","75","1","right","1","in","Female","Right-handed","0","no","right","d","635.777894874","872.630119527","8","green","0"
"100","92","19","746.82940231","1","1","1","76","0","left","1","out","Female","Right-handed","0","no","left","s","745.17845683","697.337138719","8","red","2"
"100","92","19","745.75900467","1","1","1","77","3","left","2","in","Female","Right-handed","0","no","left","s","868.918489421","504.855779454","8","green","0"
"100","91","19","743.876186743","1","0","1","78","3","right","0","in","Female","Right-handed","0","no","right","s","828.454248619","448.422517116","8","red","1"
"100","91","19","743.085495446","1","1","1","79","3","left","0","out","Female","Right-handed","0","no","left","s","842.957283701","553.074899368","8","red","1"
"100","91","19","748.306628253","1","1","1","80","2","right","3","out","Female","Right-handed","0","no","right","s","1181.65531711","920.609344918","8","red","1"
"100","90","19","748.196985261","1","0","1","81","0","left","0","out","Female","Right-handed","0","no","left","s","802.248337656","681.207759882","8","green","2"
"100","88","19","749.516487246","1","0","1","82","2","left","0","in","Female","Right-handed","0","no","left","s","1040.73620679","616.637005911","8","green","3"
"100","88","19","746.321411258","1","1","1","83","1","right","0","in","Female","Right-handed","0","no","right","s","566.435869748","536.407682141","8","green","3"
"100","88","19","743.624128777","1","1","1","84","3","right","3","out","Female","Right-handed","0","no","right","d","607.938584436","544.846645502","8","green","2"
"100","89","19","741.405079141","1","1","1","85","2","left","0","in","Female","Right-handed","0","no","left","s","730.613203115","472.596701065","8","red","1"
"100","89","19","738.08042343","1","1","1","86","3","right","1","out","Female","Right-handed","0","no","right","d","545.392501757","505.212414093","8","green","3"
"100","89","19","735.872837573","1","1","1","87","2","left","0","out","Female","Right-handed","0","no","left","s","583.857407722","600.902106037","8","red","3"
"100","88","19","736.731793926","1","0","1","88","0","right","2","out","Female","Right-handed","0","no","right","s","490.506045951","1096.33978045","8","red","0"
"100","86","19","735.905593053","1","0","1","89","1","left","1","in","Female","Right-handed","0","no","left","s","584.047591482","777.052677694","8","green","0"
"100","86","19","734.452036069","1","1","1","90","2","right","1","out","Female","Right-handed","0","no","right","s","510.628642316","760.591679958","8","red","2"
"100","87","19","739.919765911","1","1","1","91","3","right","0","in","Female","Right-handed","0","no","right","s","1186.29156742","1048.09468265","8","green","1"
"100","87","19","744.467464174","1","1","1","92","1","left","0","in","Female","Right-handed","0","no","left","s","796.761872935","1328.85081223","8","green","2"
"100","87","19","744.271553883","1","1","1","93","2","left","2","out","Female","Right-handed","0","no","left","d","860.368558808","600.355287638","8","green","0"
"100","87","19","741.054143914","1","1","1","94","2","left","0","in","Female","Right-handed","0","no","left","d","529.873763525","488.927488673","8","red","2"
"100","87","19","742.553930046","1","1","1","95","1","right","0","out","Female","Right-handed","0","no","right","s","623.531087027","1080.54554837","8","red","2"
"100","88","19","745.762076161","1","1","1","96","1","right","1","out","Female","Right-handed","0","no","right","d","814.050955778","1152.27882158","8","red","2"
"100","88","19","743.807707845","1","1","1","97","1","right","2","in","Female","Right-handed","0","no","right","d","609.64991756","584.810250808","8","red","3"
"100","88","19","742.296092644","1","1","1","98","1","left","0","in","Female","Right-handed","0","no","left","s","614.40130441","640.425370193","8","green","1"
"100","88","19","741.561157935","1","1","1","99","2","left","0","out","Female","Right-handed","0","no","left","s","641.928559539","728.013811254","8","green","2"
"100","88","19","743.846269263","1","1","1","100","0","right","0","in","Female","Right-handed","0","no","right","d","947.493246552","896.676659065","8","red","1"
"100","88","19","744.768775996","1","1","1","101","3","left","1","out","Female","Right-handed","0","no","left","d","602.942171629","1032.35144419","8","green","2"
"100","87","19","756.187625043","1","0","1","102","3","left","0","in","Female","Right-handed","0","no","left","s","2426.68704701","912.704050658","8","red","3"
"100","87","19","755.920377891","1","1","1","103","2","left","1","in","Female","Right-handed","0","no","left","s","644.173241049","824.373476004","8","green","3"
"100","86","19","755.176978027","1","0","1","104","0","right","2","out","Female","Right-handed","0","no","right","d","547.775731975","840.660646426","8","red","0"
"100","86","19","756.201996183","1","1","1","105","0","right","0","in","Female","Right-handed","0","no","right","d","1178.26953304","504.287473176","8","green","2"
"100","87","19","755.98825762","1","1","1","106","0","right","3","out","Female","Right-handed","0","no","right","d","483.918567996","992.149868651","8","green","0"
"100","87","19","756.284648784","1","1","1","107","0","left","3","out","Female","Right-handed","0","no","left","d","778.605577804","784.350217781","8","green","1"
"100","87","19","758.399168024","1","1","1","108","0","right","0","in","Female","Right-handed","0","no","right","d","1040.30997708","840.185668098","8","red","2"
"100","86","19","757.749982747","1","0","1","109","1","left","0","out","Female","Right-handed","0","no","left","d","737.717993725","664.82373365","8","green","1"
"100","86","19","758.834596355","1","1","1","110","3","left","0","out","Female","Right-handed","0","no","left","d","652.337351994","1056.2238357","8","red","2"
"100","86","19","759.49182486","1","1","1","111","1","right","3","in","Female","Right-handed","0","no","right","d","715.985089337","919.9852343","8","red","1"
"100","86","19","764.700199672","1","1","1","112","3","left","1","in","Female","Right-handed","0","no","left","s","1242.35889439","1224.54897104","8","red","0"
"100","86","19","768.589277275","1","1","1","113","0","left","0","out","Female","Right-handed","0","no","left","s","740.966511943","1504.02416649","8","green","1"
"100","87","19","767.176054223","1","1","1","114","2","left","0","in","Female","Right-handed","0","no","left","s","657.659610839","616.659455933","8","green","1"
"100","87","19","766.1077016","1","1","1","115","3","left","0","in","Female","Right-handed","0","no","left","d","661.174642892","672.327172513","8","red","2"
"100","87","19","764.040985773","1","1","1","116","2","right","1","in","Female","Right-handed","0","no","right","d","586.700221967","552.839174134","8","red","0"
"100","87","19","762.898092347","1","1","1","117","1","right","0","out","Female","Right-handed","0","no","right","s","596.34186509","712.304568548","8","red","1"
"100","100","19","927.153526401","1","1","2","118","0","right","0","in","Female","Right-handed","0","no","right","s","1133.14210191","721.164950897","8","green","2"
"100","100","19","744.037755165","1","1","2","119","2","left","3","out","Female","Right-handed","0","no","left","s","680.879027414","440.964940442","8","green","0"
"100","100","19","677.313429357","1","1","2","120","3","right","0","out","Female","Right-handed","0","no","right","s","542.390613068","545.338942418","8","green","3"
"100","100","19","654.760230555","1","1","2","121","2","right","0","in","Female","Right-handed","0","no","right","d","557.174273429","617.026994869","8","red","2"
"100","100","19","620.162589475","1","1","2","122","2","left","3","out","Female","Right-handed","0","no","left","s","578.809359864","384.734690448","8","red","2"
"100","100","19","626.522873205","1","1","2","123","1","right","1","out","Female","Right-handed","0","no","right","d","707.399880117","609.248703592","8","red","3"
"100","100","19","623.937272072","1","1","2","124","2","right","2","in","Female","Right-handed","0","no","right","s","559.908365423","656.938965125","8","green","0"
"100","100","19","611.492082198","1","1","2","125","1","right","0","in","Female","Right-handed","0","no","right","d","592.319462534","456.432043622","8","green","3"
"100","100","19","624.574122187","1","1","2","126","2","left","1","in","Female","Right-handed","0","no","left","s","713.310650259","745.150233946","8","green","3"
"100","100","19","625.938771734","1","1","2","127","3","right","0","out","Female","Right-handed","0","no","right","s","563.733528499","712.707706804","8","green","2"
"100","100","19","614.939303158","1","1","2","128","3","right","0","out","Female","Right-handed","0","no","right","s","593.419513623","416.469721174","8","red","2"
"100","100","19","609.354044976","1","1","2","129","1","right","0","out","Female","Right-handed","0","no","right","s","559.015175253","536.81723469","8","green","2"
"100","100","19","606.598355114","1","1","2","130","3","left","3","in","Female","Right-handed","0","no","left","d","634.504978613","512.555174938","8","red","0"
"100","100","19","609.034912946","1","1","2","131","3","right","2","in","Female","Right-handed","0","no","right","d","488.129230025","793.291099496","8","red","3"
"100","93","19","607.922805278","1","0","2","132","3","right","1","out","Female","Right-handed","0","no","right","d","543.890274554","640.816321295","8","red","0"
"100","93","19","633.675039376","1","1","2","133","1","left","0","out","Female","Right-handed","0","no","left","d","1031.45697117","1008.46013052","8","red","1"
"100","94","19","659.634099727","1","1","2","134","3","left","1","in","Female","Right-handed","0","no","left","d","1252.96877491","896.989355803","8","green","0"
"100","94","19","686.653903651","1","1","2","135","1","left","2","out","Female","Right-handed","0","no","left","d","747.611077097","1544.3700636","8","green","0"
"100","94","19","692.864925491","1","1","2","136","3","right","1","out","Female","Right-handed","0","no","right","d","680.229259627","929.097377613","8","green","3"
"100","95","19","696.511755633","1","1","2","137","1","left","0","out","Female","Right-handed","0","no","left","d","674.752095629","856.850961038","8","red","1"
"100","95","19","695.980874841","1","1","2","138","1","left","0","in","Female","Right-handed","0","no","left","d","802.359304909","568.367213089","8","red","2"
"100","90","19","692.984203319","1","0","2","139","0","left","2","in","Female","Right-handed","0","no","left","d","571.03620002","689.072002674","8","red","3"
"100","86","19","704.746510594","1","0","2","140","0","left","2","in","Female","Right-handed","0","no","left","s","934.562675171","992.471866113","8","red","0"
"100","87","19","714.989798336","1","1","2","141","0","left","0","out","Female","Right-handed","0","no","left","s","853.083526591","1048.08730621","8","red","1"
"100","84","19","717.653164475","1","0","2","142","3","left","0","out","Female","Right-handed","0","no","left","s","610.603722791","952.544180842","8","green","3"
"100","84","19","714.15775004","1","1","2","143","2","left","1","out","Female","Right-handed","0","no","left","s","613.333324781","640.211453552","8","green","0"
"100","85","19","711.84986651","1","1","2","144","1","right","0","in","Female","Right-handed","0","no","right","s","630.850756421","672.83903302","8","green","2"
"100","85","19","714.405587096","1","1","2","145","2","left","0","in","Female","Right-handed","0","no","left","s","846.432867859","720.387217984","8","green","1"
"100","86","19","712.758595364","1","1","2","146","1","left","3","in","Female","Right-handed","0","no","left","d","564.141477474","769.144176288","8","red","2"
"100","86","19","706.974067338","1","1","2","147","2","right","1","out","Female","Right-handed","0","no","right","d","533.703416605","544.742092541","8","green","0"
"100","87","19","707.499658568","1","1","2","148","0","right","0","out","Female","Right-handed","0","no","right","d","534.223615692","912.311175268","8","red","2"
"100","87","19","708.591430081","1","1","2","149","1","left","3","out","Female","Right-handed","0","no","left","s","612.008773469","872.863920473","8","red","1"
"100","87","19","714.120969719","1","1","2","150","3","right","0","out","Female","Right-handed","0","no","right","d","821.651891879","960.480584419","8","red","2"
"100","88","19","713.13408272","1","1","2","151","0","right","0","out","Female","Right-handed","0","no","right","d","633.035785015","728.09783848","8","red","1"
"100","85","19","722.433019786","1","0","2","152","0","left","3","out","Female","Right-handed","0","no","left","d","636.556269217","1440.63749083","8","green","1"
"100","86","19","726.126009374","1","1","2","153","2","right","0","in","Female","Right-handed","0","no","right","s","582.396231988","1128.36505789","8","red","2"
"100","86","19","725.846946375","1","1","2","154","1","right","0","in","Female","Right-handed","0","no","right","d","550.862610033","880.738746846","8","red","3"
"100","86","19","725.005027201","1","1","2","155","0","left","0","in","Female","Right-handed","0","no","left","s","787.387705791","600.320329746","8","green","3"
"100","87","19","730.966388016","1","1","2","156","3","right","2","in","Female","Right-handed","0","no","right","d","859.034386057","1055.96181187","8","red","1"
"100","87","19","730.646637612","1","1","2","157","2","right","0","out","Female","Right-handed","0","no","right","s","667.619082134","768.733661595","8","green","2"
"100","87","19","729.598884514","1","1","2","158","2","right","0","in","Female","Right-handed","0","no","right","s","535.330722503","840.046798675","8","green","3"
"100","88","19","730.868052865","1","1","2","159","0","right","0","out","Female","Right-handed","0","no","right","d","796.894007351","768.913903203","8","green","1"
"100","86","19","734.891934953","1","0","2","160","3","left","0","out","Female","Right-handed","0","no","left","d","575.393749337","1232.39621595","8","green","3"
"100","86","19","732.361607931","1","1","2","161","0","right","0","in","Female","Right-handed","0","no","right","d","735.022066768","512.093025195","8","green","2"
"100","86","19","729.965256274","1","1","2","162","0","left","3","in","Female","Right-handed","0","no","left","s","600.509872077","648.541694663","8","green","0"
"100","86","19","728.501607707","1","1","2","163","3","right","0","out","Female","Right-handed","0","no","right","s","613.081563817","712.19328058","8","red","2"
"100","87","19","729.942025922","1","1","2","164","0","right","1","in","Female","Right-handed","0","no","right","s","839.672204018","752.730323598","8","green","2"
"100","87","19","730.637290118","1","1","2","165","2","right","0","out","Female","Right-handed","0","no","right","d","574.384139765","952.245274832","8","green","1"
"100","87","19","730.28602513","1","1","2","166","0","right","2","out","Female","Right-handed","0","no","right","s","442.965237423","983.885374035","8","green","0"
"100","88","19","728.723629643","1","1","2","167","3","right","0","out","Female","Right-handed","0","no","right","d","591.688937624","712.643563883","8","green","1"
"100","86","19","724.651577699","1","0","2","168","2","left","1","in","Female","Right-handed","0","no","left","s","610.023229359","432.074731634","8","red","2"
"100","86","19","723.326397716","1","1","2","169","1","left","3","in","Female","Right-handed","0","no","left","s","510.717480261","800.766956902","8","green","0"
"100","84","19","735.3749436","1","0","2","170","3","left","0","in","Female","Right-handed","0","no","left","d","851.384380622","1872.4142786","8","red","1"
"100","83","19","735.077945349","1","0","2","171","3","left","0","out","Female","Right-handed","0","no","left","s","862.794123354","575.879952675","8","red","3"
"100","81","19","735.041172612","1","0","2","172","2","left","0","out","Female","Right-handed","0","no","left","d","553.618189906","912.492699734","8","red","1"
"100","82","19","734.73158238","1","1","2","173","2","right","0","in","Female","Right-handed","0","no","right","s","875.170820616","560.237418606","8","red","1"
"100","82","19","732.257684124","1","1","2","174","0","left","3","out","Female","Right-handed","0","no","left","s","594.703013467","592.735750089","8","red","2"
"100","82","19","730.000085266","1","1","2","175","1","right","1","out","Female","Right-handed","0","no","right","s","674.348957373","528.284943379","8","red","2"
"100","81","19","730.009235004","1","0","2","176","2","right","3","in","Female","Right-handed","0","no","right","s","725.187674168","735.892165487","8","green","1"
"100","81","19","731.251719164","1","1","2","177","1","left","0","in","Female","Right-handed","0","no","left","d","808.593034656","800.523534519","8","green","1"
"100","81","19","733.273173232","1","1","2","178","1","left","1","in","Female","Right-handed","0","no","left","s","685.208353846","1023.91248083","8","red","0"
"100","82","19","732.016588146","1","1","2","179","1","right","0","in","Female","Right-handed","0","no","right","s","725.814991933","584.914803769","8","red","2"
"100","82","19","730.069792945","1","1","2","180","1","right","2","in","Female","Right-handed","0","no","right","d","490.354668659","728.382312333","8","red","1"
"100","82","19","728.997545671","1","1","2","181","1","left","2","out","Female","Right-handed","0","no","left","s","594.962792295","727.929142598","8","green","0"
"100","83","19","726.113917679","1","1","2","182","1","left","3","in","Female","Right-handed","0","no","left","d","554.604387312","528.51906504","8","red","0"
"100","83","19","726.062552021","1","1","2","183","0","left","0","out","Female","Right-handed","0","no","left","d","765.146468756","680.301099699","8","red","2"
"100","83","19","726.77364139","1","1","2","184","0","right","1","in","Female","Right-handed","0","no","right","s","523.671143094","1023.73993638","8","green","0"
"100","83","19","724.834244317","1","1","2","185","3","left","3","out","Female","Right-handed","0","no","left","s","589.389734631","600.399546253","8","red","1"
"100","84","19","724.576055151","1","1","2","186","2","right","2","out","Female","Right-handed","0","no","right","d","910.005557984","504.032825781","8","red","1"
"100","84","19","721.949531067","1","1","2","187","0","right","1","out","Female","Right-handed","0","no","right","s","392.708296919","688.730441621","8","red","0"
"100","84","19","720.71247228","1","1","2","188","1","left","0","in","Female","Right-handed","0","no","left","d","699.968922755","568.267791562","8","red","3"
"100","84","19","720.672651754","1","1","2","189","0","right","2","in","Female","Right-handed","0","no","right","d","787.887058428","647.80373036","8","red","1"
"100","84","19","719.496977948","1","1","2","190","3","left","3","out","Female","Right-handed","0","no","left","s","637.416746498","632.280181409","8","green","2"
"100","85","19","723.799994087","1","1","2","191","2","left","0","out","Female","Right-handed","0","no","left","d","612.011339186","1463.82900524","8","green","2"
"100","85","19","721.178651825","1","1","2","192","1","left","0","in","Female","Right-handed","0","no","left","d","582.639975087","471.758673806","8","green","1"
"100","85","19","718.783062616","1","1","2","193","2","left","0","out","Female","Right-handed","0","no","left","d","622.1622771","456.065466831","8","green","3"
"100","85","19","719.752042712","1","1","2","194","2","left","3","out","Female","Right-handed","0","no","left","s","626.999936178","959.789123734","8","green","0"
"100","85","19","717.574672207","1","1","2","195","1","left","0","out","Female","Right-handed","0","no","left","d","531.409665761","568.424621003","8","green","3"
"100","86","19","716.163875549","1","1","2","196","1","right","2","in","Female","Right-handed","0","no","right","d","484.054871703","728.188600713","8","green","3"
"100","86","19","713.95130975","1","1","2","197","3","right","3","in","Female","Right-handed","0","no","right","s","662.734278009","415.582945295","8","red","0"
"100","86","19","711.801852366","1","1","2","198","0","left","1","in","Female","Right-handed","0","no","left","s","695.321447436","384.3690758","8","red","3"
"100","86","19","711.346685939","1","1","2","199","3","right","1","in","Female","Right-handed","0","no","right","s","789.029764561","559.926646156","8","green","2"
"100","86","19","709.675425577","1","1","2","200","2","left","2","in","Female","Right-handed","0","no","left","d","649.640142179","495.624009593","8","green","3"
"100","86","19","709.503830913","1","1","2","201","3","left","0","in","Female","Right-handed","0","no","left","s","718.329192373","672.193755238","8","green","1"
"100","87","19","709.02550132","1","1","2","202","2","left","0","in","Female","Right-handed","0","no","left","d","601.867136278","735.824494706","8","green","3"
"100","86","19","708.373461505","1","0","2","203","2","right","0","out","Female","Right-handed","0","no","right","s","554.409392833","751.490761655","8","green","3"
"100","86","19","707.074708686","1","1","2","204","0","left","0","out","Female","Right-handed","0","no","left","s","606.910373417","583.853559147","8","red","3"
"100","86","19","704.672796465","1","1","2","205","3","right","2","out","Female","Right-handed","0","no","right","d","527.685527786","463.727338707","8","red","0"
"100","86","19","704.493613028","1","1","2","206","3","right","2","in","Female","Right-handed","0","no","right","d","513.237014185","864.213926903","8","red","0"
"100","86","19","705.242253023","1","1","2","207","0","right","0","in","Female","Right-handed","0","no","right","s","687.854570039","855.887855083","8","green","3"
"100","86","19","702.793121456","1","1","2","208","1","left","1","in","Female","Right-handed","0","no","left","s","525.430904123","439.311656661","8","red","0"
"100","85","19","707.8602485","1","0","2","209","0","left","0","out","Female","Right-handed","0","no","left","s","1377.97338518","959.964233908","8","red","1"
"100","86","19","705.750541471","1","1","2","210","0","right","3","out","Female","Right-handed","0","no","right","s","527.622026294","495.692963233","8","red","0"
"100","86","19","705.904967937","1","1","2","211","0","right","0","out","Female","Right-handed","0","no","right","d","689.199326371","751.333932214","8","green","3"
"100","86","19","703.699567861","1","1","2","212","2","right","2","in","Female","Right-handed","0","no","right","d","480.910906445","511.873014977","8","red","0"
"100","85","19","704.206583274","1","0","2","213","3","left","0","in","Female","Right-handed","0","no","left","s","681.511155897","823.234939162","8","green","1"
"100","100","19","548.123065891","1","1","3","214","2","left","0","out","Female","Right-handed","0","no","left","d","575.624343137","520.621788644","8","red","3"
"100","100","19","571.43669238","1","1","3","215","2","right","0","out","Female","Right-handed","0","no","right","s","509.178691593","680.321946147","8","red","2"
"100","100","19","528.090055805","1","1","3","216","2","right","0","in","Female","Right-handed","0","no","right","s","489.865899603","392.927665708","8","red","2"
"100","75","19","565.678903105","1","0","3","217","3","left","2","out","Female","Right-handed","0","no","left","d","708.290825285","648.60006472","8","green","0"
"100","80","19","591.549009842","1","1","3","218","1","right","0","out","Female","Right-handed","0","no","right","d","845.031024328","545.027849253","8","red","1"
"100","66","19","598.669531503","1","0","3","219","1","left","2","in","Female","Right-handed","0","no","left","s","659.743614332","608.800665291","8","green","0"
"100","71","19","581.684635008","1","1","3","220","2","left","0","in","Female","Right-handed","0","no","left","s","471.325709092","488.224802977","8","red","2"
"100","75","19","573.662131014","1","1","3","221","1","left","0","in","Female","Right-handed","0","no","left","s","587.031199437","447.978006675","8","red","2"
"100","77","19","558.601310875","1","1","3","222","3","left","3","out","Female","Right-handed","0","no","left","s","491.618604911","384.610894611","8","red","2"
"100","80","19","552.012211529","1","1","3","223","1","right","2","in","Female","Right-handed","0","no","right","d","529.215336444","456.205298397","8","red","3"
"100","81","19","569.263187646","1","1","3","224","3","right","0","in","Female","Right-handed","0","no","right","d","498.819609902","984.726287725","8","red","3"
"100","83","19","593.898447431","1","1","3","225","0","left","0","out","Female","Right-handed","0","no","left","d","1281.47100243","448.30160771","8","red","2"
"100","84","19","591.321448028","1","1","3","226","0","right","3","out","Female","Right-handed","0","no","right","d","480.854139961","639.940770427","8","red","0"
"100","85","19","595.346974028","1","1","3","227","1","right","1","out","Female","Right-handed","0","no","right","s","478.699579254","816.658044789","8","green","3"
"100","86","19","601.667705247","1","1","3","228","3","left","3","in","Female","Right-handed","0","no","left","d","932.105039164","448.210845477","8","green","1"
"100","87","19","598.333091862","1","1","3","229","0","left","0","out","Female","Right-handed","0","no","left","d","567.822960407","528.804821752","8","red","3"
"100","88","19","597.022817655","1","1","3","230","3","right","0","in","Female","Right-handed","0","no","right","d","431.523743946","720.593116759","8","red","3"
"100","88","19","596.021783007","1","1","3","231","3","left","3","out","Female","Right-handed","0","no","left","s","670.001029494","488.007358476","8","red","0"
"100","89","19","604.216581745","1","1","3","232","3","left","1","in","Female","Right-handed","0","no","left","s","670.685113743","832.760804314","8","red","3"
"100","90","19","604.723091804","1","1","3","233","1","left","1","out","Female","Right-handed","0","no","left","s","764.297857915","464.39570794","8","green","0"
"100","90","19","604.969988978","1","1","3","234","0","left","0","out","Female","Right-handed","0","no","left","d","667.891048118","551.9248168","8","green","2"
"100","86","19","618.297855641","1","0","3","235","3","right","0","in","Female","Right-handed","0","no","right","s","627.685624","1168.68048711","8","red","1"
"100","86","19","619.267632586","1","1","3","236","3","left","1","out","Female","Right-handed","0","no","left","d","633.003713554","648.201737183","8","red","2"
"100","87","19","616.701863758","1","1","3","237","2","right","0","in","Female","Right-handed","0","no","right","d","658.66505112","456.71331033","8","red","3"
"100","88","19","614.94897591","1","1","3","238","3","right","1","out","Female","Right-handed","0","no","right","s","585.364124929","560.395210192","8","green","0"
"100","88","19","615.08579572","1","1","3","239","0","left","0","in","Female","Right-handed","0","no","left","s","796.956867414","440.055714541","8","green","3"
"100","85","19","619.641935449","1","0","3","240","1","left","0","in","Female","Right-handed","0","no","left","d","747.56393205","728.63920473","8","red","3"
"100","85","19","628.198229023","1","1","3","241","3","left","2","in","Female","Right-handed","0","no","left","d","1102.22136556","616.214945493","8","red","0"
"100","82","19","654.629808921","1","0","3","242","2","right","0","in","Female","Right-handed","0","no","right","s","1221.72090966","1567.70718244","8","red","1"
"100","83","19","653.99766477","1","1","3","243","2","left","0","in","Female","Right-handed","0","no","left","s","567.206226225","704.124742586","8","green","2"
"100","83","19","659.703121527","1","1","3","244","2","right","0","out","Female","Right-handed","0","no","right","d","677.855971562","983.877676884","8","red","1"
"100","84","19","673.334932964","1","1","3","245","3","left","2","out","Female","Right-handed","0","no","left","d","1135.43136275","1056.41081232","8","red","1"
"100","84","19","680.366355401","1","1","3","246","3","left","1","in","Female","Right-handed","0","no","left","d","1338.81028352","471.933463265","8","green","0"
"100","85","19","676.667450405","1","1","3","247","0","left","1","out","Female","Right-handed","0","no","left","d","564.634095105","544.573075945","8","green","2"
"100","85","19","677.842263303","1","1","3","248","1","left","1","in","Female","Right-handed","0","no","left","s","731.2475766","704.32422707","8","green","0"
"100","86","19","672.645236766","1","1","3","249","1","left","3","out","Female","Right-handed","0","no","left","d","541.793442477","439.705173479","8","red","0"
"100","83","19","670.259889519","1","0","3","250","3","left","0","in","Female","Right-handed","0","no","left","s","592.351533994","576.423243214","8","green","2"
"100","84","19","666.646814714","1","1","3","251","2","right","3","out","Female","Right-handed","0","no","right","d","658.007265468","407.918828417","8","red","0"
"100","84","19","661.726806535","1","1","3","252","1","left","0","out","Female","Right-handed","0","no","left","d","533.74350593","415.7894855","8","green","2"
"100","85","19","659.041806592","1","1","3","253","2","left","1","out","Female","Right-handed","0","no","left","s","540.265237391","568.388380253","8","green","3"
"100","85","19","659.755496417","1","1","3","254","1","right","0","in","Female","Right-handed","0","no","right","s","672.607156362","703.999022462","8","green","3"
"100","85","19","657.453502071","1","1","3","255","1","left","0","in","Female","Right-handed","0","no","left","s","557.504930185","568.638537644","8","green","2"
"100","86","19","657.529505128","1","1","3","256","0","left","3","out","Female","Right-handed","0","no","left","d","817.173112442","504.270154588","8","green","0"
"100","86","19","660.001057046","1","1","3","257","2","left","3","in","Female","Right-handed","0","no","left","s","836.789621162","695.765957877","8","red","0"
"100","86","19","670.784717008","1","1","3","258","1","right","1","out","Female","Right-handed","0","no","right","s","874.22150539","1416.3100053","8","green","2"
"100","84","19","666.959382653","1","0","3","259","2","left","1","out","Female","Right-handed","0","no","left","d","541.914672597","447.724000709","8","red","2"
"100","85","19","666.534957595","1","1","3","260","3","right","0","out","Female","Right-handed","0","no","right","d","550.472621075","743.550188788","8","green","3"
"100","83","19","674.20140527","1","0","3","261","1","left","0","in","Female","Right-handed","0","no","left","d","509.050405753","1559.99848623","8","green","2"
"100","83","19","675.088672515","1","1","3","262","0","left","1","out","Female","Right-handed","0","no","left","d","491.598079176","943.756921422","8","green","0"
"100","84","19","671.052857936","1","1","3","263","2","right","2","out","Female","Right-handed","0","no","right","d","458.364990537","488.230896554","8","red","3"
"100","82","19","669.401972346","1","0","3","264","0","right","1","out","Female","Right-handed","0","no","right","d","525.753543014","647.96184266","8","green","0"
"100","82","19","673.335653416","1","1","3","265","1","right","0","out","Female","Right-handed","0","no","right","d","708.506986928","1039.39978903","8","red","3"
"100","83","19","671.794320327","1","1","3","266","2","right","3","in","Female","Right-handed","0","no","right","s","583.124895567","600.165103878","8","red","2"
"100","83","19","671.84812883","1","1","3","267","1","left","3","in","Female","Right-handed","0","no","left","s","565.649798254","783.750160758","8","red","1"
"100","83","19","670.374367533","1","1","3","268","0","right","0","in","Female","Right-handed","0","no","right","s","813.317160765","368.265354131","8","red","1"
"100","83","19","669.519808685","1","1","3","269","2","right","0","in","Female","Right-handed","0","no","right","d","821.039968416","423.998175776","8","green","1"
"100","82","19","669.704967716","1","0","3","270","0","left","0","in","Female","Right-handed","0","no","left","s","656.659622705","703.488124098","8","red","1"
"100","82","19","669.566038195","1","1","3","271","1","right","3","out","Female","Right-handed","0","no","right","s","531.075481144","792.218629862","8","red","2"
"100","83","19","668.051924542","1","1","3","272","1","left","2","in","Female","Right-handed","0","no","left","d","560.785519863","599.681145541","8","red","1"
"100","81","19","668.838479146","1","0","3","273","0","left","0","out","Female","Right-handed","0","no","left","s","735.177292637","695.313108857","8","red","1"
"100","81","19","666.65961445","1","1","3","274","2","right","2","in","Female","Right-handed","0","no","right","s","551.887613906","519.967851568","8","red","0"
"100","80","19","666.117558434","1","0","3","275","3","right","0","in","Female","Right-handed","0","no","right","d","666.616207569","599.48807535","8","red","1"
"100","80","19","665.538326512","1","1","3","276","3","left","3","in","Female","Right-handed","0","no","left","s","867.10356548","392.148329221","8","red","0"
"100","81","19","665.870611261","1","1","3","277","3","right","0","out","Female","Right-handed","0","no","right","d","821.778574147","551.830526706","8","green","2"
"100","81","19","663.839549346","1","1","3","278","0","right","0","out","Female","Right-handed","0","no","right","s","516.344738693","551.35843481","8","green","3"
"100","80","19","669.380573078","1","0","3","279","0","right","2","in","Female","Right-handed","0","no","right","d","723.107198535","1335.98703287","8","green","3"
"100","80","19","666.964163767","1","1","3","280","1","right","0","in","Female","Right-handed","0","no","right","s","439.464637527","575.497660868","8","green","1"
"100","80","19","666.929599975","1","1","3","281","2","right","0","in","Female","Right-handed","0","no","right","d","537.060336359","792.167315526","8","green","1"
"100","81","19","666.237957231","1","1","3","282","2","left","0","out","Female","Right-handed","0","no","left","d","566.64369281","671.768808388","8","green","3"
"100","80","19","663.853897271","1","0","3","283","0","right","2","in","Female","Right-handed","0","no","right","s","599.295325873","399.412194275","8","red","1"
"100","78","19","664.539343364","1","0","3","284","0","right","3","out","Female","Right-handed","0","no","right","d","881.103399351","543.937740315","8","red","2"
"100","77","19","664.65889748","1","0","3","285","0","right","0","in","Female","Right-handed","0","no","right","s","618.626398596","727.668080912","8","green","1"
"100","78","19","666.871127352","1","1","3","286","3","left","0","in","Female","Right-handed","0","no","left","s","789.118602505","863.184753741","8","red","2"
"100","78","19","666.997760433","1","1","3","287","0","right","0","out","Female","Right-handed","0","no","right","s","592.766859405","759.717091234","8","green","2"
"100","78","19","666.682298296","1","1","3","288","3","left","0","in","Female","Right-handed","0","no","left","s","735.276393449","551.399806994","8","green","1"
"100","78","19","666.989793663","1","1","3","289","1","right","0","in","Female","Right-handed","0","no","right","s","548.115689455","831.988202834","8","green","3"
"100","79","19","667.808659868","1","1","3","290","3","left","0","in","Female","Right-handed","0","no","left","d","732.49740141","727.587581546","8","green","1"
"100","79","19","667.365203632","1","1","3","291","1","right","0","in","Female","Right-handed","0","no","right","s","619.151087687","647.287059133","8","green","1"
"100","79","19","667.047586979","1","1","3","292","0","right","3","in","Female","Right-handed","0","no","right","s","572.692370232","711.854605959","8","green","1"
"100","80","19","668.865030306","1","1","3","293","0","right","0","in","Female","Right-handed","0","no","right","s","825.418364182","799.467742044","8","green","2"
"100","80","19","670.007083477","1","1","3","294","1","right","0","out","Female","Right-handed","0","no","right","d","698.81627447","823.926399847","8","red","1"
"100","80","19","669.253895491","1","1","3","295","0","right","2","in","Female","Right-handed","0","no","right","d","440.704199469","775.787137869","8","green","0"
"100","80","19","670.133774427","1","1","3","296","0","left","1","out","Female","Right-handed","0","no","left","d","821.241377186","663.326317166","8","red","3"
"100","79","19","669.881152866","1","0","3","297","1","right","2","in","Female","Right-handed","0","no","right","s","489.929401095","807.897725396","8","green","0"
"100","80","19","670.246966658","1","1","3","298","2","right","1","out","Female","Right-handed","0","no","right","d","602.557955534","799.392694827","8","green","0"
"100","80","19","675.877705063","1","1","3","299","3","left","2","out","Female","Right-handed","0","no","left","s","621.944191169","1687.0367478","8","green","3"
"100","79","19","676.242248111","1","0","3","300","1","left","3","out","Female","Right-handed","0","no","left","d","591.653338302","823.532562314","8","green","0"
"100","79","19","684.655002709","1","1","3","301","3","left","0","in","Female","Right-handed","0","no","left","d","1146.11981833","1687.00948706","8","red","2"
"100","79","19","685.324310193","1","1","3","302","2","right","0","out","Female","Right-handed","0","no","right","s","568.804988523","919.641748959","8","red","3"
"100","80","19","687.06818674","1","1","3","303","3","right","0","out","Female","Right-handed","0","no","right","d","445.300039737","1239.24635917","8","green","3"
"100","80","19","686.455514257","1","1","3","304","0","right","2","out","Female","Right-handed","0","no","right","d","494.870971705","767.759009916","8","green","0"
"100","79","19","688.167695559","1","0","3","305","2","right","2","out","Female","Right-handed","0","no","right","d","928.433498384","759.518889609","8","green","1"
"100","79","19","688.440191456","1","1","3","306","2","left","3","out","Female","Right-handed","0","no","left","s","700.006125649","727.013502406","8","green","1"
"100","79","19","688.212890135","1","1","3","307","0","left","0","in","Female","Right-handed","0","no","left","d","606.469711553","727.678023064","8","green","3"
"100","80","19","685.844119908","1","1","3","308","2","left","2","out","Female","Right-handed","0","no","left","s","511.138578536","415.220858508","8","red","0"
"100","79","19","688.886881861","1","0","3","309","2","right","1","out","Female","Right-handed","0","no","right","d","532.932739412","1422.96579547","8","red","0"
"100","100","19","673.22886162","1","1","4","310","2","left","2","in","Female","Right-handed","0","no","left","d","746.688060469","599.769662772","8","red","0"
"100","100","19","667.234705682","1","1","4","311","3","right","3","in","Female","Right-handed","0","no","right","d","682.268042361","640.213057125","8","green","0"
"100","66","19","630.587396279","1","0","4","312","1","left","1","in","Female","Right-handed","0","no","left","d","594.711352047","519.874202904","8","green","2"
"75","50","19","1222.95999053","0","0","4","313","1","right","0","out","Female","Right-handed","0","no","None","None","3000.03046789","3000.12507869","8","red","1"
"80","60","19","1106.51711317","1","1","4","314","3","right","0","out","Female","Right-handed","0","no","right","s","633.175295867","648.315911582","8","green","2"
"83","66","19","1011.37160442","1","1","4","315","1","right","1","in","Female","Right-handed","0","no","right","d","575.17245626","496.11566508","8","green","3"
"85","71","19","997.768742687","1","1","4","316","3","right","3","in","Female","Right-handed","0","no","right","s","968.695368272","863.607776302","8","red","1"
"87","75","19","964.945232369","1","1","4","317","2","left","0","in","Female","Right-handed","0","no","left","s","678.075340351","792.285979928","8","green","1"
"88","77","19","919.868226922","1","1","4","318","1","right","2","in","Female","Right-handed","0","no","right","d","558.713382811","559.790983879","8","green","0"
"90","80","19","900.982717652","1","1","4","319","1","right","3","out","Female","Right-handed","0","no","right","d","534.494298817","927.531969633","8","red","2"
"90","81","19","871.896805586","1","1","4","320","1","right","0","in","Female","Right-handed","0","no","right","s","674.016376329","488.058993527","8","green","1"
"91","83","19","839.172370309","1","1","4","321","3","right","0","in","Female","Right-handed","0","no","right","d","510.66167592","447.745488588","8","green","2"
"92","84","19","812.721544405","1","1","4","322","1","left","0","out","Female","Right-handed","0","no","left","d","550.248441567","440.374825571","8","red","3"
"92","85","19","799.844570249","1","1","4","323","2","right","0","in","Female","Right-handed","0","no","right","s","512.842214508","752.045597919","8","green","3"
"93","86","19","797.496234543","1","1","4","324","1","left","0","out","Female","Right-handed","0","no","left","s","617.721983415","911.51708591","8","green","1"
"93","87","19","784.386087705","1","1","4","325","1","left","2","in","Female","Right-handed","0","no","left","d","735.17408549","440.293684776","8","green","1"
"94","88","19","773.643321102","1","1","4","326","3","left","0","in","Female","Right-handed","0","no","left","d","747.651166423","455.866944491","8","red","1"
"94","88","19","771.187395574","1","1","4","327","3","right","1","in","Female","Right-handed","0","no","right","s","627.41045087","831.462872314","8","green","0"
"94","89","19","758.968079157","1","1","4","328","3","left","0","out","Female","Right-handed","0","no","left","d","510.093690357","567.947076959","8","green","3"
"95","90","19","753.448203148","1","1","4","329","0","right","2","out","Female","Right-handed","0","no","right","s","673.564489453","623.576628501","8","green","0"
"95","90","19","749.960334476","1","1","4","330","0","left","0","out","Female","Right-handed","0","no","left","s","824.13486434","536.27105772","8","green","2"
"95","90","19","747.368041029","1","1","4","331","0","left","1","in","Female","Right-handed","0","no","left","s","585.90901904","799.950738237","8","green","0"
"95","91","19","740.981634334","1","1","4","332","3","left","0","in","Female","Right-handed","0","no","left","d","633.407172525","567.55420157","8","green","2"
"95","91","19","732.486283304","1","1","4","333","2","left","0","in","Female","Right-handed","0","no","left","s","409.983909748","664.202509464","8","red","3"
"96","92","19","722.274135939","1","1","4","334","3","right","0","out","Female","Right-handed","0","no","right","s","490.791481948","463.573716412","8","red","3"
"96","92","19","718.278698326","1","1","4","335","3","left","0","out","Female","Right-handed","0","no","left","d","533.479237097","703.306278918","8","red","3"
"96","92","19","717.472029143","1","1","4","336","0","right","0","out","Female","Right-handed","0","no","right","d","761.07884544","631.918415336","8","red","2"
"96","92","19","724.34906275","1","1","4","337","0","left","0","in","Female","Right-handed","0","no","left","d","860.560666856","959.497273445","8","red","1"
"96","93","19","729.082244307","1","1","4","338","3","left","2","out","Female","Right-handed","0","no","left","d","635.984755794","1087.2379","8","red","3"
"96","93","19","727.936502999","1","1","4","339","0","right","3","out","Female","Right-handed","0","no","right","d","701.76396239","687.6560477","8","red","0"
"96","93","19","728.705913368","1","1","4","340","2","left","0","in","Female","Right-handed","0","no","left","s","1032.39474066","471.181708235","8","green","2"
"96","93","19","733.837046353","1","1","4","341","3","right","0","in","Female","Right-handed","0","no","right","d","1241.95383185","543.850505943","8","green","1"
"96","93","19","726.118047795","1","1","4","342","0","left","0","out","Female","Right-handed","0","no","left","s","550.551196153","407.668991741","8","red","3"
"97","94","19","722.632507908","1","1","4","343","2","left","3","out","Female","Right-handed","0","no","left","s","632.079734782","583.139648439","8","green","0"
"97","94","19","716.079370267","1","1","4","344","1","left","2","out","Female","Right-handed","0","no","left","d","514.761049981","471.784330975","8","red","3"
"97","94","19","710.923339838","1","1","4","345","1","right","3","in","Female","Right-handed","0","no","right","s","557.403905085","503.520644559","8","green","0"
"97","94","19","712.224363893","1","1","4","346","3","left","0","out","Female","Right-handed","0","no","left","s","926.005047406","592.117412334","8","green","1"
"97","94","19","707.863806451","1","1","4","347","0","right","0","in","Female","Right-handed","0","no","right","d","509.502613343","583.54374884","8","red","3"
"97","94","19","706.741798421","1","1","4","348","0","right","0","out","Female","Right-handed","0","no","right","d","785.107104245","543.103882346","8","green","1"
"97","95","19","703.419378923","1","1","4","349","0","right","3","in","Female","Right-handed","0","no","right","s","499.699971489","647.990065544","8","red","0"
"97","95","19","704.799142819","1","1","4","350","2","right","0","out","Female","Right-handed","0","no","right","s","1000.46407403","519.515323263","8","red","1"
"97","95","19","702.972972449","1","1","4","351","3","right","3","out","Female","Right-handed","0","no","right","s","561.05075084","695.149223695","8","green","0"
"97","95","19","698.00228589","1","1","4","352","1","left","0","in","Female","Right-handed","0","no","left","d","458.737340192","519.729560617","8","red","3"
"97","95","19","694.737615657","1","1","4","353","2","right","2","out","Female","Right-handed","0","no","right","s","749.28328304","359.430308235","8","green","1"
"97","95","19","690.653774225","1","1","4","354","3","right","2","out","Female","Right-handed","0","no","right","s","486.041057243","535.888445198","8","green","0"
"97","95","19","686.697016912","1","1","4","355","0","left","0","in","Female","Right-handed","0","no","left","s","561.602379959","455.683495738","8","red","1"
"97","95","19","685.102657913","1","1","4","356","1","left","0","out","Female","Right-handed","0","no","left","d","512.247609634","711.276678243","8","red","3"
"97","95","19","685.388682313","1","1","4","357","3","right","0","in","Female","Right-handed","0","no","right","d","709.888304725","687.775353532","8","green","1"
"97","95","19","681.27798329","1","1","4","358","0","left","1","in","Female","Right-handed","0","no","left","d","440.503432128","527.425428242","8","green","0"
"98","96","19","680.294185091","1","1","4","359","2","left","0","in","Female","Right-handed","0","no","left","d","529.086729888","735.089416835","8","green","3"
"98","96","19","676.998553646","1","1","4","360","0","left","2","out","Female","Right-handed","0","no","left","d","472.764755517","551.669207261","8","red","0"
"98","94","19","680.13838021","1","0","4","361","0","left","3","out","Female","Right-handed","0","no","left","s","529.339132281","1151.19993765","8","green","2"
"98","94","19","681.650491264","1","1","4","362","1","left","0","out","Female","Right-handed","0","no","left","s","593.714891773","926.845640382","8","green","1"
"98","92","19","684.987497297","1","0","4","363","2","right","1","out","Female","Right-handed","0","no","right","s","708.342781051","1015.35485307","8","green","0"
"98","92","19","682.589112666","1","1","4","364","3","left","0","out","Female","Right-handed","0","no","left","s","763.16188679","342.990798377","8","red","2"
"98","92","19","681.911725573","1","1","4","365","0","right","1","out","Female","Right-handed","0","no","right","s","521.666997537","767.643873373","8","green","3"
"98","92","19","678.216252219","1","1","4","366","2","right","0","in","Female","Right-handed","0","no","right","d","455.266246038","487.273242748","8","red","2"
"98","93","19","675.979257529","1","1","4","367","1","right","1","out","Female","Right-handed","0","no","right","d","569.934545356","527.00657497","8","red","0"
"98","93","19","673.878629407","1","1","4","368","3","left","1","out","Female","Right-handed","0","no","left","d","592.492969134","511.591427555","8","red","2"
"98","93","19","674.398756333","1","1","4","369","2","right","3","in","Female","Right-handed","0","no","right","s","683.171495399","727.000994536","8","red","1"
"98","93","19","672.29958317","1","1","4","370","2","left","3","in","Female","Right-handed","0","no","left","d","573.841169941","518.857216896","8","red","2"
"98","91","19","674.018075599","1","0","4","371","0","left","0","out","Female","Right-handed","0","no","left","s","582.354218375","975.338009138","8","red","1"
"98","92","19","671.414164216","1","1","4","372","1","right","0","out","Female","Right-handed","0","no","right","d","476.917368204","543.025948698","8","green","2"
"98","92","19","672.98483038","1","1","4","373","1","right","0","in","Female","Right-handed","0","no","right","s","936.393634841","607.479962553","8","red","2"
"98","90","19","671.98891482","1","0","4","374","0","right","0","in","Female","Right-handed","0","no","right","s","537.348338073","679.152299989","8","red","3"
"98","90","19","671.319030453","1","1","4","375","3","left","2","out","Female","Right-handed","0","no","left","d","808.779049126","446.774044054","8","red","1"
"98","91","19","669.74509924","1","1","4","376","2","left","2","out","Female","Right-handed","0","no","left","s","524.390826664","607.340451701","8","green","0"
"98","91","19","667.210444565","1","1","4","377","1","left","1","out","Female","Right-handed","0","no","left","d","547.972971456","446.804191226","8","green","0"
"98","91","19","670.536237094","1","1","4","378","0","left","1","in","Female","Right-handed","0","no","left","d","681.802044042","1111.57821411","8","green","2"
"98","90","19","672.581913831","1","0","4","379","2","left","3","out","Female","Right-handed","0","no","left","d","484.307274096","1143.15994326","8","green","0"
"98","90","19","672.31057892","1","1","4","380","1","left","0","in","Female","Right-handed","0","no","left","s","707.915909914","598.718360302","8","red","2"
"98","90","19","670.188300096","1","1","4","381","0","right","0","in","Female","Right-handed","0","no","right","d","615.399047542","423.613959681","8","red","3"
"98","90","19","671.541349244","1","1","4","382","3","right","1","in","Female","Right-handed","0","no","right","s","562.991715621","974.930060162","8","green","3"
"98","89","19","672.354688959","1","0","4","383","1","right","0","out","Female","Right-handed","0","no","right","d","568.650404085","894.806572212","8","green","2"
"98","89","19","671.760059294","1","1","4","384","2","right","0","in","Female","Right-handed","0","no","right","s","816.269659405","439.245268738","8","red","1"
"98","89","19","671.589940368","1","1","4","385","0","right","2","out","Female","Right-handed","0","no","right","d","526.90907773","790.752964125","8","red","3"
"98","89","19","670.690461763","1","1","4","386","0","left","3","out","Female","Right-handed","0","no","left","d","526.235897778","678.424277839","8","red","1"
"98","89","19","672.528772479","1","1","4","387","1","right","2","out","Female","Right-handed","0","no","right","s","597.093940835","1031.06345435","8","green","0"
"98","89","19","670.448935855","1","1","4","388","2","left","0","out","Female","Right-handed","0","no","left","d","585.706006696","430.737351738","8","green","1"
"98","90","19","667.616027327","1","1","4","389","2","right","0","out","Female","Right-handed","0","no","right","s","512.2424782","375.390029047","8","red","2"
"98","90","19","667.816967004","1","1","4","390","2","right","0","in","Female","Right-handed","0","no","right","s","536.883622613","830.900659614","8","red","2"
"98","90","19","666.52140707","1","1","4","391","3","left","3","in","Female","Right-handed","0","no","left","d","652.528818612","470.633286263","8","red","2"
"98","90","19","664.740896546","1","1","4","392","1","right","3","in","Female","Right-handed","0","no","right","s","510.179641871","527.29842526","8","green","0"
"98","90","19","663.21677404","1","1","4","393","0","right","0","out","Female","Right-handed","0","no","right","s","434.666747059","638.762464974","8","red","2"
"98","90","19","662.04214571","1","1","4","394","2","left","1","in","Female","Right-handed","0","no","left","s","552.248417835","574.498314164","8","green","3"
"98","90","19","663.263078587","1","1","4","395","3","left","2","in","Female","Right-handed","0","no","left","s","943.009656396","591.075089873","8","red","0"
"98","90","19","664.186733623","1","1","4","396","0","right","0","out","Female","Right-handed","0","no","right","s","520.642314379","966.599819053","8","red","2"
"98","90","19","663.074129798","1","1","4","397","3","right","1","in","Female","Right-handed","0","no","right","d","461.182147614","671.373046567","8","red","0"
"98","91","19","661.50511767","1","1","4","398","2","left","1","in","Female","Right-handed","0","no","left","d","591.798942732","455.065157983","8","red","0"
"98","91","19","661.543972484","1","1","4","399","2","left","1","in","Female","Right-handed","0","no","left","s","523.576211572","806.427890368","8","red","2"
"98","91","19","665.071624893","1","1","4","400","1","right","3","out","Female","Right-handed","0","no","right","d","670.103337452","1295.01734585","8","green","1"
"98","91","19","664.458045796","1","1","4","401","0","left","2","in","Female","Right-handed","0","no","left","s","474.526440834","742.718255107","8","green","1"
"98","91","19","661.886774151","1","1","4","402","1","right","0","out","Female","Right-handed","0","no","right","s","459.331945067","391.327620551","8","red","3"
"98","91","19","659.35482123","1","1","4","403","3","right","0","in","Female","Right-handed","0","no","right","s","488.925243671","358.841155509","8","red","3"
"98","91","19","657.788212331","1","1","4","404","2","left","0","out","Female","Right-handed","0","no","left","d","470.436688211","550.617263362","8","green","3"
"98","91","19","655.84830997","1","1","4","405","2","left","2","in","Female","Right-handed","0","no","left","d","511.997772958","431.117398543","8","green","3"
"100","100","19","485.873644219","1","1","5","406","0","right","0","out","Female","Right-handed","0","no","right","s","524.385374516","447.361913922","8","green","3"
"100","100","19","475.987536389","1","1","5","407","3","left","0","out","Female","Right-handed","0","no","left","s","572.088143919","360.114713199","8","green","2"
"100","100","19","502.866547126","1","1","5","408","0","left","2","out","Female","Right-handed","0","no","left","s","689.622990362","423.626146835","8","red","1"
"100","100","19","496.346339059","1","1","5","409","0","right","3","in","Female","Right-handed","0","no","right","d","490.326445774","463.244983944","8","green","0"
"100","100","19","517.349762046","1","1","5","410","2","left","1","in","Female","Right-handed","0","no","left","d","450.841988084","751.884919903","8","red","3"
"100","100","19","539.121061317","1","1","5","411","3","right","3","in","Female","Right-handed","0","no","right","s","576.440241088","719.514874262","8","red","0"
"100","100","19","534.894871357","1","1","5","412","1","left","1","in","Female","Right-handed","0","no","left","s","450.988554657","568.086908527","8","green","3"
"100","100","19","526.942432049","1","1","5","413","1","left","1","out","Female","Right-handed","0","no","left","d","462.786041346","479.764672453","8","green","0"
"100","100","19","508.148841367","1","1","5","414","2","right","0","in","Female","Right-handed","0","no","right","s","444.242643689","271.357588124","8","red","3"
"100","100","19","510.73678728","1","1","5","415","1","right","0","in","Female","Right-handed","0","no","right","d","668.052367563","400.004233433","8","red","2"
"100","100","19","494.397888508","1","1","5","416","3","right","2","out","Female","Right-handed","0","no","right","s","366.375382973","295.642418611","8","red","3"
"100","100","19","503.092544016","1","1","5","417","1","right","2","in","Female","Right-handed","0","no","right","d","694.254109235","503.213399969","8","green","1"
"100","100","19","508.659244952","1","1","5","418","0","right","0","in","Female","Right-handed","0","no","right","s","598.990646999","551.928665375","8","red","1"
"100","92","19","520.753602347","1","0","5","419","0","right","1","out","Female","Right-handed","0","no","right","d","452.554924781","903.40557216","8","red","0"
"93","93","19","540.243621227","0","1","5","420","2","left","2","in","Female","Right-handed","0","no","right","s","432.110972384","1194.09679872","8","green","0"
"93","93","19","560.996790609","1","1","5","421","1","left","0","out","Female","Right-handed","0","no","left","d","472.822163431","1271.76649924","8","red","1"
"94","94","19","577.890654016","1","1","5","422","1","left","2","out","Female","Right-handed","0","no","left","d","457.194702949","1239.19023411","8","green","0"
"94","94","19","599.711631246","1","1","5","423","2","right","0","in","Female","Right-handed","0","no","right","s","1189.61962286","751.716865451","8","red","1"
"94","94","19","600.456903528","1","1","5","424","3","left","0","in","Female","Right-handed","0","no","left","s","756.413410104","471.330199096","8","green","3"
"95","95","19","592.186935242","1","1","5","425","0","left","3","in","Female","Right-handed","0","no","left","s","535.025081486","335.089994121","8","green","0"
"95","95","19","589.166188916","1","1","5","426","3","right","2","out","Female","Right-handed","0","no","right","d","561.643431428","495.859093397","8","red","0"
"95","95","19","593.217959073","1","1","5","427","2","right","0","out","Female","Right-handed","0","no","right","s","813.271298576","543.33896615","8","red","1"
"95","95","19","588.768900879","1","1","5","428","2","left","0","out","Female","Right-handed","0","no","left","d","486.91243882","494.866802415","8","red","3"
"95","95","19","598.465997998","1","1","5","429","3","right","3","in","Female","Right-handed","0","no","right","s","1083.48714271","559.511320744","8","red","1"
"96","96","19","595.551983507","1","1","5","430","2","right","1","in","Female","Right-handed","0","no","right","s","668.156279095","383.074992375","8","green","0"
"96","92","19","600.426560291","1","0","5","431","1","right","3","in","Female","Right-handed","0","no","right","s","757.774843595","686.807116143","8","green","2"
"96","92","19","604.955445674","1","1","5","432","0","left","0","out","Female","Right-handed","0","no","left","s","742.249691071","703.163240205","8","green","1"
"96","89","19","611.972360907","1","0","5","433","0","left","2","in","Female","Right-handed","0","no","left","d","571.873585849","1030.98455855","8","green","0"
"96","86","19","608.699535128","1","0","5","434","3","left","0","out","Female","Right-handed","0","no","left","s","402.651732484","631.469094177","8","red","3"
"96","86","19","614.448182195","1","1","5","435","0","right","0","out","Female","Right-handed","0","no","right","s","923.15934673","639.158547509","8","red","2"
"96","87","19","613.95659223","1","1","5","436","3","left","0","in","Female","Right-handed","0","no","left","s","535.647588531","662.770198044","8","green","3"
"96","87","19","608.093765204","1","1","5","437","3","right","0","in","Female","Right-handed","0","no","right","s","469.28083278","383.411421993","8","green","3"
"96","84","19","608.906953025","1","0","5","438","1","right","0","in","Female","Right-handed","0","no","right","d","390.960081616","878.897845023","8","green","3"
"97","85","19","606.780672659","1","1","5","439","0","left","0","out","Female","Right-handed","0","no","left","d","577.573967211","495.652873907","8","green","3"
"97","85","19","603.578455657","1","1","5","440","2","right","0","in","Female","Right-handed","0","no","right","d","470.085185006","519.320970213","8","red","2"
"97","86","19","600.517538046","1","1","5","441","1","right","3","out","Female","Right-handed","0","no","right","s","499.828257329","486.942585993","8","green","0"
"97","86","19","600.136183222","1","1","5","442","3","left","0","out","Female","Right-handed","0","no","left","d","549.430298614","623.384520452","8","green","2"
"97","86","19","603.423349032","1","1","5","443","3","left","0","out","Female","Right-handed","0","no","left","d","850.982845938","599.114122122","8","red","1"
"97","87","19","601.380858928","1","1","5","444","2","left","0","out","Female","Right-handed","0","no","left","d","463.753958019","583.778511929","8","red","2"
"97","87","19","602.364167744","1","1","5","445","3","right","0","in","Female","Right-handed","0","no","right","s","650.319094995","631.107328105","8","red","2"
"97","87","19","602.767597284","1","1","5","446","0","left","0","out","Female","Right-handed","0","no","left","d","702.838677026","534.970880717","8","red","1"
"97","85","19","598.372011438","1","0","5","447","1","right","2","in","Female","Right-handed","0","no","right","s","404.580830825","431.725152716","8","green","3"
"97","83","19","603.970867449","1","0","5","448","0","left","2","in","Female","Right-handed","0","no","left","d","543.073414459","1135.17222535","8","red","3"
"97","84","19","601.306909822","1","1","5","449","0","right","0","out","Female","Right-handed","0","no","right","d","454.599480378","518.913983381","8","red","3"
"95","84","19","601.472892507","0","1","5","450","2","left","0","in","Female","Right-handed","0","no","right","s","719.220137542","498.332123705","8","green","1"
"95","84","19","602.439974392","1","1","5","451","0","right","1","out","Female","Right-handed","0","no","right","d","604.992179375","686.925139118","8","green","2"
"95","85","19","600.081301834","1","1","5","452","3","right","1","in","Female","Right-handed","0","no","right","s","472.598304638","510.566423682","8","green","3"
"95","83","19","599.686808158","1","0","5","453","1","left","0","in","Female","Right-handed","0","no","left","d","611.292617759","550.998593025","8","red","2"
"95","83","19","600.933009179","1","1","5","454","0","right","0","out","Female","Right-handed","0","no","right","d","682.699724218","638.801592156","8","green","2"
"96","84","19","598.783773252","1","1","5","455","0","right","1","out","Female","Right-handed","0","no","right","s","475.447853891","511.494571745","8","red","0"
"96","84","19","601.57134623","1","1","5","456","3","left","1","in","Female","Right-handed","0","no","left","d","898.919416286","582.980573996","8","red","0"
"96","84","19","602.619289118","1","1","5","457","2","left","1","out","Female","Right-handed","0","no","left","s","521.612155341","790.516597462","8","green","2"
"96","84","19","599.205816243","1","1","5","458","1","left","0","out","Female","Right-handed","0","no","left","d","428.237381404","415.173072032","8","red","3"
"96","83","19","602.617721294","1","0","5","459","2","right","0","out","Female","Right-handed","0","no","right","s","615.900324468","950.997053595","8","green","2"
"96","83","19","599.89542663","1","1","5","460","1","left","3","out","Female","Right-handed","0","no","left","s","562.407052899","343.375976617","8","red","1"
"96","83","19","597.460119597","1","1","5","461","0","left","3","in","Female","Right-handed","0","no","left","d","431.994552983","495.041912588","8","red","1"
"96","82","19","598.193212645","1","0","5","462","2","right","0","out","Female","Right-handed","0","no","right","d","647.693725251","630.79912137","8","red","1"
"96","82","19","598.38543919","1","1","5","463","3","right","3","out","Female","Right-handed","0","no","right","d","595.32327551","623.361429001","8","red","0"
"96","83","19","598.378767023","1","1","5","464","2","left","3","out","Female","Right-handed","0","no","left","d","508.890048451","687.093514286","8","green","2"
"96","81","19","609.054377268","1","0","5","465","1","right","0","in","Female","Right-handed","0","no","right","d","975.344744144","1502.48601925","8","red","1"
"96","81","19","611.145454446","1","1","5","466","3","left","2","in","Female","Right-handed","0","no","left","d","962.158883938","511.061286316","8","red","0"
"96","82","19","615.249242785","1","1","5","467","2","left","3","in","Female","Right-handed","0","no","left","d","668.462882256","1062.69778069","8","red","1"
"96","82","19","613.232768026","1","1","5","468","1","left","1","in","Female","Right-handed","0","no","left","s","481.215906033","495.206759894","8","red","0"
"96","82","19","612.711652095","1","1","5","469","2","right","3","out","Female","Right-handed","0","no","right","d","600.928725349","558.833971502","8","red","0"
"96","83","19","609.499990884","1","1","5","470","2","left","0","in","Female","Right-handed","0","no","left","d","401.511592069","406.395754765","8","green","3"
"96","83","19","613.003989758","1","1","5","471","3","left","2","in","Female","Right-handed","0","no","left","s","986.278867121","695.248965936","8","green","1"
"97","82","19","613.169767513","1","0","5","472","1","right","1","out","Female","Right-handed","0","no","right","d","529.635793289","718.586405485","8","green","2"
"97","82","19","614.231488386","1","1","5","473","2","left","0","out","Female","Right-handed","0","no","left","s","556.281403973","814.452169747","8","green","2"
"97","82","19","613.299763624","1","1","5","474","1","right","2","out","Female","Right-handed","0","no","right","d","508.807624798","591.077334875","8","green","0"
"97","82","19","615.554154287","1","1","5","475","0","left","0","out","Female","Right-handed","0","no","left","d","943.549419073","598.664800963","8","red","1"
"97","81","19","615.660847776","1","0","5","476","2","left","2","in","Female","Right-handed","0","no","left","s","647.121570398","599.137213574","8","red","0"
"97","81","19","619.27242694","1","1","5","477","1","right","0","out","Female","Right-handed","0","no","right","s","720.592796044","1030.79629908","8","red","3"
"97","80","19","622.284899912","1","0","5","478","0","left","0","in","Female","Right-handed","0","no","left","s","824.166615084","854.199292696","8","red","2"
"97","81","19","621.298991398","1","1","5","479","1","left","0","out","Female","Right-handed","0","no","left","s","548.707407897","549.947931984","8","red","1"
"97","80","19","619.502355702","1","0","5","480","1","left","0","in","Female","Right-handed","0","no","left","s","494.48611418","478.616514172","8","red","1"
"97","80","19","623.320909243","1","1","5","481","1","right","3","out","Female","Right-handed","0","no","right","s","588.186413439","1231.23843623","8","green","0"
"97","80","19","622.999806626","1","1","5","482","1","left","0","in","Female","Right-handed","0","no","left","s","534.572873895","662.619141466","8","green","3"
"97","80","19","623.273785513","1","1","5","483","0","right","2","in","Female","Right-handed","0","no","right","s","474.342671366","814.397648264","8","green","0"
"97","81","19","624.420400204","1","1","5","484","0","left","0","in","Female","Right-handed","0","no","left","s","780.78034353","646.932348783","8","green","2"
"97","81","19","623.383476126","1","1","5","485","3","right","1","out","Female","Right-handed","0","no","right","d","548.462381941","534.470565936","8","green","0"
"97","80","19","625.430529164","1","0","5","486","3","right","0","in","Female","Right-handed","0","no","right","s","476.182611046","1102.2069334","8","green","2"
"97","80","19","626.59328375","1","1","5","487","3","right","0","out","Female","Right-handed","0","no","right","s","1002.7100384","438.842771911","8","green","1"
"97","80","19","627.607510674","1","1","5","488","0","right","0","in","Female","Right-handed","0","no","right","s","799.332400482","622.215836438","8","red","3"
"97","80","19","628.158217967","1","1","5","489","2","right","2","in","Female","Right-handed","0","no","right","d","732.860129626","614.873717022","8","red","1"
"97","81","19","626.920827204","1","1","5","490","2","left","0","in","Female","Right-handed","0","no","left","d","535.460611917","510.49939433","8","red","3"
"97","81","19","627.788884779","1","1","5","491","2","right","3","in","Female","Right-handed","0","no","right","d","749.042747088","654.104810174","8","green","0"
"97","81","19","632.862123587","1","1","5","492","0","left","3","out","Female","Right-handed","0","no","left","d","563.641483408","1574.67983863","8","green","2"
"97","81","19","633.578104298","1","1","5","493","2","left","1","out","Female","Right-handed","0","no","left","d","601.341164329","790.395688056","8","green","0"
"97","82","19","633.935584068","1","1","5","494","3","right","3","out","Female","Right-handed","0","no","right","d","683.972961193","646.814646523","8","green","2"
"97","82","19","632.25318793","1","1","5","495","1","right","0","out","Female","Right-handed","0","no","right","s","606.45912797","358.580735251","8","red","2"
"97","82","19","631.30111726","1","1","5","496","3","left","1","out","Female","Right-handed","0","no","left","s","565.170971352","526.058542602","8","green","2"
"97","82","19","628.583169963","1","1","5","497","1","left","0","in","Female","Right-handed","0","no","left","s","371.761143309","390.738788539","8","green","2"
"97","82","19","630.000909278","1","1","5","498","3","right","0","out","Female","Right-handed","0","no","right","d","954.421002701","566.444849757","8","green","1"
"97","82","19","630.405273602","1","1","5","499","0","right","1","in","Female","Right-handed","0","no","right","d","497.974526922","838.047784551","8","red","3"
"97","83","19","630.059656461","1","1","5","500","3","right","0","in","Female","Right-handed","0","no","right","d","620.565759803","574.577530671","8","green","1"
"97","83","19","628.23829377","1","1","5","501","2","left","2","out","Female","Right-handed","0","no","left","d","520.141999598","390.275676652","8","red","3"
dis_reply=No
dis_loc=2
