"acc_1","acc_2","age","avg_rt","correct_1","correct_2","count_block_loop","count_trial_sequence","cue_position","detection","dis_position","dis_shape","gender","hand","high_loc","practice","response_keyboard_response_1","response_keyboard_response_2","response_time_keyboard_response_1","response_time_keyboard_response_2","subject_nr","tar_color","tar_position"
"0","0","18","3000.06302062","0","0","0","0","2","left","0","out","Female","Right-handed","1","yes","None","None","3000.03303371","3000.09300753","9","green","2"
"50","0","18","2621.03078325","1","0","0","1","0","left","2","out","Female","Right-handed","1","yes","left","None","1483.91370569","3000.08338606","9","green","3"
"66","33","18","2072.48483309","1","1","0","2","3","left","1","out","Female","Right-handed","1","yes","left","d","997.314968728","953.47089682","9","red","0"
"75","50","18","1754.75300567","1","1","0","3","1","right","1","in","Female","Right-handed","1","yes","right","s","641.133639959","961.981406832","9","red","0"
"80","60","18","1631.63064335","1","1","0","4","1","left","1","in","Female","Right-handed","1","yes","left","s","1268.6233955","1009.65899269","9","green","2"
"83","66","18","1578.30026274","1","1","0","5","0","left","1","in","Female","Right-handed","1","yes","left","d","1310.14259979","1313.15411958","9","green","3"
"85","71","18","1511.78662019","1","1","0","6","2","right","3","in","Female","Right-handed","1","yes","right","d","831.669514087","1393.74001572","9","green","0"
"87","75","18","1447.82860684","1","1","0","7","0","left","2","in","Female","Right-handed","1","yes","left","d","791.026825617","1209.21820113","9","red","3"
"88","77","18","1409.14714123","1","1","0","8","3","right","1","in","Female","Right-handed","1","yes","right","s","805.642799116","1393.74803361","9","red","0"
"90","80","18","1382.21521173","1","1","0","9","3","left","0","out","Female","Right-handed","1","yes","left","s","942.314482844","1337.34120968","9","red","3"
"90","81","18","1400.09732845","1","1","0","10","1","right","3","out","Female","Right-handed","1","yes","right","s","931.968196555","2225.86879459","9","red","0"
"91","83","18","1370.91087569","1","1","0","11","1","left","0","in","Female","Right-handed","1","yes","left","d","1058.34426706","1041.37552369","9","red","3"
"92","84","18","1370.14117976","1","1","0","12","2","right","2","in","Female","Right-handed","1","yes","right","d","1511.93238545","1209.87727175","9","green","1"
"92","78","18","1357.23334477","1","0","0","13","3","right","3","out","Female","Right-handed","1","yes","right","s","1569.51367002","809.349309676","9","red","2"
"93","80","18","1367.68230893","1","1","0","14","0","left","2","out","Female","Right-handed","1","yes","left","d","1475.00390471","1552.9317097","9","green","1"
"93","75","18","1396.78467946","1","0","0","15","2","left","2","in","Female","Right-handed","1","yes","left","d","1519.37844028","2147.26203461","9","green","3"
"94","76","18","1373.49600169","1","1","0","16","2","left","1","out","Female","Right-handed","1","yes","left","s","895.909175899","1105.84513861","9","red","3"
"94","77","18","1362.27269859","1","1","0","17","0","right","0","in","Female","Right-handed","1","yes","right","s","1405.4936022","937.459489607","9","green","1"
"94","78","18","1349.31172653","1","1","0","18","3","left","2","out","Female","Right-handed","1","yes","left","s","823.014682041","1409.01377698","9","red","0"
"95","80","18","1329.62420627","1","1","0","19","3","right","1","in","Female","Right-handed","1","yes","right","d","781.542622947","1129.58001967","9","red","3"
"95","80","18","1306.91303156","1","1","0","20","1","left","3","in","Female","Right-handed","1","yes","left","d","848.085664428","857.293410224","9","red","2"
"95","81","18","1291.18006938","1","1","0","21","2","right","3","out","Female","Right-handed","1","yes","right","s","591.716492513","1329.8592347","9","green","0"
"100","100","18","1017.79346362","1","1","1","22","2","right","0","in","Female","Right-handed","1","no","right","s","858.289552977","1177.29737427","9","red","3"
"100","100","18","815.604226647","1","1","1","23","3","left","1","in","Female","Right-handed","1","no","left","d","512.933980366","713.895998976","9","red","3"
"100","100","18","764.737177281","1","1","1","24","1","left","1","out","Female","Right-handed","1","no","left","d","620.559411449","705.446745651","9","green","3"
"100","100","18","769.825237241","1","1","1","25","1","right","3","in","Female","Right-handed","1","no","right","d","769.054597667","801.124236576","9","green","0"
"100","100","18","746.60440721","1","1","1","26","3","right","1","out","Female","Right-handed","1","no","right","d","457.718935725","849.723238446","9","green","3"
"100","100","18","733.644545092","1","1","1","27","3","right","1","out","Female","Right-handed","1","no","right","d","528.344687201","809.345781804","9","green","0"
"100","100","18","754.897339155","1","1","1","28","1","right","1","out","Female","Right-handed","1","no","right","s","834.942096396","929.886110672","9","green","2"
"100","87","18","831.591920949","1","0","1","29","3","right","1","in","Female","Right-handed","1","no","right","d","1319.48536687","1417.42262014","9","red","2"
"100","88","18","801.538422998","1","1","1","30","3","right","2","out","Female","Right-handed","1","no","right","s","560.084630441","562.136248339","9","green","0"
"100","80","18","786.747949906","1","0","1","31","2","right","3","out","Female","Right-handed","1","no","right","d","577.610777585","729.656606566","9","red","2"
"100","81","18","808.423039196","1","1","1","32","0","left","3","in","Female","Right-handed","1","no","left","s","809.124808734","1241.22305548","9","green","1"
"100","83","18","822.532258915","1","1","1","33","3","right","2","in","Female","Right-handed","1","no","right","s","825.670207474","1129.79714416","9","red","1"
"100","84","18","805.703056649","1","1","1","34","2","left","2","in","Female","Right-handed","1","no","left","d","646.105052971","561.400205964","9","red","3"
"100","85","18","809.318246076","1","1","1","35","0","right","1","out","Female","Right-handed","1","no","right","s","631.898312619","1080.73310462","9","red","0"
"100","86","18","813.760806647","1","1","1","36","2","right","1","in","Female","Right-handed","1","no","right","d","534.401081196","1217.51222809","9","red","0"
"100","87","18","818.409746773","1","1","1","37","0","right","1","in","Female","Right-handed","1","no","right","s","671.080141384","1105.20755593","9","red","0"
"100","88","18","825.193142972","1","1","1","38","2","right","1","in","Female","Right-handed","1","no","right","s","889.75977437","977.695189939","9","green","3"
"100","88","18","811.110377029","1","1","1","39","1","left","1","in","Female","Right-handed","1","no","left","s","614.20218619","529.204525811","9","green","2"
"100","89","18","800.441593354","1","1","1","40","3","right","1","out","Female","Right-handed","1","no","right","s","559.806569988","657.000404422","9","red","2"
"100","90","18","808.416003133","1","1","1","41","2","right","1","out","Female","Right-handed","1","no","right","s","566.416519164","1353.4430587","9","red","2"
"100","85","18","808.282472034","1","0","1","42","3","left","1","in","Female","Right-handed","1","no","left","d","682.109872686","929.11382743","9","green","3"
"100","81","18","822.299107154","1","0","1","43","3","right","3","out","Female","Right-handed","1","no","right","s","639.596449934","1593.70043941","9","green","2"
"100","82","18","819.682042244","1","1","1","44","0","left","1","out","Female","Right-handed","1","no","left","s","1027.09501874","497.118209688","9","red","0"
"100","83","18","815.269005314","1","1","1","45","0","left","1","out","Female","Right-handed","1","no","left","d","626.840627101","800.697684786","9","green","3"
"100","84","18","822.914894579","1","1","1","46","1","left","2","in","Female","Right-handed","1","no","left","d","643.462676878","1369.36979699","9","green","3"
"100","84","18","812.299566607","1","1","1","47","0","right","1","out","Female","Right-handed","1","no","right","s","540.87536766","552.95736695","9","red","3"
"100","85","18","815.846461976","1","1","1","48","0","left","3","in","Female","Right-handed","1","no","left","d","758.59509876","1057.53638439","9","red","1"
"100","85","18","811.430444866","1","1","1","49","2","left","3","in","Female","Right-handed","1","no","left","d","687.224966301","697.170999481","9","green","1"
"100","86","18","807.305460837","1","1","1","50","2","right","1","out","Female","Right-handed","1","no","right","d","526.789537102","856.82227896","9","red","3"
"100","86","18","805.75890352","1","1","1","51","3","left","3","out","Female","Right-handed","1","no","left","d","832.369957027","689.447525631","9","red","1"
"100","87","18","809.538733639","1","1","1","52","0","left","1","out","Female","Right-handed","1","no","left","d","956.815640147","889.051634254","9","green","2"
"100","87","18","818.808010442","1","1","1","53","1","right","0","in","Female","Right-handed","1","no","right","d","554.739263002","1657.57191968","9","green","3"
"100","87","18","829.270332771","1","1","1","54","2","left","1","in","Female","Right-handed","1","no","left","d","1087.0826327","1241.04666188","9","red","2"
"100","88","18","830.928514768","1","1","1","55","0","right","1","out","Female","Right-handed","1","no","right","s","746.651007192","1024.64603417","9","red","2"
"100","88","18","825.778989635","1","1","1","56","1","left","1","in","Female","Right-handed","1","no","left","s","556.197877696","745.192392497","9","red","3"
"100","88","18","824.906271747","1","1","1","57","1","left","3","in","Female","Right-handed","1","no","left","s","715.90464098","872.817650392","9","green","1"
"100","89","18","825.352495301","1","1","1","58","0","right","1","in","Female","Right-handed","1","no","right","s","586.363748614","1096.46933782","9","green","2"
"100","89","18","818.541597822","1","1","1","59","3","right","1","in","Female","Right-handed","1","no","right","s","475.997802456","657.078979752","9","green","3"
"100","87","18","817.031078159","1","0","1","60","2","right","3","in","Female","Right-handed","1","no","right","s","798.678459167","720.584202767","9","green","1"
"100","87","18","820.274467636","1","1","1","61","0","left","2","out","Female","Right-handed","1","no","left","d","508.234854926","1385.29845957","9","green","3"
"100","87","18","817.506359771","1","1","1","62","2","right","2","in","Female","Right-handed","1","no","right","d","740.745349543","672.818740825","9","green","1"
"100","88","18","818.552939621","1","1","1","63","1","left","3","out","Female","Right-handed","1","no","left","s","593.525649393","1129.39977749","9","red","1"
"100","88","18","815.515530129","1","1","1","64","3","right","1","out","Female","Right-handed","1","no","right","s","495.030350924","880.858312003","9","green","0"
"100","86","18","819.208920927","1","0","1","65","1","left","0","out","Female","Right-handed","1","no","left","d","491.483877465","1464.56557304","9","green","1"
"100","86","18","822.351107144","1","1","1","66","0","right","3","out","Female","Right-handed","1","no","right","d","960.076355978","961.138245435","9","red","2"
"100","86","18","822.246683142","1","1","1","67","2","right","1","in","Female","Right-handed","1","no","right","d","562.250423104","1072.84478293","9","red","0"
"100","87","18","817.40518822","1","1","1","68","2","left","2","out","Female","Right-handed","1","no","left","s","676.070797334","513.322046281","9","green","0"
"100","87","18","822.602666018","1","1","1","69","1","left","1","in","Female","Right-handed","1","no","left","d","1220.90058874","912.867656374","9","red","3"
"100","87","18","819.714001115","1","1","1","70","2","left","1","in","Female","Right-handed","1","no","left","s","481.581140894","880.535030646","9","red","3"
"100","88","18","817.900117606","1","1","1","71","1","left","1","out","Female","Right-handed","1","no","left","d","528.915881742","929.123769615","9","green","3"
"100","88","18","813.523445636","1","1","1","72","1","left","0","in","Female","Right-handed","1","no","left","d","700.639539042","488.740155233","9","red","1"
"98","88","18","823.798292096","0","1","1","73","3","left","0","out","Female","Right-handed","1","no","right","s","508.330107469","2187.30081555","9","red","1"
"98","88","18","827.298804479","1","1","1","74","0","left","2","out","Female","Right-handed","1","no","left","s","513.784518223","1504.86637864","9","red","1"
"98","88","18","825.235527918","1","1","1","75","0","left","0","out","Female","Right-handed","1","no","left","s","727.248352885","704.515387455","9","red","1"
"98","89","18","823.420658466","1","1","1","76","2","left","0","in","Female","Right-handed","1","no","left","d","761.882754704","688.952661411","9","green","1"
"98","89","18","822.014664928","1","1","1","77","2","left","1","in","Female","Right-handed","1","no","left","s","568.705145914","920.664894819","9","green","0"
"98","89","18","823.287774215","1","1","1","78","2","left","1","out","Female","Right-handed","1","no","left","d","1195.99220918","593.171579335","9","red","2"
"98","89","18","826.760897749","1","1","1","79","1","right","1","in","Female","Right-handed","1","no","right","d","752.809388758","1296.64848957","9","green","0"
"98","89","18","829.609122714","1","1","1","80","0","right","1","out","Female","Right-handed","1","no","right","s","501.23427411","1488.37806728","9","green","0"
"98","90","18","824.689269315","1","1","1","81","0","right","1","out","Female","Right-handed","1","no","right","d","491.91010854","576.925728995","9","green","3"
"98","90","18","822.56287258","1","1","1","82","1","left","2","out","Female","Right-handed","1","no","left","s","717.359407087","672.598729902","9","red","0"
"98","90","18","819.96802579","1","1","1","83","0","left","2","out","Female","Right-handed","1","no","left","s","706.122172772","617.242570382","9","red","0"
"98","90","18","828.376309253","1","1","1","84","1","left","1","in","Female","Right-handed","1","no","left","s","570.691979255","2128.68778878","9","red","0"
"98","90","18","828.084995736","1","1","1","85","3","left","2","in","Female","Right-handed","1","no","left","s","675.248482454","944.216005826","9","green","1"
"98","90","18","827.435167273","1","1","1","86","3","left","2","in","Female","Right-handed","1","no","left","d","490.854633395","1080.83765792","9","green","3"
"98","90","18","826.859831651","1","1","1","87","1","left","1","out","Female","Right-handed","1","no","left","d","818.46982082","760.456211572","9","red","2"
"98","91","18","828.936006887","1","1","1","88","0","left","1","in","Female","Right-handed","1","no","left","s","1066.86728499","865.059859969","9","red","2"
"98","91","18","827.481833393","1","1","1","89","2","left","1","out","Female","Right-handed","1","no","left","d","651.479605533","808.624813063","9","red","3"
"98","91","18","824.405114451","1","1","1","90","1","right","1","in","Female","Right-handed","1","no","right","s","702.18891626","528.187536541","9","red","0"
"98","91","18","827.254565605","1","1","1","91","3","right","0","in","Female","Right-handed","1","no","right","s","606.880889742","1440.85250064","9","red","3"
"98","91","18","830.100076332","1","1","1","92","1","right","1","in","Female","Right-handed","1","no","right","d","1306.22858622","752.343068229","9","red","2"
"98","91","18","835.840184799","1","1","1","93","3","right","3","out","Female","Right-handed","1","no","right","d","1222.93937801","1263.83639398","9","green","1"
"98","91","18","843.198144914","1","1","1","94","0","right","3","in","Female","Right-handed","1","no","right","s","825.519471127","1920.42307523","9","green","0"
"98","91","18","840.852296071","1","1","1","95","0","left","1","out","Female","Right-handed","1","no","left","d","802.073234132","537.137426969","9","green","3"
"98","92","18","840.775270174","1","1","1","96","2","right","2","in","Female","Right-handed","1","no","right","d","885.641144224","784.509563259","9","red","1"
"98","92","18","840.340111838","1","1","1","97","0","right","0","out","Female","Right-handed","1","no","right","s","543.080287631","1072.32618576","9","green","3"
"98","92","18","837.884189577","1","1","1","98","2","left","1","out","Female","Right-handed","1","no","left","s","621.795128779","680.673066654","9","green","2"
"98","92","18","840.986198348","1","1","1","99","0","right","0","in","Female","Right-handed","1","no","right","d","871.37282647","1288.30892099","9","green","1"
"98","92","18","839.213898705","1","1","1","100","1","left","2","in","Female","Right-handed","1","no","left","d","793.993765929","607.955287109","9","red","1"
"98","92","18","840.318038057","1","1","1","101","3","left","0","in","Female","Right-handed","1","no","left","s","1166.55596632","688.534127511","9","red","2"
"98","91","18","841.136124911","1","0","1","102","2","left","0","in","Female","Right-handed","1","no","left","s","908.935041294","904.231105119","9","green","1"
"98","91","18","839.655622751","1","1","1","103","2","left","0","out","Female","Right-handed","1","no","left","d","814.755613085","624.714282461","9","red","2"
"98","91","18","836.77771618","1","1","1","104","0","left","2","out","Female","Right-handed","1","no","left","s","529.268668937","672.310085833","9","green","1"
"98","91","18","842.64222673","1","1","1","105","0","right","0","in","Female","Right-handed","1","no","right","s","977.929633066","1680.86357174","9","green","2"
"98","91","18","840.075035007","1","1","1","106","2","right","3","in","Female","Right-handed","1","no","right","d","760.352941139","488.508919262","9","red","0"
"98","91","18","841.056899794","1","1","1","107","2","left","1","in","Female","Right-handed","1","no","left","d","889.019241976","960.01157142","9","green","0"
"98","91","18","838.838866896","1","1","1","108","1","right","1","out","Female","Right-handed","1","no","right","d","559.503814431","736.672261016","9","green","0"
"98","92","18","836.439676218","1","1","1","109","1","left","2","out","Female","Right-handed","1","no","left","s","567.219911823","688.200262538","9","green","1"
"98","92","18","836.428209753","1","1","1","110","1","left","3","out","Female","Right-handed","1","no","left","d","597.994821725","1072.84350007","9","green","2"
"98","92","18","835.966588629","1","1","1","111","3","right","3","out","Female","Right-handed","1","no","right","s","613.343309727","976.421307449","9","red","0"
"98","92","18","836.71446085","1","1","1","112","3","right","1","in","Female","Right-handed","1","no","right","s","695.993973112","1112.05194824","9","green","0"
"98","92","18","838.186537652","1","1","1","113","3","right","1","out","Female","Right-handed","1","no","right","d","791.646768934","1152.64428435","9","red","2"
"98","92","18","834.783121451","1","1","1","114","1","right","0","in","Female","Right-handed","1","no","right","d","555.251445866","488.086216059","9","red","2"
"98","92","18","835.400579863","1","1","1","115","3","right","0","out","Female","Right-handed","1","no","right","d","1153.87166307","631.776761394","9","green","1"
"98","92","18","833.53309641","1","1","1","116","3","right","1","out","Female","Right-handed","1","no","right","s","587.550396453","728.428907126","9","red","2"
"98","92","18","831.825578991","1","1","1","117","3","right","1","out","Female","Right-handed","1","no","right","d","795.1913181","544.031530195","9","red","0"
"100","100","18","593.311732066","1","1","2","118","0","left","0","out","Female","Right-handed","1","no","left","s","721.296512185","465.326951947","9","green","1"
"100","100","18","551.91840866","1","1","2","119","1","left","1","in","Female","Right-handed","1","no","left","s","739.95703052","281.093139989","9","green","2"
"100","100","18","536.665387011","1","1","2","120","2","left","0","in","Female","Right-handed","1","no","left","d","483.696260488","528.622426938","9","red","1"
"100","100","18","511.093834338","1","1","2","121","0","right","2","out","Female","Right-handed","1","no","right","s","539.331442608","329.42691003","9","red","1"
"100","100","18","492.577004625","1","1","2","122","0","right","1","in","Female","Right-handed","1","no","right","s","420.003739544","417.015632001","9","green","0"
"100","100","18","527.732975586","1","1","2","123","0","left","1","in","Female","Right-handed","1","no","left","d","470.427613359","936.598047419","9","green","2"
"100","100","18","538.873185786","1","1","2","124","3","left","1","in","Female","Right-handed","1","no","left","s","762.304816476","449.124077501","9","green","0"
"100","100","18","629.681746662","1","1","2","125","0","right","0","out","Female","Right-handed","1","no","right","s","697.882026037","1832.80131955","9","green","1"
"100","100","18","635.579575731","1","1","2","126","2","right","0","in","Female","Right-handed","1","no","right","s","692.209207939","673.315208623","9","green","2"
"100","100","18","639.260163559","1","1","2","127","3","left","0","out","Female","Right-handed","1","no","left","s","615.893961149","728.876946864","9","red","1"
"100","100","18","667.688748511","1","1","2","128","1","right","1","in","Female","Right-handed","1","no","right","d","1103.50038662","800.448809456","9","green","2"
"100","100","18","685.599325578","1","1","2","129","1","right","0","in","Female","Right-handed","1","no","right","d","748.054138082","1017.17720854","9","red","1"
"100","100","18","690.414655954","1","1","2","130","3","right","1","in","Female","Right-handed","1","no","right","d","687.653763101","808.743477847","9","red","2"
"100","100","18","704.110644327","1","1","2","131","0","left","0","out","Female","Right-handed","1","no","left","d","1259.20493953","505.112046817","9","green","3"
"100","100","18","712.858505288","1","1","2","132","2","right","1","out","Female","Right-handed","1","no","right","s","677.82158397","992.835533496","9","red","2"
"100","100","18","711.679894048","1","1","2","133","1","right","1","out","Female","Right-handed","1","no","right","s","555.494227599","832.507223318","9","red","3"
"100","100","18","707.706574023","1","1","2","134","0","left","1","in","Female","Right-handed","1","no","left","d","727.108520869","561.158386377","9","red","2"
"100","100","18","697.282519434","1","1","2","135","2","right","3","out","Female","Right-handed","1","no","right","d","511.543998817","528.603184","9","green","1"
"100","100","18","695.039548711","1","1","2","136","2","left","0","in","Female","Right-handed","1","no","left","d","525.057351973","784.274799416","9","green","1"
"100","100","18","706.482841553","1","1","2","137","3","left","1","in","Female","Right-handed","1","no","left","d","710.951188043","1136.85962309","9","green","0"
"100","100","18","700.771765515","1","1","2","138","1","left","0","in","Female","Right-handed","1","no","left","s","476.492987392","696.607502116","9","green","3"
"100","100","18","706.990852928","1","1","2","139","3","left","2","out","Female","Right-handed","1","no","left","s","834.108556469","841.074820712","9","red","1"
"100","100","18","705.306809054","1","1","2","140","0","right","1","out","Female","Right-handed","1","no","right","s","535.709600975","800.80608667","9","green","3"
"100","100","18","704.701282253","1","1","2","141","0","right","3","in","Female","Right-handed","1","no","right","d","901.30361283","480.244718856","9","green","0"
"100","100","18","704.869348469","1","1","2","142","3","left","1","in","Female","Right-handed","1","no","left","d","824.879964157","592.925911161","9","red","0"
"100","96","18","703.068503552","1","0","2","143","0","right","3","in","Female","Right-handed","1","no","right","s","683.558865911","632.535895295","9","red","1"
"100","96","18","704.476759039","1","1","2","144","1","left","3","out","Female","Right-handed","1","no","left","s","657.082186909","825.100616511","9","red","0"
"100","96","18","698.557682241","1","1","2","145","1","left","2","out","Female","Right-handed","1","no","left","s","580.75443221","496.730785205","9","red","0"
"100","93","18","690.547115764","1","0","2","146","2","right","2","in","Female","Right-handed","1","no","right","s","532.118868759","400.383640039","9","red","1"
"100","90","18","690.957086003","1","0","2","147","2","left","1","out","Female","Right-handed","1","no","left","d","812.77647692","592.915968976","9","red","0"
"100","87","18","682.557198573","1","0","2","148","0","left","3","out","Female","Right-handed","1","no","left","s","508.561343439","352.559807853","9","red","2"
"100","87","18","682.403753439","1","1","2","149","1","left","1","out","Female","Right-handed","1","no","left","d","731.06166175","624.232246866","9","green","0"
"100","87","18","680.278406632","1","1","2","150","2","left","1","in","Female","Right-handed","1","no","left","s","799.795832429","424.738785136","9","red","3"
"100","85","18","674.090406605","1","0","2","151","0","right","1","out","Female","Right-handed","1","no","right","s","531.266406609","408.506404851","9","red","0"
"100","82","18","686.443822144","1","0","2","152","0","left","2","out","Female","Right-handed","1","no","left","s","564.020773393","1648.89912756","9","green","0"
"100","83","18","682.568389134","1","1","2","153","3","left","1","out","Female","Right-handed","1","no","left","d","541.376966909","552.479500659","9","green","3"
"100","83","18","681.976212279","1","1","2","154","3","right","3","in","Female","Right-handed","1","no","right","s","953.088603787","368.227087193","9","red","1"
"100","84","18","684.154633177","1","1","2","155","0","left","1","in","Female","Right-handed","1","no","left","s","736.690221091","792.822191726","9","red","3"
"100","84","18","682.081078178","1","1","2","156","1","right","2","out","Female","Right-handed","1","no","right","s","574.190345369","632.381631077","9","green","3"
"100","85","18","678.066714945","1","1","2","157","1","left","1","in","Female","Right-handed","1","no","left","s","570.001478499","473.011619207","9","red","2"
"100","85","18","683.894236683","1","1","2","158","3","right","1","in","Female","Right-handed","1","no","right","d","889.52629339","944.46391901","9","red","2"
"100","85","18","680.675380388","1","1","2","159","2","right","1","out","Female","Right-handed","1","no","right","s","505.156305574","592.248239031","9","green","3"
"100","86","18","680.006433108","1","1","2","160","0","left","1","out","Female","Right-handed","1","no","left","s","518.800510708","785.020783976","9","green","3"
"100","86","18","678.153408025","1","1","2","161","2","right","1","in","Female","Right-handed","1","no","right","d","428.442409254","768.504249643","9","green","3"
"100","86","18","674.061317907","1","1","2","162","1","left","1","in","Female","Right-handed","1","no","left","d","492.065976337","495.952729082","9","green","3"
"100","86","18","672.161270294","1","1","2","163","3","right","1","out","Female","Right-handed","1","no","right","d","628.554210723","544.764044699","9","green","2"
"100","87","18","671.874441413","1","1","2","164","2","right","2","in","Female","Right-handed","1","no","right","s","909.088343366","408.27228244","9","red","1"
"100","87","18","669.865394179","1","1","2","165","3","right","1","out","Female","Right-handed","1","no","right","d","566.809395813","584.070952561","9","green","2"
"100","87","18","671.642624241","1","1","2","166","3","left","2","in","Female","Right-handed","1","no","left","s","953.469293242","560.430041177","9","green","0"
"100","88","18","672.512851877","1","1","2","167","0","right","1","out","Female","Right-handed","1","no","right","s","478.170971579","952.137040507","9","red","0"
"100","88","18","670.910385343","1","1","2","168","2","right","3","in","Female","Right-handed","1","no","right","d","524.784743685","656.789373536","9","green","0"
"100","88","18","667.265259779","1","1","2","169","1","right","1","out","Female","Right-handed","1","no","right","s","466.388199974","496.339512134","9","green","3"
"100","88","18","665.86482716","1","1","2","170","3","left","3","in","Female","Right-handed","1","no","left","s","721.940509174","464.144152696","9","green","1"
"100","88","18","663.510005241","1","1","2","171","3","left","2","in","Female","Right-handed","1","no","left","s","532.621109439","544.787777656","9","red","1"
"100","89","18","664.777656453","1","1","2","172","1","right","0","out","Female","Right-handed","1","no","right","s","1042.21259149","424.249052365","9","red","2"
"100","89","18","662.877108894","1","1","2","173","3","left","3","out","Female","Right-handed","1","no","left","s","548.898389911","567.795596382","9","red","2"
"100","87","18","663.107373022","1","0","2","174","1","left","2","out","Female","Right-handed","1","no","left","d","527.519165165","824.485163214","9","green","1"
"100","87","18","660.969564496","1","1","2","175","2","left","2","in","Female","Right-handed","1","no","left","s","614.013284683","464.215672283","9","red","3"
"100","88","18","660.678186471","1","1","2","176","3","right","0","out","Female","Right-handed","1","no","right","d","438.733853171","848.822668951","9","green","3"
"100","88","18","657.388213765","1","1","2","177","1","left","0","in","Female","Right-handed","1","no","left","s","550.178686714","376.380961422","9","green","1"
"100","88","18","658.593109797","1","1","2","178","2","right","1","in","Female","Right-handed","1","no","right","d","757.876054313","703.897689148","9","red","2"
"100","88","18","657.486746401","1","1","2","179","3","left","1","out","Female","Right-handed","1","no","left","d","659.489478443","520.507680017","9","red","0"
"100","88","18","655.418026584","1","1","2","180","0","right","1","in","Female","Right-handed","1","no","right","s","541.99658951","512.318206353","9","red","2"
"100","87","18","652.50176133","1","0","2","181","2","right","1","in","Female","Right-handed","1","no","right","s","553.762042471","383.792058247","9","red","0"
"100","87","18","649.921931648","1","1","2","182","2","left","1","out","Female","Right-handed","1","no","left","d","449.330297653","520.295366269","9","green","2"
"100","87","18","650.984194638","1","1","2","183","1","left","3","in","Female","Right-handed","1","no","left","s","735.983363839","704.079214195","9","red","2"
"100","88","18","650.994764873","1","1","2","184","1","right","3","out","Female","Right-handed","1","no","right","s","831.704792807","471.680007903","9","green","1"
"100","88","18","649.592486455","1","1","2","185","3","right","1","in","Female","Right-handed","1","no","right","d","511.097562657","600.182102335","9","green","3"
"100","88","18","648.377283716","1","1","2","186","0","left","2","out","Female","Right-handed","1","no","left","s","515.755636497","615.731358324","9","green","1"
"100","88","18","649.022280069","1","1","2","187","3","right","0","in","Female","Right-handed","1","no","right","d","858.552539795","528.501517145","9","green","2"
"100","88","18","647.954358028","1","1","2","188","3","right","1","out","Female","Right-handed","1","no","right","d","602.142636995","544.256993284","9","green","3"
"100","88","18","645.679634821","1","1","2","189","2","left","3","out","Female","Right-handed","1","no","left","d","576.637726357","391.710847918","9","green","1"
"100","89","18","644.737479779","1","1","2","190","2","left","1","out","Female","Right-handed","1","no","left","s","625.378484535","528.426148972","9","red","0"
"100","89","18","643.24114689","1","1","2","191","1","left","1","out","Female","Right-handed","1","no","left","s","667.979783369","400.037908588","9","red","3"
"100","89","18","645.524750106","1","1","2","192","1","right","1","in","Female","Right-handed","1","no","right","d","509.478269431","1119.54450683","9","red","0"
"100","89","18","653.013134757","1","1","2","193","3","right","0","out","Female","Right-handed","1","no","right","d","885.189897329","1544.09406974","9","green","1"
"100","89","18","658.82138613","1","1","2","194","3","left","1","out","Female","Right-handed","1","no","left","s","696.677738839","1503.8192421","9","green","3"
"100","89","18","660.334115954","1","1","2","195","1","right","1","in","Female","Right-handed","1","no","right","d","649.271157691","904.357467078","9","green","0"
"100","89","18","661.878645484","1","1","2","196","2","left","1","in","Female","Right-handed","1","no","left","d","788.80779416","775.896103529","9","green","3"
"100","90","18","659.935130854","1","1","2","197","0","right","1","out","Female","Right-handed","1","no","right","d","461.400109749","551.394840391","9","red","3"
"100","90","18","658.067304567","1","1","2","198","2","right","2","out","Female","Right-handed","1","no","right","d","473.020599244","544.261804019","9","red","0"
"100","90","18","656.960103765","1","1","2","199","0","right","3","in","Female","Right-handed","1","no","right","d","678.724719189","455.828958505","9","red","1"
"100","90","18","654.928981368","1","1","2","200","2","right","1","in","Female","Right-handed","1","no","right","s","504.37760802","472.376281539","9","green","2"
"100","90","18","653.150713424","1","1","2","201","2","right","0","out","Female","Right-handed","1","no","right","d","531.002457644","480.106490418","9","red","3"
"100","90","18","650.720275429","1","1","2","202","0","right","1","in","Female","Right-handed","1","no","right","s","469.409982659","423.716985132","9","green","0"
"100","90","18","647.580738314","1","1","2","203","3","right","2","out","Female","Right-handed","1","no","right","s","457.212846457","304.227320674","9","red","3"
"100","90","18","650.119183274","1","1","2","204","0","left","0","in","Female","Right-handed","1","no","left","d","1232.8979191","503.952980523","9","red","2"
"100","90","18","650.623542621","1","1","2","205","1","left","1","in","Female","Right-handed","1","no","left","d","845.478887771","543.52672379","9","red","2"
"100","91","18","650.499929185","1","1","2","206","0","left","1","out","Female","Right-handed","1","no","left","s","559.10965492","720.134238735","9","red","2"
"100","91","18","651.451988353","1","1","2","207","1","left","1","out","Female","Right-handed","1","no","left","d","856.577893649","615.792615009","9","red","0"
"100","91","18","649.247424734","1","1","2","208","0","left","2","in","Female","Right-handed","1","no","left","s","534.271191366","367.402206588","9","green","3"
"100","91","18","646.98948036","1","1","2","209","3","left","3","out","Female","Right-handed","1","no","left","s","539.031573492","344.001511212","9","green","0"
"100","90","18","649.797298582","1","0","2","210","1","right","2","in","Female","Right-handed","1","no","right","s","848.593677989","967.639472012","9","green","1"
"100","90","18","648.551417222","1","1","2","211","2","right","3","out","Female","Right-handed","1","no","right","s","681.25708982","384.111811732","9","red","2"
"100","90","18","652.001553344","1","1","2","212","1","right","3","out","Female","Right-handed","1","no","right","d","1424.81928476","527.809412811","9","red","1"
"100","89","18","652.572935145","1","0","2","213","2","left","1","in","Female","Right-handed","1","no","left","s","750.260982346","663.447430057","9","red","0"
"100","0","18","681.620300273","1","0","3","214","0","right","0","in","Female","Right-handed","1","no","right","s","795.153794371","568.086806176","9","red","1"
"100","50","18","595.40993391","1","1","3","215","3","left","1","in","Female","Right-handed","1","no","left","d","521.717098665","496.682036428","9","green","2"
"100","66","18","531.57375909","1","1","3","216","2","right","0","out","Female","Right-handed","1","no","right","s","511.407373958","296.39544494","9","green","3"
"100","75","18","583.587794461","1","1","3","217","0","right","1","in","Female","Right-handed","1","no","right","s","462.089327642","1017.17047351","9","red","0"
"100","80","18","571.512273627","1","1","3","218","0","right","1","out","Female","Right-handed","1","no","right","d","445.667083704","600.753296877","9","green","2"
"100","83","18","570.645154773","1","1","3","219","1","right","2","in","Female","Right-handed","1","no","right","d","628.269094527","504.350026475","9","green","1"
"100","85","18","562.6855884","1","1","3","220","2","right","1","out","Female","Right-handed","1","no","right","s","548.870166935","480.986213397","9","green","0"
"100","87","18","552.683255309","1","1","3","221","1","right","1","in","Female","Right-handed","1","no","right","s","412.629845733","552.704001601","9","red","3"
"100","88","18","569.290843929","1","1","3","222","1","right","2","out","Female","Right-handed","1","no","right","d","452.148425912","952.154679867","9","green","0"
"100","90","18","565.491014029","1","1","3","223","3","left","1","out","Female","Right-handed","1","no","left","d","541.772729999","520.812359867","9","green","0"
"100","90","18","566.705338169","1","1","3","224","1","left","1","out","Female","Right-handed","1","no","left","d","437.361190266","720.335968867","9","red","3"
"100","91","18","593.307536037","1","1","3","225","1","right","0","out","Female","Right-handed","1","no","right","d","859.94797351","911.915451662","9","green","2"
"100","92","18","604.174506211","1","1","3","226","3","left","0","out","Female","Right-handed","1","no","left","s","620.55492143","848.601375164","9","green","1"
"100","92","18","592.894320671","1","1","3","227","2","left","1","out","Female","Right-handed","1","no","left","s","468.211468342","424.292348976","9","red","2"
"100","93","18","586.196751984","1","1","3","228","0","left","1","in","Female","Right-handed","1","no","left","s","456.964291842","527.897288895","9","green","0"
"100","93","18","583.435213999","1","1","3","229","3","left","3","out","Female","Right-handed","1","no","left","s","499.374123444","584.650164992","9","green","0"
"100","94","18","582.384780692","1","1","3","230","0","left","0","out","Female","Right-handed","1","no","left","s","651.088011746","480.067683827","9","red","1"
"100","94","18","595.54004646","1","1","3","231","2","right","3","out","Female","Right-handed","1","no","right","d","829.558243081","808.800885945","9","red","2"
"100","94","18","600.632420843","1","1","3","232","0","left","0","in","Female","Right-handed","1","no","left","s","520.24308962","864.347229835","9","red","2"
"100","90","18","594.219285144","1","0","3","233","1","right","1","in","Female","Right-handed","1","no","right","s","432.79387895","511.945534789","9","red","3"
"100","90","18","591.04639538","1","1","3","234","2","left","3","out","Female","Right-handed","1","no","left","d","622.627065128","432.55013507","9","green","1"
"100","86","18","582.480472718","1","0","3","235","0","right","2","out","Female","Right-handed","1","no","right","s","485.098429231","320.093764422","9","red","0"
"100","86","18","588.92860216","1","1","3","236","1","right","1","out","Female","Right-handed","1","no","right","d","453.849180908","1007.72571886","9","green","0"
"100","87","18","586.280008426","1","1","3","237","3","left","0","out","Female","Right-handed","1","no","left","d","498.307743967","552.41696111","9","red","1"
"100","84","18","578.82797038","1","0","3","238","2","left","1","out","Female","Right-handed","1","no","left","s","448.016004992","351.942109546","9","green","2"
"100","84","18","571.360825538","1","1","3","239","3","right","0","out","Female","Right-handed","1","no","right","s","416.760021642","352.604387326","9","red","3"
"100","85","18","570.394800587","1","1","3","240","2","left","1","in","Female","Right-handed","1","no","left","d","474.151763278","616.404540435","9","green","3"
"100","85","18","575.216996197","1","1","3","241","3","left","1","in","Female","Right-handed","1","no","left","s","970.960161666","439.872393664","9","green","2"
"100","86","18","572.726665579","1","1","3","242","1","left","1","in","Female","Right-handed","1","no","left","s","549.430777861","456.564038734","9","red","2"
"100","83","18","577.823326524","1","0","3","243","0","right","3","in","Female","Right-handed","1","no","right","s","851.05773619","600.195251677","9","green","1"
"100","83","18","576.305051136","1","1","3","244","2","right","1","out","Female","Right-handed","1","no","right","d","405.754344013","655.759234926","9","red","3"
"100","81","18","584.479494164","1","0","3","245","1","left","0","in","Female","Right-handed","1","no","left","s","827.419069816","848.355386275","9","red","1"
"100","81","18","579.734959824","1","1","3","246","1","right","2","out","Female","Right-handed","1","no","right","s","479.835806425","375.98391547","9","green","1"
"100","82","18","587.788131631","1","1","3","247","3","left","3","out","Female","Right-handed","1","no","left","d","563.543869248","1143.54173328","9","red","2"
"100","82","18","596.257001165","1","1","3","248","1","left","1","out","Female","Right-handed","1","no","left","d","640.179510954","1128.21761967","9","red","0"
"100","83","18","591.577270748","1","1","3","249","2","left","2","in","Female","Right-handed","1","no","left","s","447.788296894","407.785115395","9","red","1"
"100","83","18","600.392205747","1","1","3","250","3","right","2","out","Female","Right-handed","1","no","right","d","467.217249883","1368.24248154","9","red","1"
"100","84","18","594.735667273","1","1","3","251","3","right","3","out","Female","Right-handed","1","no","right","s","482.890943536","287.996543968","9","red","1"
"100","84","18","589.46351865","1","1","3","252","0","right","1","in","Female","Right-handed","1","no","right","s","426.63870454","351.605037417","9","green","0"
"100","85","18","588.27050327","1","1","3","253","3","left","1","out","Female","Right-handed","1","no","left","s","643.305526219","440.180280671","9","green","3"
"100","85","18","584.017271804","1","1","3","254","0","left","2","out","Female","Right-handed","1","no","left","s","507.87180483","319.904221484","9","red","1"
"100","85","18","582.032102199","1","1","3","255","0","right","1","out","Female","Right-handed","1","no","right","d","417.679192644","583.601104159","9","red","3"
"100","86","18","584.699148711","1","1","3","256","2","left","0","out","Female","Right-handed","1","no","left","d","849.224204922","544.205999499","9","green","1"
"100","86","18","587.678026696","1","1","3","257","3","left","1","in","Female","Right-handed","1","no","left","d","831.862264182","599.677295931","9","red","0"
"100","86","18","588.893631917","1","1","3","258","3","left","1","in","Female","Right-handed","1","no","left","s","885.427868328","399.332654912","9","green","2"
"100","86","18","586.711006951","1","1","3","259","1","right","0","in","Female","Right-handed","1","no","right","s","456.958198245","520.027568716","9","green","1"
"100","87","18","583.891443927","1","1","3","260","0","left","3","in","Female","Right-handed","1","no","left","s","628.70943709","279.673652601","9","green","2"
"100","87","18","581.023639575","1","1","3","261","0","left","1","out","Female","Right-handed","1","no","left","s","452.185949641","440.287720408","9","red","3"
"100","87","18","579.257024014","1","1","3","262","3","right","0","in","Female","Right-handed","1","no","right","s","652.937578796","335.981375402","9","red","2"
"100","88","18","581.284950387","1","1","3","263","2","left","1","out","Female","Right-handed","1","no","left","d","433.652113981","927.654571304","9","green","3"
"100","86","18","580.860809183","1","0","3","264","0","left","3","in","Female","Right-handed","1","no","left","s","687.223362722","432.084135255","9","red","1"
"100","86","18","581.724390382","1","1","3","265","0","left","1","in","Female","Right-handed","1","no","left","d","763.724624579","487.809438468","9","red","2"
"100","86","18","579.206809851","1","1","3","266","1","right","2","in","Female","Right-handed","1","no","right","d","440.219728693","456.365515757","9","green","3"
"100","87","18","582.480672221","1","1","3","267","1","right","3","out","Female","Right-handed","1","no","right","s","575.9943708","935.996384894","9","green","1"
"100","87","18","584.764832493","1","1","3","268","0","left","1","out","Female","Right-handed","1","no","left","d","456.505668489","959.713305883","9","green","3"
"100","87","18","585.834144018","1","1","3","269","2","right","0","in","Female","Right-handed","1","no","right","s","706.119927762","583.172628076","9","green","1"
"100","87","18","588.38470441","1","1","3","270","1","right","1","out","Female","Right-handed","1","no","right","d","478.557433916","983.874738737","9","red","3"
"100","87","18","590.746905567","1","1","3","271","1","left","1","in","Female","Right-handed","1","no","left","d","1075.40986656","375.374876485","9","red","2"
"100","88","18","590.234832498","1","1","3","272","3","left","1","out","Female","Right-handed","1","no","left","s","504.973176948","616.096011997","9","red","3"
"100","88","18","590.351024328","1","1","3","273","2","right","2","in","Female","Right-handed","1","no","right","s","458.647728195","735.764956493","9","green","3"
"100","88","18","606.133669638","1","1","3","274","1","left","1","in","Female","Right-handed","1","no","left","s","835.16723877","2271.01753769","9","green","0"
"100","87","18","605.13469141","1","0","3","275","1","right","3","in","Female","Right-handed","1","no","right","d","656.807333612","431.58670531","9","red","1"
"100","87","18","607.898830977","1","1","3","276","0","right","1","in","Female","Right-handed","1","no","right","s","703.263955059","855.287013229","9","green","2"
"100","87","18","604.369533502","1","1","3","277","3","left","1","out","Female","Right-handed","1","no","left","s","468.000758172","296.046827049","9","green","3"
"100","87","18","601.897797747","1","1","3","278","2","right","1","in","Female","Right-handed","1","no","right","s","415.725713729","471.687705077","9","red","0"
"100","87","18","598.571135568","1","1","3","279","1","right","3","out","Female","Right-handed","1","no","right","s","461.295556453","303.380631405","9","green","2"
"100","88","18","598.546871458","1","1","3","280","1","right","1","out","Female","Right-handed","1","no","right","d","441.92048369","751.970396664","9","red","2"
"100","88","18","600.319208269","1","1","3","281","2","right","2","in","Female","Right-handed","1","no","right","d","454.513062267","983.618486946","9","red","1"
"100","86","18","598.607569857","1","0","3","282","2","right","1","in","Female","Right-handed","1","no","right","s","533.110842209","431.321473483","9","green","3"
"100","87","18","602.665357658","1","1","3","283","3","left","1","out","Female","Right-handed","1","no","left","d","589.682513975","1175.62291795","9","red","0"
"100","87","18","600.619122556","1","1","3","284","0","right","3","in","Female","Right-handed","1","no","right","s","571.389215039","343.37611573","9","red","0"
"100","87","18","599.8882845","1","1","3","285","2","left","1","in","Female","Right-handed","1","no","left","d","536.05725672","559.940308406","9","green","2"
"100","87","18","597.556348539","1","1","3","286","3","left","2","in","Female","Right-handed","1","no","left","s","547.649843956","311.66407475","9","red","1"
"100","87","18","599.241894123","1","1","3","287","2","left","1","out","Female","Right-handed","1","no","left","d","525.234707717","919.338735682","9","green","0"
"100","88","18","598.283713814","1","1","3","288","2","left","3","in","Female","Right-handed","1","no","left","d","598.870696116","455.886045887","9","green","0"
"100","88","18","599.062562133","1","1","3","289","1","right","3","out","Female","Right-handed","1","no","right","d","427.543764053","887.408608072","9","green","0"
"100","88","18","596.024548974","1","1","3","290","3","right","2","in","Female","Right-handed","1","no","right","s","403.171300312","327.099797403","9","green","0"
"100","88","18","596.700966463","1","1","3","291","1","left","1","out","Female","Right-handed","1","no","left","s","665.760751911","631.809474388","9","red","2"
"100","88","18","597.956977281","1","1","3","292","2","left","3","in","Female","Right-handed","1","no","left","d","520.328399979","871.523242102","9","red","1"
"100","87","18","598.812486229","1","0","3","293","0","left","1","out","Female","Right-handed","1","no","left","s","693.832349753","638.963036561","9","red","2"
"100","87","18","597.938779638","1","1","3","294","2","right","2","in","Female","Right-handed","1","no","right","s","632.561552546","423.522952175","9","red","0"
"100","87","18","597.703963936","1","1","3","295","1","left","0","in","Female","Right-handed","1","no","left","d","526.153237288","631.214546892","9","green","3"
"100","87","18","597.163039938","1","1","3","296","0","right","2","out","Female","Right-handed","1","no","right","s","545.859288583","559.755255487","9","red","1"
"100","86","18","595.077355618","1","0","3","297","3","right","2","out","Female","Right-handed","1","no","right","s","404.394189017","439.536925113","9","red","3"
"100","87","18","595.240723399","1","1","3","298","0","right","2","out","Female","Right-handed","1","no","right","d","498.994396135","718.932837977","9","green","3"
"100","86","18","593.216923305","1","0","3","299","2","left","0","out","Female","Right-handed","1","no","left","s","522.605801682","319.782028828","9","green","2"
"100","86","18","591.269838856","1","1","3","300","3","left","1","in","Female","Right-handed","1","no","left","s","496.268313263","351.372839299","9","green","2"
"100","86","18","589.879898046","1","1","3","301","2","right","1","out","Female","Right-handed","1","no","right","s","577.973506965","359.936588105","9","green","0"
"100","85","18","596.168506559","1","0","3","302","0","left","1","in","Female","Right-handed","1","no","left","s","515.62991597","1783.50219546","9","green","3"
"100","85","18","596.634041334","1","1","3","303","0","left","1","in","Female","Right-handed","1","no","left","d","661.037572799","615.095699942","9","red","0"
"100","85","18","596.32070551","1","1","3","304","3","right","3","in","Female","Right-handed","1","no","right","s","696.569978388","439.670984246","9","red","1"
"100","85","18","594.206641976","1","1","3","305","3","right","1","out","Female","Right-handed","1","no","right","s","436.346446006","367.307274761","9","red","3"
"100","86","18","593.790274275","1","1","3","306","3","left","1","in","Female","Right-handed","1","no","left","s","655.929214212","455.039677334","9","red","0"
"100","86","18","592.516800842","1","1","3","307","2","right","1","in","Female","Right-handed","1","no","right","s","524.577240671","423.590302458","9","red","2"
"100","86","18","591.292155348","1","1","3","308","0","right","0","in","Female","Right-handed","1","no","right","s","465.166594131","487.184363702","9","green","3"
"100","86","18","588.720151597","1","1","3","309","1","right","1","in","Female","Right-handed","1","no","right","s","377.802052388","310.957538212","9","green","0"
"100","100","18","497.345917787","1","1","4","310","3","right","3","out","Female","Right-handed","1","no","right","d","506.287790324","488.404045251","9","green","1"
"100","100","18","450.688608533","1","1","4","311","1","left","2","in","Female","Right-handed","1","no","left","s","432.011332808","376.051265751","9","red","0"
"100","100","18","452.851808745","1","1","4","312","0","left","1","in","Female","Right-handed","1","no","left","s","594.649436967","319.70698137","9","green","3"
"100","100","18","466.317562356","1","1","4","313","2","left","3","in","Female","Right-handed","1","no","left","s","685.17655556","328.253090816","9","green","0"
"100","100","18","468.746742732","1","1","4","314","2","left","1","in","Female","Right-handed","1","no","left","s","492.949868619","463.977059852","9","red","0"
"100","100","18","477.796055005","1","1","4","315","3","right","0","out","Female","Right-handed","1","no","right","s","694.535037702","351.550195043","9","red","2"
"100","100","18","485.337706001","1","1","4","316","2","right","1","out","Female","Right-handed","1","no","right","s","701.023756369","360.151467578","9","green","2"
"100","100","18","506.077160332","1","1","4","317","3","left","0","in","Female","Right-handed","1","no","left","d","550.693756019","751.812925288","9","green","3"
"100","100","18","500.378088095","1","1","4","318","2","left","2","in","Female","Right-handed","1","no","left","s","549.135719479","360.435300913","9","green","1"
"100","100","18","494.954774285","1","1","4","319","2","left","1","out","Female","Right-handed","1","no","left","s","468.07580563","424.214094363","9","red","0"
"100","100","18","515.734338063","1","1","4","320","3","right","3","out","Female","Right-handed","1","no","right","d","647.56334695","799.496604744","9","red","1"
"100","100","18","519.320684736","1","1","4","321","0","right","1","out","Female","Right-handed","1","no","right","s","605.266727967","512.274268311","9","red","0"
"100","100","18","523.827136149","1","1","4","322","0","left","1","out","Female","Right-handed","1","no","left","d","539.833041856","615.976064351","9","red","0"
"100","100","18","526.01830764","1","1","4","323","1","right","3","out","Female","Right-handed","1","no","right","s","709.549981447","399.457092579","9","red","1"
"100","100","18","524.785000258","1","1","4","324","3","right","1","out","Female","Right-handed","1","no","right","d","478.949348418","536.088045421","9","red","3"
"100","100","18","530.598135455","1","1","4","325","1","left","0","out","Female","Right-handed","1","no","left","s","899.721843331","335.868483499","9","green","2"
"100","100","18","528.532551099","1","1","4","326","1","right","1","in","Female","Right-handed","1","no","right","s","415.535529359","575.430873433","9","green","0"
"100","100","18","533.867454929","1","1","4","327","2","right","1","in","Female","Right-handed","1","no","right","d","600.990626444","648.131013619","9","green","3"
"100","100","18","530.165794959","1","1","4","328","0","right","3","out","Female","Right-handed","1","no","right","s","647.606964276","279.464866725","9","green","1"
"100","100","18","543.972510501","1","1","4","329","3","left","0","in","Female","Right-handed","1","no","left","d","764.301912716","848.298298893","9","red","1"
"100","100","18","544.109868806","1","1","4","330","2","left","2","out","Female","Right-handed","1","no","left","d","605.793022319","487.921047508","9","green","0"
"100","100","18","567.831013592","1","1","4","331","0","left","2","out","Female","Right-handed","1","no","left","d","452.53103966","1679.41906853","9","green","0"
"100","100","18","563.143420921","1","1","4","332","2","right","0","out","Female","Right-handed","1","no","right","s","504.028669411","416.004094897","9","red","3"
"100","100","18","563.75246804","1","1","4","333","1","left","2","out","Female","Right-handed","1","no","left","d","515.628633107","639.892470464","9","green","3"
"100","100","18","565.847293818","1","1","4","334","3","right","1","out","Female","Right-handed","1","no","right","s","649.03479027","583.211434667","9","red","2"
"100","100","18","566.19731003","1","1","4","335","0","left","1","out","Female","Right-handed","1","no","left","d","413.976530671","735.918899996","9","red","3"
"100","100","18","565.505282905","1","1","4","336","3","left","1","in","Female","Right-handed","1","no","left","s","631.474647269","463.550508061","9","green","0"
"100","100","18","563.737673123","1","1","4","337","0","right","3","out","Female","Right-handed","1","no","right","d","440.014149974","592.010268032","9","red","0"
"100","96","18","560.135015973","1","0","4","338","0","right","1","in","Female","Right-handed","1","no","right","s","510.740606159","407.780625376","9","green","2"
"100","96","18","573.959937914","1","1","4","339","0","left","0","out","Female","Right-handed","1","no","left","d","670.280918029","1279.48443038","9","green","1"
"100","96","18","589.426469098","1","1","4","340","2","right","3","in","Female","Right-handed","1","no","right","d","683.026157247","1423.81865199","9","green","2"
"100","96","18","594.75643572","1","1","4","341","3","left","2","in","Female","Right-handed","1","no","left","d","736.503564593","783.467237455","9","red","1"
"100","93","18","597.340829099","1","0","4","342","2","right","1","in","Female","Right-handed","1","no","right","d","769.071595596","591.011238837","9","red","2"
"100","94","18","602.954797452","1","1","4","343","1","left","1","out","Female","Right-handed","1","no","left","s","808.635717394","767.795788812","9","red","0"
"100","94","18","602.335070955","1","1","4","344","3","right","1","in","Female","Right-handed","1","no","right","s","627.211374372","535.317365758","9","green","3"
"100","94","18","613.377853474","1","1","4","345","3","left","0","in","Female","Right-handed","1","no","left","d","911.840724919","1087.90975832","9","green","1"
"100","94","18","608.933335433","1","1","4","346","0","right","1","out","Female","Right-handed","1","no","right","s","418.417480028","479.443891922","9","red","0"
"100","94","18","606.01681431","1","1","4","347","0","left","0","out","Female","Right-handed","1","no","left","s","605.134913841","391.076151682","9","red","1"
"100","92","18","634.721313288","1","0","4","348","0","left","3","out","Female","Right-handed","1","no","left","None","450.802382404","3000.18216648","9","green","1"
"100","92","18","628.744631621","1","1","4","349","2","left","2","out","Female","Right-handed","1","no","left","s","464.108873976","327.19921925","9","green","3"
"100","92","18","629.539742483","1","1","4","350","1","left","1","in","Female","Right-handed","1","no","left","d","738.82843221","583.859921675","9","red","0"
"100","92","18","629.730656751","1","1","4","351","3","left","1","in","Female","Right-handed","1","no","left","d","507.527035526","767.589247944","9","green","0"
"100","93","18","627.018083536","1","1","4","352","0","left","1","out","Female","Right-handed","1","no","left","d","515.11003593","511.069981113","9","green","2"
"100","93","18","623.624895283","1","1","4","353","0","left","1","in","Female","Right-handed","1","no","left","d","491.683041872","463.75255891","9","green","0"
"100","93","18","625.097826286","1","1","4","354","3","right","3","in","Female","Right-handed","1","no","right","s","564.41012217","815.403458662","9","green","2"
"100","93","18","627.42154072","1","1","4","355","1","left","1","in","Female","Right-handed","1","no","left","d","536.994708512","926.982672056","9","red","3"
"100","93","18","626.425658604","1","1","4","356","1","left","1","in","Female","Right-handed","1","no","left","s","745.646525832","415.583636703","9","red","3"
"100","93","18","623.78663254","1","1","4","357","2","left","1","out","Female","Right-handed","1","no","left","d","488.272231126","511.232583938","9","green","0"
"100","93","18","621.032247741","1","1","4","358","2","right","1","in","Female","Right-handed","1","no","right","d","481.802434681","495.841120041","9","red","3"
"100","94","18","632.800883379","1","1","4","359","3","right","3","in","Female","Right-handed","1","no","right","d","667.465355496","1751.46270382","9","green","0"
"100","92","18","630.17647843","1","0","4","360","3","left","1","out","Female","Right-handed","1","no","left","s","479.060957458","518.851504493","9","green","3"
"100","92","18","626.262780795","1","1","4","361","3","left","2","in","Female","Right-handed","1","no","left","d","397.69476018","455.633642685","9","red","3"
"100","92","18","627.951086824","1","1","4","362","1","left","0","out","Female","Right-handed","1","no","left","d","784.210335576","647.275665028","9","red","1"
"100","92","18","624.172032506","1","1","4","363","2","right","1","in","Female","Right-handed","1","no","right","s","384.757733015","463.00657435","9","red","0"
"100","90","18","622.787443353","1","0","4","364","2","right","2","in","Female","Right-handed","1","no","right","s","600.56728181","495.471976349","9","green","1"
"100","89","18","624.489449349","1","0","4","365","3","right","1","out","Female","Right-handed","1","no","right","s","437.041116065","999.158442181","9","green","3"
"100","89","18","619.532930122","1","1","4","366","1","right","1","in","Female","Right-handed","1","no","right","s","373.397343897","310.538362881","9","red","0"
"100","87","18","622.331290666","1","0","4","367","0","left","1","out","Female","Right-handed","1","no","left","s","580.442055185","983.233628189","9","red","2"
"100","88","18","628.102365885","1","1","4","368","2","right","1","out","Female","Right-handed","1","no","right","d","574.805798667","1350.84365851","9","green","2"
"100","88","18","624.117291693","1","1","4","369","0","left","3","in","Female","Right-handed","1","no","left","s","450.403091442","327.592737331","9","green","2"
"100","88","18","621.092619588","1","1","4","370","2","right","0","out","Female","Right-handed","1","no","right","s","416.060220133","463.164366441","9","green","2"
"100","87","18","621.483075055","1","0","4","371","0","left","2","out","Female","Right-handed","1","no","left","s","643.830216993","646.771500054","9","red","1"
"100","87","18","618.822138141","1","1","4","372","1","left","1","in","Female","Right-handed","1","no","left","s","572.362266266","335.32583265","9","green","2"
"100","87","18","616.644182663","1","1","4","373","3","right","1","out","Female","Right-handed","1","no","right","d","463.913878873","494.952096309","9","green","2"
"100","87","18","616.421064692","1","1","4","374","3","right","1","out","Female","Right-handed","1","no","right","d","581.672320349","622.610708632","9","green","0"
"100","86","18","616.668290168","1","0","4","375","0","left","1","out","Female","Right-handed","1","no","left","d","474.262089456","791.21380283","9","red","2"
"100","85","18","622.184470376","1","0","4","376","1","right","1","out","Female","Right-handed","1","no","right","s","405.804375651","1566.7003525","9","red","3"
"100","83","18","621.332779464","1","0","4","377","2","left","1","out","Female","Right-handed","1","no","left","s","497.205765057","631.333211675","9","red","2"
"100","84","18","619.761601101","1","1","4","378","0","left","1","in","Female","Right-handed","1","no","left","s","490.866179158","534.976765756","9","red","3"
"100","84","18","616.5800933","1","1","4","379","0","right","0","out","Female","Right-handed","1","no","right","s","403.471490145","390.640619853","9","red","3"
"100","84","18","615.941790691","1","1","4","380","1","left","1","out","Female","Right-handed","1","no","left","d","591.303410779","551.217805362","9","red","2"
"100","84","18","613.127824458","1","1","4","381","2","right","1","in","Female","Right-handed","1","no","right","s","347.805840039","478.866603785","9","red","3"
"100","84","18","611.405649123","1","1","4","382","1","right","3","in","Female","Right-handed","1","no","right","s","607.40012835","367.417921653","9","red","1"
"100","83","18","610.164528073","1","0","4","383","2","left","1","out","Female","Right-handed","1","no","left","s","487.914633196","551.210749618","9","green","3"
"100","84","18","612.704970162","1","1","4","384","1","left","3","in","Female","Right-handed","1","no","left","s","818.742108391","782.653261181","9","green","2"
"100","84","18","610.035594287","1","1","4","385","0","left","2","out","Female","Right-handed","1","no","left","s","492.324793852","327.340013413","9","red","3"
"100","84","18","610.065396042","1","1","4","386","1","left","3","in","Female","Right-handed","1","no","left","d","689.812820736","534.847838072","9","green","0"
"100","84","18","611.751211542","1","1","4","387","2","right","0","in","Female","Right-handed","1","no","right","s","1084.59420011","398.52381009","9","red","1"
"100","84","18","610.826889625","1","1","4","388","3","right","2","in","Female","Right-handed","1","no","right","s","630.16099604","447.298564124","9","red","1"
"100","85","18","608.82683184","1","1","4","389","2","right","3","in","Female","Right-handed","1","no","right","s","486.829652213","414.814881334","9","red","1"
"100","85","18","606.18674827","1","1","4","390","1","right","1","in","Female","Right-handed","1","no","right","s","526.459841432","263.500283993","9","red","3"
"100","84","18","606.209929173","1","0","4","391","0","right","0","in","Female","Right-handed","1","no","right","s","873.016494084","343.158670531","9","green","2"
"100","84","18","603.97502837","1","1","4","392","0","right","2","out","Female","Right-handed","1","no","right","s","474.639251038","366.787074006","9","green","1"
"100","84","18","601.906806009","1","1","4","393","1","right","0","out","Female","Right-handed","1","no","right","d","405.161340809","455.327359257","9","green","1"
"100","84","18","600.918838966","1","1","4","394","2","right","3","in","Female","Right-handed","1","no","right","s","684.925755934","350.933458882","9","red","1"
"100","83","18","599.129558383","1","0","4","395","0","right","1","in","Female","Right-handed","1","no","right","s","519.508009392","374.57340812","9","red","3"
"100","83","18","599.107920622","1","1","4","396","1","right","1","out","Female","Right-handed","1","no","right","s","835.162428036","359.331718423","9","green","2"
"100","84","18","599.468559255","1","1","4","397","1","left","1","in","Female","Right-handed","1","no","left","s","934.868748731","326.819491941","9","red","2"
"100","84","18","597.581320178","1","1","4","398","2","right","0","out","Female","Right-handed","1","no","right","s","552.526004425","310.482558362","9","red","1"
"100","83","18","595.376600865","1","0","4","399","1","right","2","in","Female","Right-handed","1","no","right","s","440.085669559","358.227494502","9","green","1"
"100","83","18","593.704021912","1","1","4","400","3","right","1","out","Female","Right-handed","1","no","right","s","439.644685565","446.699146608","9","green","2"
"100","83","18","592.49812357","1","1","4","401","3","left","1","out","Female","Right-handed","1","no","left","s","583.285199263","382.237549578","9","green","2"
"100","83","18","593.078221774","1","1","4","402","1","left","0","in","Female","Right-handed","1","no","left","d","485.828057293","807.066455807","9","red","3"
"100","84","18","593.589202266","1","1","4","403","3","right","2","in","Female","Right-handed","1","no","right","d","451.625659431","830.59511672","9","green","0"
"100","84","18","590.984612689","1","1","4","404","1","right","2","in","Female","Right-handed","1","no","right","s","365.145009969","327.161374805","9","green","1"
"100","84","18","592.420618672","1","1","4","405","3","left","1","in","Female","Right-handed","1","no","left","d","994.787408832","462.89496531","9","red","0"
"100","100","18","592.136309275","1","1","5","406","3","right","1","in","Female","Right-handed","1","no","right","s","449.107079573","735.165538977","9","red","3"
"100","100","18","500.95308668","1","1","5","407","0","left","1","in","Female","Right-handed","1","no","left","s","507.842619708","311.69710846","9","green","2"
"100","100","18","462.268661133","1","1","5","408","2","right","3","in","Female","Right-handed","1","no","right","s","434.402909275","335.396710805","9","green","2"
"100","100","18","527.948563306","1","1","5","409","0","right","3","out","Female","Right-handed","1","no","right","d","659.007763563","790.968776088","9","green","1"
"100","100","18","499.875754764","1","1","5","410","0","right","1","out","Female","Right-handed","1","no","right","s","447.591377496","327.577663695","9","red","0"
"100","100","18","482.119274999","1","1","5","411","0","left","2","in","Female","Right-handed","1","no","left","s","419.248133516","367.425618829","9","green","3"
"100","100","18","470.22689119","1","1","5","412","2","left","2","out","Female","Right-handed","1","no","left","s","461.770857019","335.974319658","9","green","0"
"100","87","18","460.212900658","1","0","5","413","0","left","1","in","Female","Right-handed","1","no","left","s","444.575367692","335.654566173","9","red","3"
"100","88","18","468.372342867","1","1","5","414","1","right","1","out","Female","Right-handed","1","no","right","d","444.188905356","623.106855713","9","green","3"
"100","90","18","475.76613352","1","1","5","415","2","left","0","in","Female","Right-handed","1","no","left","d","588.778095892","495.842402904","9","green","2"
"100","90","18","478.231309852","1","1","5","416","1","left","1","out","Female","Right-handed","1","no","left","s","662.333584667","343.432561681","9","red","0"
"100","91","18","471.509133286","1","1","5","417","2","left","0","in","Female","Right-handed","1","no","left","s","395.997853771","399.132528358","9","red","3"
"100","92","18","468.218376063","1","1","5","418","2","left","1","out","Female","Right-handed","1","no","left","s","457.744913691","399.713665084","9","green","0"
"100","92","18","462.947207595","1","1","5","419","1","left","0","in","Female","Right-handed","1","no","left","s","485.38194185","303.462093177","9","red","3"
"100","86","18","459.284241819","1","0","5","420","0","right","1","in","Female","Right-handed","1","no","right","s","401.001017631","415.004424272","9","red","3"
"100","87","18","468.962013077","1","1","5","421","3","right","0","out","Female","Right-handed","1","no","right","d","444.678317409","783.578846495","9","green","3"
"100","88","18","477.03724182","1","1","5","422","0","left","0","out","Female","Right-handed","1","no","left","s","413.298537825","799.183265571","9","red","3"
"100","88","18","474.419311386","1","1","5","423","3","right","0","in","Female","Right-handed","1","no","right","s","532.90879136","326.92019665","9","red","2"
"100","89","18","478.766456109","1","1","5","424","1","right","2","out","Female","Right-handed","1","no","right","d","610.513956422","503.516165832","9","red","1"
"100","90","18","482.882484661","1","1","5","425","1","left","3","out","Female","Right-handed","1","no","left","d","515.003879056","607.170175242","9","green","1"
"100","90","18","496.231652412","1","1","5","426","2","right","2","out","Female","Right-handed","1","no","right","d","462.729155328","1063.70085955","9","red","1"
"100","90","18","502.664432581","1","1","5","427","1","right","1","in","Female","Right-handed","1","no","right","d","772.14116491","503.364467338","9","green","2"
"100","91","18","511.786919992","1","1","5","428","0","right","2","out","Female","Right-handed","1","no","right","d","545.976670504","878.986615575","9","green","0"
"100","91","18","509.197369309","1","1","5","429","1","right","2","in","Female","Right-handed","1","no","right","d","395.651160173","503.624247001","9","green","0"
"100","88","18","510.619074177","1","0","5","430","3","left","1","in","Female","Right-handed","1","no","left","d","594.257843181","495.222138872","9","red","3"
"100","88","18","518.663910519","1","1","5","431","0","right","0","in","Female","Right-handed","1","no","right","s","608.706082404","830.863555704","9","red","1"
"100","88","18","518.193140631","1","1","5","432","2","right","1","out","Female","Right-handed","1","no","right","d","412.435812776","599.470434348","9","green","3"
"100","89","18","524.814679054","1","1","5","433","0","left","1","out","Female","Right-handed","1","no","left","s","576.097641233","831.094791675","9","green","3"
"100","89","18","521.12161821","1","1","5","434","3","right","2","in","Female","Right-handed","1","no","right","s","460.654445905","374.777383262","9","red","0"
"100","90","18","544.826071102","1","1","5","435","3","left","3","out","Female","Right-handed","1","no","left","d","753.290462206","1711.21994774","9","red","0"
"100","90","18","548.116448991","1","1","5","436","2","left","1","out","Female","Right-handed","1","no","left","s","398.819189186","894.836382109","9","green","2"
"100","90","18","549.362269995","1","1","5","437","2","left","1","out","Female","Right-handed","1","no","left","s","600.470746405","575.494695844","9","green","0"
"100","90","18","558.092427543","1","1","5","438","2","left","1","out","Female","Right-handed","1","no","left","s","499.88919275","1175.02574545","9","red","3"
"100","91","18","555.566520676","1","1","5","439","1","right","2","in","Female","Right-handed","1","no","right","s","497.584530217","446.838657908","9","green","3"
"100","88","18","551.074427148","1","0","5","440","1","right","1","out","Female","Right-handed","1","no","right","s","389.372510244","407.313984131","9","green","0"
"100","88","18","552.945816733","1","1","5","441","2","left","1","in","Female","Right-handed","1","no","left","s","877.942044761","358.946859665","9","green","2"
"100","89","18","555.851799525","1","1","5","442","2","left","3","out","Female","Right-handed","1","no","left","s","1010.41491943","310.519440659","9","red","0"
"100","89","18","556.281137162","1","1","5","443","1","right","1","in","Female","Right-handed","1","no","right","d","625.131854213","519.201405248","9","green","2"
"100","89","18","563.522747245","1","1","5","444","2","right","1","in","Female","Right-handed","1","no","right","d","486.60226483","1190.80559597","9","red","0"
"100","90","18","569.630647041","1","1","5","445","3","left","2","out","Female","Right-handed","1","no","left","d","536.28271981","1079.39475829","9","red","1"
"100","87","18","573.259929765","1","0","5","446","2","left","3","out","Female","Right-handed","1","no","left","s","1077.80176374","359.060713714","9","red","1"
"100","88","18","575.608725524","1","1","5","447","2","right","0","out","Female","Right-handed","1","no","right","s","729.338135943","614.480567358","9","red","1"
"100","88","18","572.549717095","1","1","5","448","3","left","0","out","Female","Right-handed","1","no","left","s","569.039010887","319.103715265","9","red","1"
"100","88","18","572.031262223","1","1","5","449","2","right","2","in","Female","Right-handed","1","no","right","d","436.707251092","662.768154349","9","green","3"
"100","88","18","575.240774588","1","1","5","450","3","right","1","in","Female","Right-handed","1","no","right","d","458.442470191","974.47616714","9","red","3"
"100","86","18","576.347022039","1","0","5","451","0","left","0","in","Female","Right-handed","1","no","left","d","597.126323794","655.129990857","9","red","1"
"100","87","18","576.128300282","1","1","5","452","1","left","0","out","Female","Right-handed","1","no","left","d","557.552901241","574.581297725","9","green","1"
"100","85","18","582.548254874","1","0","5","453","3","left","1","out","Female","Right-handed","1","no","left","s","505.340396347","1263.23184501","9","green","0"
"100","85","18","583.32805407","1","1","5","454","3","left","1","in","Female","Right-handed","1","no","left","d","746.796612087","494.720218908","9","green","3"
"100","86","18","582.559981039","1","1","5","455","1","right","1","out","Female","Right-handed","1","no","right","d","459.455610871","630.393194158","9","green","3"
"100","86","18","581.629353887","1","1","5","456","3","left","0","in","Female","Right-handed","1","no","left","s","543.172653732","527.023338797","9","red","1"
"100","86","18","582.158765784","1","1","5","457","0","left","0","in","Female","Right-handed","1","no","left","s","843.490130137","374.8274149","9","red","2"
"100","86","18","579.774134624","1","1","5","458","0","right","1","in","Female","Right-handed","1","no","right","s","433.222034318","478.324594366","9","green","0"
"100","87","18","577.990510832","1","1","5","459","2","right","1","in","Female","Right-handed","1","no","right","s","551.896760356","415.020139338","9","green","3"
"100","85","18","574.793220783","1","0","5","460","1","left","1","in","Female","Right-handed","1","no","left","s","493.641331522","310.637784728","9","green","3"
"100","85","18","575.408053944","1","1","5","461","2","left","0","out","Female","Right-handed","1","no","left","d","619.138641199","599.309114385","9","green","1"
"100","85","18","574.415380837","1","1","5","462","1","left","0","in","Female","Right-handed","1","no","left","d","462.886626703","574.764747066","9","green","1"
"100","86","18","573.976179211","1","1","5","463","0","right","1","out","Female","Right-handed","1","no","right","s","643.419380269","454.463992774","9","green","2"
"100","86","18","572.775274616","1","1","5","464","1","left","1","out","Female","Right-handed","1","no","left","d","479.183470829","527.062145389","9","green","2"
"100","86","18","571.975119736","1","1","5","465","0","left","3","in","Female","Right-handed","1","no","left","d","514.685729148","534.846234494","9","green","1"
"100","86","18","574.340579612","1","1","5","466","0","left","3","out","Female","Right-handed","1","no","left","d","986.296783189","446.239561107","9","red","2"
"100","87","18","574.654741604","1","1","5","467","2","right","1","out","Female","Right-handed","1","no","right","d","572.792666645","614.844579602","9","red","2"
"100","85","18","573.423264847","1","0","5","468","3","right","1","out","Female","Right-handed","1","no","right","d","451.675049639","542.468362205","9","green","2"
"100","85","18","570.826075973","1","1","5","469","3","right","1","in","Female","Right-handed","1","no","right","s","400.187362072","414.218991689","9","green","2"
"100","86","18","568.67869921","1","1","5","470","2","left","1","in","Female","Right-handed","1","no","left","s","455.761928937","406.731243828","9","red","3"
"100","86","18","570.45491695","1","1","5","471","0","left","1","in","Female","Right-handed","1","no","left","d","477.374634665","894.44350546","9","green","2"
"100","86","18","571.576522542","1","1","5","472","3","right","3","out","Female","Right-handed","1","no","right","d","540.081275756","751.123707396","9","red","1"
"100","86","18","570.613745864","1","1","5","473","1","right","1","in","Female","Right-handed","1","no","right","d","389.577447533","622.63796946","9","green","0"
"100","86","18","573.998255298","1","1","5","474","2","left","2","out","Female","Right-handed","1","no","left","s","482.040084964","1126.24970855","9","green","1"
"100","87","18","574.218756192","1","1","5","475","3","left","3","in","Female","Right-handed","1","no","left","s","475.924679293","702.941956564","9","red","1"
"100","87","18","578.018608165","1","1","5","476","3","left","1","in","Female","Right-handed","1","no","left","d","761.456202913","926.560289569","9","red","0"
"100","87","18","577.201290538","1","1","5","477","3","left","1","out","Female","Right-handed","1","no","left","d","512.118079798","526.225398304","9","green","0"
"100","86","18","574.873436715","1","0","5","478","0","right","3","out","Female","Right-handed","1","no","right","s","423.726927317","390.80899556","9","red","0"
"100","86","18","572.305946001","1","1","5","479","0","left","1","out","Female","Right-handed","1","no","left","s","395.435318553","374.322929211","9","red","3"
"100","86","18","571.848933102","1","1","5","480","1","right","3","in","Female","Right-handed","1","no","right","d","428.953629972","647.106327175","9","green","0"
"100","86","18","575.721296208","1","1","5","481","3","left","3","in","Female","Right-handed","1","no","left","s","1149.66804328","582.629015079","9","red","2"
"100","87","18","575.687593802","1","1","5","482","2","right","3","out","Female","Right-handed","1","no","right","d","716.108936836","430.143484966","9","green","1"
"100","87","18","575.157465413","1","1","5","483","1","left","2","out","Female","Right-handed","1","no","left","s","606.873192567","461.801966436","9","red","1"
"100","87","18","577.93974048","1","1","5","484","3","right","1","out","Female","Right-handed","1","no","right","d","679.431897158","910.482494219","9","red","2"
"100","87","18","578.377929376","1","1","5","485","0","left","1","in","Female","Right-handed","1","no","left","s","547.996537554","677.993166832","9","green","2"
"100","87","18","578.369557115","1","1","5","486","1","right","1","out","Female","Right-handed","1","no","right","s","508.621637978","646.777914368","9","red","2"
"100","87","18","576.886093236","1","1","5","487","1","right","0","out","Female","Right-handed","1","no","right","s","515.193101279","398.25793683","9","red","2"
"100","87","18","574.614082204","1","1","5","488","2","right","1","out","Female","Right-handed","1","no","right","s","442.650432468","333.967922664","9","red","2"
"100","88","18","572.035852205","1","1","5","489","3","right","2","in","Female","Right-handed","1","no","right","s","389.4433884","326.642136197","9","red","3"
"100","88","18","573.485106787","1","1","5","490","2","right","1","in","Female","Right-handed","1","no","right","d","424.266371009","966.178612308","9","red","0"
"100","88","18","576.500003233","1","1","5","491","1","left","3","in","Female","Right-handed","1","no","left","d","570.748745922","1094.78365646","9","green","2"
"100","88","18","575.878080048","1","1","5","492","1","right","3","in","Female","Right-handed","1","no","right","s","638.465285901","406.320086388","9","red","1"
"100","88","18","575.459686818","1","1","5","493","0","right","2","out","Female","Right-handed","1","no","right","d","576.130995659","501.987955845","9","green","1"
"100","88","18","575.196206887","1","1","5","494","0","left","1","in","Female","Right-handed","1","no","left","s","777.516358903","326.503587045","9","green","0"
"100","88","18","575.645681637","1","1","5","495","3","left","1","out","Female","Right-handed","1","no","left","s","809.230965608","422.066903205","9","red","2"
"100","89","18","574.724416194","1","1","5","496","0","right","1","out","Female","Right-handed","1","no","right","s","481.869143532","501.751909141","9","green","0"
"100","89","18","574.771717402","1","1","5","497","1","right","1","in","Female","Right-handed","1","no","right","d","607.56176903","550.590485586","9","green","0"
"100","88","18","574.216676812","1","0","5","498","3","right","1","in","Female","Right-handed","1","no","right","s","368.155567607","678.150317492","9","red","0"
"100","88","18","575.105348773","1","1","5","499","0","left","2","in","Female","Right-handed","1","no","left","d","493.709323236","821.794359061","9","red","1"
"100","87","18","575.171817914","1","0","5","500","1","right","1","in","Female","Right-handed","1","no","right","s","564.463681681","598.376152611","9","red","3"
"100","87","18","574.002686635","1","1","5","501","3","right","2","out","Female","Right-handed","1","no","right","s","479.847352188","446.023078055","9","red","1"
dis_reply=No
dis_loc=3
