"acc_1","acc_2","age","avg_rt","correct_1","correct_2","count_block_loop","count_trial_sequence","cue_position","detection","dis_position","dis_shape","gender","hand","high_loc","practice","response_keyboard_response_1","response_keyboard_response_2","response_time_keyboard_response_1","response_time_keyboard_response_2","subject_nr","tar_color","tar_position"
"100","0","21","667.798796479","1","0","0","0","2","right","0","out","Female","Right-handed","2","yes","right","s","863.92505237","471.672540589","18","green","3"
"100","50","21","881.15988463","1","1","0","1","3","right","3","in","Female","Right-handed","2","yes","right","s","683.661121788","1505.38082377","18","red","0"
"100","66","21","877.002220742","1","1","0","2","0","left","0","out","Female","Right-handed","2","yes","left","s","751.28743684","986.08634909","18","red","2"
"100","75","21","855.554748414","1","1","0","3","3","right","2","in","Female","Right-handed","2","yes","right","d","652.637237072","929.78742579","18","red","3"
"100","80","21","860.301820032","1","1","0","4","1","left","0","in","Female","Right-handed","2","yes","left","s","709.340263391","1049.23994961","18","red","2"
"100","83","21","833.135183886","1","1","0","5","2","left","0","out","Female","Right-handed","2","yes","left","d","624.768242124","769.835764193","18","green","1"
"100","85","21","839.889217131","1","1","0","6","2","left","1","in","Female","Right-handed","2","yes","left","s","687.359626318","1073.46720688","18","green","3"
"100","87","21","825.843677241","1","1","0","7","0","left","1","in","Female","Right-handed","2","yes","left","d","573.105598829","881.944197201","18","red","3"
"100","77","21","837.823562571","1","0","0","8","0","right","0","in","Female","Right-handed","2","yes","right","d","793.67206787","1073.65322256","18","green","1"
"100","80","21","814.718505379","1","1","0","9","2","right","0","out","Female","Right-handed","2","yes","right","d","547.195220541","666.350760759","18","red","3"
"100","72","21","836.728323275","1","0","0","10","3","right","1","out","Female","Right-handed","2","yes","right","d","855.897193629","1257.75581083","18","red","2"
"100","75","21","825.82579729","1","1","0","11","3","right","1","out","Female","Right-handed","2","yes","right","s","666.376418085","745.41960482","18","red","0"
"100","76","21","814.409409764","1","1","0","12","2","left","1","in","Female","Right-handed","2","yes","left","s","816.950003791","537.875515118","18","red","3"
"100","78","21","786.424192038","1","1","0","13","3","right","1","in","Female","Right-handed","2","yes","right","s","483.702943224","361.52977997","18","green","0"
"100","80","21","764.243213978","1","1","0","14","3","left","0","out","Female","Right-handed","2","yes","left","s","562.16531212","345.253730164","18","green","3"
"100","75","21","755.966712974","1","0","0","15","3","right","1","out","Female","Right-handed","2","yes","right","s","829.855642223","433.782753593","18","red","2"
"100","76","21","749.203052109","1","1","0","16","3","left","0","in","Female","Right-handed","2","yes","left","s","584.486229549","697.482727002","18","green","2"
"100","72","21","735.671680284","1","0","0","17","1","left","1","out","Female","Right-handed","2","yes","left","s","570.099842298","441.176876222","18","green","2"
"94","73","21","747.278503914","0","1","0","18","2","left","1","out","Female","Right-handed","2","yes","right","d","842.714456026","1069.68820246","18","green","0"
"95","75","21","748.97964796","1","1","0","19","3","left","3","in","Female","Right-handed","2","yes","left","s","545.150331134","1017.45243854","18","red","1"
"95","76","21","755.046113937","1","1","0","20","2","left","3","in","Female","Right-handed","2","yes","left","d","758.8403142","993.910552759","18","red","0"
"95","72","21","766.283025394","1","0","0","21","1","left","2","out","Female","Right-handed","2","yes","left","s","587.176721601","1417.3396104","18","red","1"
"100","0","21","513.908038352","1","0","1","22","0","right","2","in","Female","Right-handed","2","no","right","s","658.34471077","369.471365935","18","red","1"
"100","0","21","535.932533407","1","0","1","23","3","right","0","out","Female","Right-handed","2","no","right","s","521.870791592","594.04326533","18","green","1"
"100","33","21","623.499807732","1","1","1","24","2","left","2","out","Female","Right-handed","2","no","left","d","683.726868709","913.541844056","18","red","0"
"100","50","21","587.524258204","1","1","1","25","3","right","2","out","Female","Right-handed","2","no","right","s","646.136951778","313.058267464","18","green","3"
"100","40","21","610.169283871","1","0","1","26","1","right","1","in","Female","Right-handed","2","no","right","s","751.773322583","649.725450494","18","green","2"
"100","33","21","596.958659941","1","0","1","27","1","right","0","out","Female","Right-handed","2","no","right","s","460.475039115","601.336041465","18","red","3"
"100","42","21","585.106495568","1","1","1","28","2","left","2","out","Female","Right-handed","2","no","left","s","489.978726866","538.008291798","18","green","3"
"100","50","21","592.106617762","1","1","1","29","0","left","2","in","Female","Right-handed","2","no","left","s","584.601687529","697.613258701","18","red","3"
"100","55","21","607.575655365","1","1","1","30","0","right","0","in","Female","Right-handed","2","no","right","d","653.333833645","809.322078741","18","green","2"
"100","60","21","615.451423131","1","1","1","31","2","left","3","in","Female","Right-handed","2","no","left","d","570.842301386","801.824364666","18","red","2"
"100","63","21","624.172161053","1","1","1","32","0","right","2","out","Female","Right-handed","2","no","right","d","461.387478019","961.37160252","18","red","3"
"100","66","21","651.917027712","1","1","1","33","0","right","3","in","Female","Right-handed","2","no","right","s","785.081672075","1129.13944985","18","red","0"
"100","69","21","651.584657319","1","1","1","34","3","right","2","out","Female","Right-handed","2","no","right","d","453.611061123","841.581364075","18","red","0"
"100","71","21","661.527686163","1","1","1","35","1","left","0","out","Female","Right-handed","2","no","left","s","580.187664164","1001.38645811","18","green","1"
"100","73","21","670.714570617","1","1","1","36","0","right","0","in","Female","Right-handed","2","no","right","s","684.901653847","913.760252093","18","green","3"
"100","68","21","670.66000001","1","0","1","37","0","right","2","in","Female","Right-handed","2","no","right","d","498.362901824","841.319979983","18","red","0"
"100","64","21","655.36197035","1","0","1","38","1","left","3","in","Female","Right-handed","2","no","left","s","420.077247807","401.109743776","18","green","1"
"100","66","21","672.794653353","1","1","1","39","3","left","0","in","Female","Right-handed","2","no","left","d","768.657451175","1169.64307762","18","red","2"
"100","68","21","673.845090442","1","1","1","40","0","right","2","in","Female","Right-handed","2","no","right","s","592.191447329","793.314468756","18","green","1"
"100","70","21","687.720071762","1","1","1","41","2","right","3","out","Female","Right-handed","2","no","right","d","812.812438176","1089.87699554","18","green","2"
"100","71","21","688.536618289","1","1","1","42","3","right","3","out","Female","Right-handed","2","no","right","s","648.446753155","761.288344482","18","green","2"
"100","72","21","692.511509426","1","1","1","43","3","right","1","in","Female","Right-handed","2","no","right","s","622.887559643","929.08088697","18","red","3"
"100","69","21","694.607390584","1","0","1","44","2","right","2","out","Female","Right-handed","2","no","right","s","631.70598491","849.727567227","18","red","1"
"100","70","21","695.666047522","1","1","1","45","0","right","2","in","Female","Right-handed","2","no","right","d","543.139116955","896.891197219","18","red","0"
"100","68","21","694.95182996","1","0","1","46","3","left","2","in","Female","Right-handed","2","no","left","d","593.897659972","761.723556992","18","red","3"
"100","65","21","696.526152556","1","0","1","47","3","right","1","out","Female","Right-handed","2","no","right","d","822.381981881","649.386453006","18","red","2"
"100","62","21","692.172235204","1","0","1","48","2","right","1","out","Female","Right-handed","2","no","right","d","500.919655024","657.021113089","18","green","2"
"100","60","21","696.095020374","1","0","1","49","3","right","2","out","Female","Right-handed","2","no","right","d","986.47537842","617.545061512","18","red","0"
"100","62","21","697.442886251","1","1","1","50","2","left","2","in","Female","Right-handed","2","no","left","s","533.293436194","937.072825443","18","green","3"
"100","63","21","701.932253737","1","1","1","51","3","right","1","out","Female","Right-handed","2","no","right","s","494.66760442","1169.58021719","18","green","0"
"100","64","21","704.447373794","1","1","1","52","2","left","0","in","Female","Right-handed","2","no","left","d","702.404124138","857.397826883","18","green","1"
"100","65","21","713.916003143","1","1","1","53","0","right","1","in","Female","Right-handed","2","no","right","s","821.847026498","1193.03999946","18","red","2"
"100","66","21","706.64668077","1","1","1","54","1","left","2","out","Female","Right-handed","2","no","left","s","538.48615961","409.570570017","18","red","0"
"100","67","21","708.513889738","1","1","1","55","3","left","3","in","Female","Right-handed","2","no","left","d","635.014177271","905.249394098","18","red","2"
"100","65","21","707.647584986","1","0","1","56","0","left","0","in","Female","Right-handed","2","no","left","s","627.67265219","728.71379467","18","green","2"
"100","63","21","700.751546931","1","0","1","57","2","left","2","out","Female","Right-handed","2","no","left","s","565.436942765","353.343487222","18","green","1"
"100","64","21","699.823182836","1","1","1","58","3","right","2","out","Female","Right-handed","2","no","right","d","611.850416492","720.953734388","18","red","1"
"100","65","21","693.407089218","1","1","1","59","1","left","2","out","Female","Right-handed","2","no","left","s","478.529783519","433.493467164","18","red","1"
"100","66","21","690.016299232","1","1","1","60","0","right","2","out","Female","Right-handed","2","no","right","d","505.103724601","617.22883489","18","green","3"
"100","67","21","688.348700472","1","1","1","61","0","right","2","out","Female","Right-handed","2","no","right","d","677.9651939","568.65950377","18","green","1"
"100","68","21","685.168329742","1","1","1","62","2","right","3","out","Female","Right-handed","2","no","right","d","554.469074414","561.437926721","18","red","1"
"100","66","21","683.748956162","1","0","1","63","3","left","2","in","Female","Right-handed","2","no","left","d","610.067552567","641.041726194","18","red","0"
"100","67","21","683.944366817","1","1","1","64","2","left","1","out","Female","Right-handed","2","no","left","s","479.546776041","904.756452597","18","red","3"
"100","68","21","681.973441482","1","1","1","65","2","left","2","in","Female","Right-handed","2","no","left","s","513.222666836","681.224637345","18","green","3"
"100","68","21","684.880899908","1","1","1","66","1","left","2","in","Female","Right-handed","2","no","left","s","800.84104737","824.77709392","18","green","0"
"100","69","21","692.229374157","1","1","1","67","1","right","2","in","Female","Right-handed","2","no","right","d","612.460419565","1433.36101118","18","green","1"
"100","70","21","701.767590297","1","1","1","68","0","left","1","in","Female","Right-handed","2","no","left","d","711.961159919","1569.08990553","18","red","3"
"100","70","21","703.05421349","1","1","1","69","1","left","3","in","Female","Right-handed","2","no","left","d","790.637767524","736.41323956","18","green","2"
"100","71","21","702.933840086","1","1","1","70","1","right","2","in","Female","Right-handed","2","no","right","s","505.096989509","889.214843919","18","green","3"
"100","72","21","705.481153566","1","1","1","71","2","left","2","out","Female","Right-handed","2","no","left","d","843.745880789","816.853147349","18","green","0"
"100","70","21","710.781994818","1","0","1","72","2","right","2","in","Female","Right-handed","2","no","right","d","1022.40302088","929.245093925","18","red","1"
"100","71","21","710.314424816","1","1","1","73","1","right","2","in","Female","Right-handed","2","no","right","d","604.001838365","768.934871099","18","green","3"
"100","69","21","710.469016588","1","0","1","74","1","right","2","in","Female","Right-handed","2","no","right","d","804.485030065","632.530547446","18","green","1"
"100","70","21","705.490356827","1","1","1","75","0","right","2","out","Female","Right-handed","2","no","right","s","506.065874535","377.17690444","18","red","3"
"100","70","21","700.585377879","1","1","1","76","2","left","2","in","Female","Right-handed","2","no","left","s","526.636641182","344.796388206","18","red","0"
"100","71","21","696.403137451","1","1","1","77","2","left","0","in","Female","Right-handed","2","no","left","s","548.337934015","384.421893803","18","red","3"
"100","71","21","696.913122959","1","1","1","78","0","left","2","out","Female","Right-handed","2","no","left","s","633.992374002","816.952248832","18","red","0"
"100","72","21","695.882682641","1","1","1","79","0","left","3","out","Female","Right-handed","2","no","left","d","721.740131616","552.555037371","18","green","2"
"100","72","21","693.473920949","1","1","1","80","1","left","2","in","Female","Right-handed","2","no","left","d","546.225052647","561.306432908","18","red","0"
"100","73","21","700.921956166","1","1","1","81","1","right","2","out","Female","Right-handed","2","no","right","d","671.862597286","1608.84947068","18","green","1"
"100","72","21","698.379926602","1","0","1","82","1","right","1","in","Female","Right-handed","2","no","right","d","482.354971115","609.361334471","18","green","3"
"100","72","21","696.455688797","1","1","1","83","2","left","1","out","Female","Right-handed","2","no","left","d","677.078091627","481.076273776","18","green","2"
"100","73","21","693.418078586","1","1","1","84","1","left","0","out","Female","Right-handed","2","no","left","d","529.556445632","480.616045388","18","red","2"
"100","73","21","693.884256002","1","1","1","85","3","left","2","out","Female","Right-handed","2","no","left","s","557.211201871","889.295664529","18","red","3"
"100","73","21","695.030369523","1","1","1","86","2","right","3","in","Female","Right-handed","2","no","right","s","639.877845446","896.885424299","18","red","0"
"100","74","21","695.020388395","1","1","1","87","1","left","1","in","Female","Right-handed","2","no","left","s","756.348987197","632.394242886","18","green","0"
"100","74","21","692.983024385","1","1","1","88","2","left","1","out","Female","Right-handed","2","no","left","s","523.984955798","593.049043673","18","green","0"
"100","75","21","692.76643994","1","1","1","89","3","left","2","out","Female","Right-handed","2","no","left","d","675.63999811","680.870566139","18","green","3"
"100","75","21","691.084259968","1","1","1","90","1","right","2","out","Female","Right-handed","2","no","right","d","512.206315761","641.18572796","18","green","3"
"100","75","21","691.666473091","1","1","1","91","0","right","1","out","Female","Right-handed","2","no","right","d","838.813899987","624.864457117","18","green","2"
"100","76","21","689.354461369","1","1","1","92","3","right","3","out","Female","Right-handed","2","no","right","s","606.595794699","448.43148705","18","red","0"
"100","76","21","688.698375619","1","1","1","93","1","left","0","out","Female","Right-handed","2","no","left","d","755.094664346","529.137910402","18","green","2"
"100","76","21","688.93956666","1","1","1","94","0","right","3","out","Female","Right-handed","2","no","right","d","675.693557801","736.917085422","18","green","1"
"100","75","21","687.174154581","1","0","1","95","3","left","2","out","Female","Right-handed","2","no","left","d","516.438492807","600.159652764","18","red","1"
"100","76","21","688.151358165","1","1","1","96","2","left","2","in","Female","Right-handed","2","no","left","s","847.986075765","672.942770994","18","green","1"
"100","76","21","689.070480912","1","1","1","97","2","right","0","in","Female","Right-handed","2","no","right","s","579.689911887","936.319462024","18","red","2"
"100","76","21","688.337555984","1","1","1","98","0","left","3","out","Female","Right-handed","2","no","left","s","601.148101501","664.122421411","18","red","2"
"100","76","21","686.977144982","1","1","1","99","1","left","2","out","Female","Right-handed","2","no","left","s","659.736300353","504.714695271","18","red","3"
"100","77","21","685.108696742","1","1","1","100","3","left","0","out","Female","Right-handed","2","no","left","s","518.519302481","560.220165557","18","green","2"
"100","77","21","683.763957588","1","1","1","101","0","right","2","in","Female","Right-handed","2","no","right","d","546.018511115","609.040617797","18","red","0"
"100","77","21","683.034021737","1","1","1","102","2","left","2","out","Female","Right-handed","2","no","left","s","512.671354896","736.606952443","18","green","3"
"100","78","21","683.945388225","1","1","1","103","0","left","0","out","Female","Right-handed","2","no","left","s","843.217339745","672.314807773","18","green","1"
"100","78","21","681.582674972","1","1","1","104","3","left","2","out","Female","Right-handed","2","no","left","s","486.884773243","488.795603102","18","red","0"
"100","78","21","679.831276157","1","1","1","105","1","right","3","in","Female","Right-handed","2","no","right","d","572.474749177","496.455599845","18","green","2"
"100","78","21","678.799625078","1","1","1","106","0","right","1","in","Female","Right-handed","2","no","right","d","488.121135975","696.160732943","18","green","0"
"100","79","21","680.460682781","1","1","1","107","3","left","3","in","Female","Right-handed","2","no","left","s","778.493189748","864.807985316","18","green","1"
"100","79","21","680.07349307","1","1","1","108","2","left","0","in","Female","Right-handed","2","no","left","d","477.168982732","816.381373152","18","red","2"
"100","78","21","678.805256528","1","0","1","109","3","left","2","in","Female","Right-handed","2","no","left","s","551.906548295","585.030806455","18","green","1"
"100","78","21","677.313355308","1","1","1","110","1","left","1","in","Female","Right-handed","2","no","left","d","507.520645333","584.531450586","18","red","2"
"100","77","21","676.028524967","1","0","1","111","1","left","2","out","Female","Right-handed","2","no","left","s","547.232423676","576.124825486","18","red","0"
"100","78","21","675.306070394","1","1","1","112","3","right","2","in","Female","Right-handed","2","no","right","d","587.770047452","632.800270163","18","red","1"
"100","77","21","674.901100045","1","0","1","113","0","right","2","in","Female","Right-handed","2","no","right","s","499.516519631","776.581077022","18","red","1"
"100","77","21","673.713391059","1","1","1","114","1","right","3","out","Female","Right-handed","2","no","right","d","496.997610957","631.890717719","18","red","0"
"100","77","21","672.558421081","1","1","1","115","3","right","0","in","Female","Right-handed","2","no","right","s","537.743700552","592.54872569","18","green","3"
"100","77","21","672.864283191","1","1","1","116","2","right","2","out","Female","Right-handed","2","no","right","d","763.185383548","640.045259555","18","red","0"
"100","78","21","674.437723225","1","1","1","117","3","left","1","in","Female","Right-handed","2","no","left","s","718.935143697","928.893909178","18","green","2"
"100","100","21","884.402971511","1","1","2","118","3","right","2","in","Female","Right-handed","2","no","right","s","967.404924362","801.40101866","18","red","1"
"100","100","21","767.489080405","1","1","2","119","1","right","2","in","Female","Right-handed","2","no","right","s","676.121714554","625.028664042","18","red","1"
"100","100","21","674.234938429","1","1","2","120","1","right","0","out","Female","Right-handed","2","no","right","d","605.622098927","369.831210031","18","red","2"
"100","100","21","658.874895493","1","1","2","121","1","left","2","out","Female","Right-handed","2","no","left","s","736.319911026","489.26962234","18","green","0"
"100","100","21","651.281792248","1","1","2","122","1","left","0","in","Female","Right-handed","2","no","left","d","600.910129753","640.908628789","18","red","2"
"100","100","21","623.420296732","1","1","2","123","2","right","2","out","Female","Right-handed","2","no","right","d","439.667904313","528.557733982","18","red","0"
"100","100","21","596.529598327","1","1","2","124","1","left","2","in","Female","Right-handed","2","no","left","s","421.123425564","449.247390236","18","green","1"
"100","100","21","573.564203631","1","1","2","125","1","right","2","in","Female","Right-handed","2","no","right","s","472.737319913","352.875561599","18","green","3"
"100","100","21","567.394330011","1","1","2","126","3","left","0","out","Female","Right-handed","2","no","left","s","498.525825882","537.544856226","18","green","2"
"100","90","21","559.514139919","1","0","2","127","1","right","1","out","Female","Right-handed","2","no","right","s","624.080304871","353.104553302","18","red","2"
"90","90","21","567.121944378","0","1","2","128","1","right","3","in","Female","Right-handed","2","no","left","s","506.648296025","779.751681926","18","green","2"
"91","91","21","562.554822506","1","1","2","129","0","right","2","in","Female","Right-handed","2","no","right","d","543.359449279","481.273514539","18","red","3"
"92","92","21","574.120889113","1","1","2","130","1","left","1","out","Female","Right-handed","2","no","left","s","784.83888958","640.988487226","18","green","0"
"92","92","21","567.575607464","1","1","2","131","0","left","0","out","Female","Right-handed","2","no","left","s","468.543308147","496.430583909","18","green","2"
"93","93","21","651.637926713","1","1","2","132","3","right","1","out","Female","Right-handed","2","no","right","d","2416.06668598","1240.95410641","18","green","0"
"93","93","21","646.575281262","1","1","2","133","3","left","2","in","Female","Right-handed","2","no","left","d","628.644423705","512.626775278","18","red","1"
"94","94","21","652.296588808","1","1","2","134","2","right","2","out","Female","Right-handed","2","no","right","s","686.280414753","801.394604321","18","red","3"
"94","94","21","653.748529203","1","1","2","135","3","left","1","out","Female","Right-handed","2","no","left","s","476.037494343","880.825537519","18","green","3"
"94","94","21","678.774471758","1","1","2","136","1","left","2","in","Female","Right-handed","2","no","left","s","1489.2074033","769.275472179","18","green","0"
"95","95","21","667.936624464","1","1","2","137","1","left","1","out","Female","Right-handed","2","no","left","s","442.969682335","481.065369444","18","green","3"
"95","95","21","675.996237964","1","1","2","138","0","left","1","in","Female","Right-handed","2","no","left","s","1201.70993297","472.66708294","18","red","2"
"95","90","21","668.187213512","1","0","2","139","2","right","2","out","Female","Right-handed","2","no","right","d","607.209004957","401.186395087","18","red","0"
"95","91","21","668.433299532","1","1","2","140","1","right","3","in","Female","Right-handed","2","no","right","d","858.856766979","488.837616984","18","green","1"
"95","91","21","668.888631782","1","1","2","141","0","right","1","in","Female","Right-handed","2","no","right","d","526.395141525","832.327405515","18","red","3"
"96","92","21","677.935104268","1","1","2","142","3","left","3","out","Female","Right-handed","2","no","left","s","885.112236399","904.988651455","18","red","2"
"96","88","21","670.86291112","1","0","2","143","3","left","0","out","Female","Right-handed","2","no","left","d","451.500424766","536.615740071","18","red","3"
"96","88","21","667.560670298","1","1","2","144","2","left","1","in","Female","Right-handed","2","no","left","d","674.30068535","489.104132546","18","red","2"
"96","85","21","665.463137309","1","0","2","145","0","left","3","in","Female","Right-handed","2","no","left","s","536.784116324","680.875376886","18","red","2"
"96","86","21","670.651034805","1","1","2","146","2","left","3","in","Female","Right-handed","2","no","left","s","439.444364805","1192.37996457","18","green","2"
"96","86","21","663.049950231","1","1","2","147","2","left","3","in","Female","Right-handed","2","no","left","d","460.10076275","425.136232428","18","red","2"
"96","87","21","659.58725504","1","1","2","148","2","left","2","in","Female","Right-handed","2","no","left","d","510.693174525","600.719624053","18","green","3"
"96","87","21","661.659066886","1","1","2","149","2","left","2","in","Female","Right-handed","2","no","left","d","675.444681692","776.325786544","18","green","1"
"96","87","21","662.078532996","1","1","2","150","2","right","0","out","Female","Right-handed","2","no","right","d","701.939726423","649.063170596","18","green","2"
"97","85","21","657.326576853","1","0","2","151","0","left","0","in","Female","Right-handed","2","no","left","s","512.584440672","488.439607609","18","green","2"
"97","82","21","654.09393672","1","0","2","152","1","left","2","out","Female","Right-handed","2","no","left","d","615.167268174","473.201076209","18","red","1"
"97","83","21","653.626852866","1","1","2","153","0","right","2","in","Female","Right-handed","2","no","right","d","521.799592476","752.75824347","18","green","1"
"97","83","21","650.376232282","1","1","2","154","0","right","2","out","Female","Right-handed","2","no","right","d","586.270697037","480.437085498","18","red","1"
"97","84","21","646.287612659","1","1","2","155","0","right","2","out","Female","Right-handed","2","no","right","s","548.935429135","441.081944067","18","green","1"
"97","84","21","649.615325447","1","1","2","156","0","left","2","in","Female","Right-handed","2","no","left","d","943.516343861","608.620478975","18","green","0"
"97","82","21","646.580735449","1","0","2","157","2","right","2","out","Female","Right-handed","2","no","right","d","696.20018109","360.263269919","18","green","1"
"97","82","21","644.770597123","1","1","2","158","1","left","3","out","Female","Right-handed","2","no","left","d","711.809781642","432.920346502","18","green","2"
"97","83","21","642.46752175","1","1","2","159","3","right","2","in","Female","Right-handed","2","no","right","s","519.522183487","576.560679445","18","green","3"
"97","81","21","639.0279351","1","0","2","160","1","right","2","in","Female","Right-handed","2","no","right","d","484.062145901","505.068445724","18","green","3"
"97","81","21","635.668913054","1","1","2","161","0","right","2","in","Female","Right-handed","2","no","right","s","429.791114031","552.670816076","18","green","3"
"97","82","21","634.973392812","1","1","2","162","3","right","2","out","Female","Right-handed","2","no","right","s","632.42984243","576.311161887","18","green","1"
"97","82","21","630.767818973","1","1","2","163","1","left","3","in","Female","Right-handed","2","no","left","s","522.009020497","361.024971964","18","green","0"
"97","80","21","625.859872928","1","0","2","164","2","left","1","in","Female","Right-handed","2","no","left","s","455.517400958","344.671308732","18","red","3"
"97","79","21","627.180114931","1","0","2","165","3","left","2","out","Female","Right-handed","2","no","left","s","538.189817424","840.273160778","18","green","0"
"97","79","21","624.181517174","1","1","2","166","0","left","1","out","Female","Right-handed","2","no","left","d","391.761173843","568.736475776","18","red","0"
"98","80","21","622.536038129","1","1","2","167","0","left","0","out","Female","Right-handed","2","no","left","d","459.427899215","624.387230724","18","red","1"
"98","80","21","619.134643313","1","1","2","168","2","right","3","out","Female","Right-handed","2","no","right","s","473.073430971","425.056373962","18","red","1"
"98","80","21","618.942189613","1","1","2","169","2","left","2","in","Female","Right-handed","2","no","left","s","561.610151577","656.643950322","18","red","1"
"98","81","21","617.703943316","1","1","2","170","1","right","2","out","Female","Right-handed","2","no","right","d","506.252852385","600.377419352","18","red","3"
"98","81","21","618.41326525","1","1","2","171","0","left","3","in","Female","Right-handed","2","no","left","d","743.996905716","568.017749727","18","red","2"
"98","81","21","616.633471035","1","1","2","172","0","right","2","out","Female","Right-handed","2","no","right","s","440.510747692","600.538419152","18","green","0"
"98","82","21","613.67127099","1","1","2","173","3","left","2","in","Female","Right-handed","2","no","left","s","557.233010593","344.267526467","18","green","3"
"98","82","21","611.121039261","1","1","2","174","3","left","2","out","Female","Right-handed","2","no","left","s","511.747049488","424.869075447","18","red","0"
"98","82","21","610.662365835","1","1","2","175","2","right","0","in","Female","Right-handed","2","no","right","s","592.573420872","576.462540135","18","red","1"
"98","83","21","608.314887641","1","1","2","176","2","right","3","out","Female","Right-handed","2","no","right","d","448.187421687","496.134883171","18","green","0"
"98","83","21","608.937288241","1","1","2","177","2","left","0","out","Female","Right-handed","2","no","left","d","602.552199038","688.76564817","18","red","2"
"98","81","21","608.64072356","1","0","2","178","3","left","3","out","Female","Right-handed","2","no","left","s","653.381620446","528.312065027","18","red","1"
"98","82","21","609.016962363","1","1","2","179","3","left","2","out","Female","Right-handed","2","no","left","d","672.012371972","591.922686755","18","red","1"
"98","80","21","607.676149134","1","0","2","180","0","right","2","out","Female","Right-handed","2","no","right","s","488.494450139","560.597007658","18","green","3"
"98","81","21","606.128921443","1","1","2","181","3","right","2","in","Female","Right-handed","2","no","right","d","473.242769367","544.064384507","18","green","3"
"98","81","21","603.962104021","1","1","2","182","0","left","2","out","Female","Right-handed","2","no","left","s","513.737417059","416.834160918","18","red","3"
"98","81","21","603.173905859","1","1","2","183","1","left","0","in","Female","Right-handed","2","no","left","d","599.415269389","504.466781305","18","green","1"
"98","82","21","600.82295943","1","1","2","184","2","left","2","out","Female","Right-handed","2","no","left","s","435.151893005","456.169097219","18","green","3"
"98","82","21","598.659222305","1","1","2","185","0","right","0","in","Female","Right-handed","2","no","right","d","442.740369908","464.637299912","18","green","3"
"98","82","21","601.321388432","1","1","2","186","1","right","1","out","Female","Right-handed","2","no","right","s","932.263999828","632.433370338","18","red","2"
"98","82","21","600.308137695","1","1","2","187","1","right","0","in","Female","Right-handed","2","no","right","d","484.939305985","575.848367735","18","green","3"
"98","83","21","599.923422348","1","1","2","188","2","right","2","out","Female","Right-handed","2","no","right","s","649.513456767","496.473239269","18","red","0"
"98","83","21","597.331043167","1","1","2","189","3","right","2","in","Female","Right-handed","2","no","right","s","418.198168889","408.346073818","18","red","3"
"98","82","21","595.577018061","1","0","2","190","3","right","2","out","Female","Right-handed","2","no","right","d","474.739554018","463.834866852","18","red","0"
"98","81","21","596.326774444","1","0","2","191","3","left","2","in","Female","Right-handed","2","no","left","d","685.595684685","616.52229607","18","red","0"
"98","81","21","602.001552055","1","1","2","192","0","right","3","in","Female","Right-handed","2","no","right","d","811.931750213","1231.93844035","18","red","1"
"98","81","21","600.187346216","1","1","2","193","0","right","3","out","Female","Right-handed","2","no","right","d","447.711157467","480.532659043","18","green","0"
"98","81","21","604.058090801","1","1","2","194","0","right","2","in","Female","Right-handed","2","no","right","s","772.306244646","1024.16311394","18","green","1"
"98","82","21","602.9208649","1","1","2","195","0","right","2","in","Female","Right-handed","2","no","right","s","438.868678408","591.840262583","18","red","0"
"98","82","21","604.047120293","1","1","2","196","3","right","1","in","Female","Right-handed","2","no","right","s","871.383318328","512.40676365","18","red","2"
"98","82","21","602.21070796","1","1","2","197","2","left","0","out","Female","Right-handed","2","no","left","s","514.143765089","400.124502194","18","green","3"
"98","81","21","600.000810899","1","0","2","198","2","right","1","in","Female","Right-handed","2","no","right","s","422.745289718","423.672802281","18","red","2"
"98","80","21","600.809721958","1","0","2","199","3","right","1","in","Female","Right-handed","2","no","right","s","540.343429806","792.31960568","18","red","2"
"98","80","21","599.598671014","1","1","2","200","1","left","2","out","Female","Right-handed","2","no","left","s","568.729740713","431.855246483","18","red","1"
"98","80","21","599.586995975","1","1","2","201","2","right","2","in","Female","Right-handed","2","no","right","d","549.553129444","647.682806069","18","green","1"
"98","81","21","597.899117216","1","1","2","202","2","right","2","out","Female","Right-handed","2","no","right","s","496.108263673","416.12633926","18","green","0"
"98","81","21","597.368075271","1","1","2","203","1","right","2","out","Female","Right-handed","2","no","right","d","480.650682788","623.808337143","18","green","0"
"98","81","21","595.391276151","1","1","2","204","2","right","1","out","Female","Right-handed","2","no","right","d","426.41011902","424.362984573","18","green","0"
"98","81","21","593.336852251","1","1","2","205","3","right","3","in","Female","Right-handed","2","no","right","d","445.196097367","384.007848596","18","red","0"
"98","82","21","591.856502011","1","1","2","206","1","left","2","out","Female","Right-handed","2","no","left","s","555.655726057","367.515635735","18","green","3"
"98","82","21","590.456051252","1","1","2","207","0","right","2","out","Female","Right-handed","2","no","right","s","443.260572356","488.371294952","18","red","0"
"98","82","21","588.307838174","1","1","2","208","2","left","2","out","Female","Right-handed","2","no","left","d","381.860650552","408.076671796","18","red","3"
"98","81","21","588.012120538","1","0","2","209","3","left","3","out","Female","Right-handed","2","no","left","s","450.581892277","671.621739079","18","green","2"
"98","81","21","588.116492126","1","1","2","210","3","left","0","in","Female","Right-handed","2","no","left","d","763.305652275","432.131704205","18","green","1"
"98","81","21","586.820678356","1","1","2","211","1","left","2","in","Female","Right-handed","2","no","left","s","428.682396538","503.937598784","18","red","0"
"98","82","21","586.438720507","1","1","2","212","3","left","0","in","Female","Right-handed","2","no","left","d","589.570550772","511.498814798","18","red","2"
"98","81","21","588.029139728","1","0","2","213","0","left","1","in","Female","Right-handed","2","no","left","s","566.138670838","912.099260517","18","green","2"
"100","100","21","383.246948302","1","1","3","214","2","right","2","in","Female","Right-handed","2","no","right","s","437.804219808","328.689676797","18","green","0"
"100","100","21","455.358245315","1","1","3","215","1","left","0","out","Female","Right-handed","2","no","left","s","670.473252714","384.465831943","18","green","1"
"100","100","21","483.784939803","1","1","3","216","3","left","1","out","Female","Right-handed","2","no","left","d","520.221345796","561.055311759","18","red","2"
"100","100","21","523.517992362","1","1","3","217","2","left","2","out","Female","Right-handed","2","no","left","d","772.709706216","512.724593864","18","red","3"
"100","100","21","534.264502084","1","1","3","218","1","left","3","out","Female","Right-handed","2","no","left","d","658.297244692","496.203837247","18","red","0"
"100","100","21","511.560472568","1","1","3","219","1","right","1","in","Female","Right-handed","2","no","right","s","435.024568491","361.056081485","18","green","0"
"100","85","21","508.351874191","1","0","3","220","0","left","0","out","Female","Right-handed","2","no","left","d","553.619495971","424.581071886","18","red","2"
"100","87","21","511.648609516","1","1","3","221","0","left","1","in","Female","Right-handed","2","no","left","d","557.223068376","512.228445208","18","green","2"
"100","88","21","499.436643368","1","1","3","222","2","right","2","in","Female","Right-handed","2","no","right","d","402.805693506","400.676134857","18","red","0"
"100","90","21","492.69954269","1","1","3","223","2","left","2","in","Female","Right-handed","2","no","left","d","455.518042407","408.613230771","18","red","3"
"100","90","21","504.967011813","1","1","3","224","3","left","2","out","Female","Right-handed","2","no","left","s","863.27046965","392.012936441","18","red","0"
"100","91","21","510.657414631","1","1","3","225","0","left","2","in","Female","Right-handed","2","no","left","s","441.733319603","704.770371667","18","green","3"
"100","92","21","520.552029356","1","1","3","226","0","right","0","out","Female","Right-handed","2","no","right","s","814.307298511","464.267513598","18","red","1"
"100","92","21","513.263707119","1","1","3","227","3","right","2","out","Female","Right-handed","2","no","right","s","388.030918373","449.000117689","18","green","3"
"100","86","21","511.35734667","1","0","3","228","0","right","2","in","Female","Right-handed","2","no","right","s","488.710933889","480.625666882","18","red","0"
"100","87","21","521.908746406","1","1","3","229","0","left","2","out","Female","Right-handed","2","no","left","s","912.216642813","448.14284207","18","green","1"
"100","88","21","518.138375993","1","1","3","230","2","left","1","out","Female","Right-handed","2","no","left","s","506.820841576","408.804057195","18","red","2"
"100","88","21","517.045342171","1","1","3","231","3","left","2","in","Female","Right-handed","2","no","left","d","428.51947248","568.408061925","18","green","1"
"100","84","21","515.361154894","1","0","3","232","0","left","2","out","Female","Right-handed","2","no","left","d","490.067565377","480.024002434","18","red","3"
"100","85","21","514.951594232","1","1","3","233","0","left","2","out","Female","Right-handed","2","no","left","d","381.682652776","632.657230541","18","green","3"
"100","85","21","512.350607695","1","1","3","234","1","left","0","out","Female","Right-handed","2","no","left","d","328.239069873","592.422684043","18","green","3"
"100","86","21","509.60718419","1","1","3","235","1","right","3","out","Female","Right-handed","2","no","right","d","430.985783576","473.00479759","18","red","1"
"100","86","21","507.956924569","1","1","3","236","1","right","2","out","Female","Right-handed","2","no","right","d","494.656379335","448.646046483","18","red","0"
"95","87","21","509.10948903","0","1","3","237","1","left","2","in","Female","Right-handed","2","no","right","d","388.19159742","683.045345824","18","green","0"
"96","84","21","513.237374905","1","0","3","238","3","right","1","out","Female","Right-handed","2","no","right","d","719.726351701","504.886920127","18","green","3"
"96","84","21","521.050663583","1","1","3","239","3","right","0","in","Female","Right-handed","2","no","right","s","672.462337418","760.303423624","18","green","2"
"96","85","21","523.807706412","1","1","3","240","3","right","0","in","Female","Right-handed","2","no","right","s","566.978307033","624.003332894","18","green","1"
"96","85","21","522.609774323","1","1","3","241","3","left","2","in","Female","Right-handed","2","no","left","s","499.814144685","480.717071157","18","green","0"
"96","86","21","519.706645334","1","1","3","242","1","left","2","in","Female","Right-handed","2","no","left","s","508.359319414","368.478747871","18","red","1"
"96","83","21","517.498803456","1","0","3","243","0","left","1","in","Female","Right-handed","2","no","left","s","385.983463202","520.959314832","18","green","3"
"96","83","21","516.323515873","1","1","3","244","2","left","1","in","Female","Right-handed","2","no","left","d","441.646405408","520.483371336","18","green","0"
"96","84","21","515.587561339","1","1","3","245","3","left","2","in","Female","Right-handed","2","no","left","d","505.271459406","480.274482165","18","green","1"
"96","84","21","516.473975722","1","1","3","246","3","left","3","in","Female","Right-handed","2","no","left","s","697.8730392","391.805432766","18","red","2"
"97","85","21","512.912958308","1","1","3","247","2","left","0","out","Female","Right-handed","2","no","left","s","454.437868699","336.360898596","18","red","2"
"97","85","21","516.0323418","1","1","3","248","1","right","3","out","Female","Right-handed","2","no","right","d","716.098404839","528.084356192","18","green","2"
"97","86","21","513.204595348","1","1","3","249","3","left","0","out","Female","Right-handed","2","no","left","s","419.823560922","408.643378149","18","red","2"
"97","86","21","509.936690617","1","1","3","250","2","right","1","out","Female","Right-handed","2","no","right","s","480.273199297","304.311041284","18","green","3"
"97","86","21","507.662743912","1","1","3","251","2","right","2","in","Female","Right-handed","2","no","right","d","351.017008565","496.036423137","18","red","3"
"97","87","21","505.430300485","1","1","3","252","3","right","2","in","Female","Right-handed","2","no","right","s","456.724899181","384.470001271","18","red","3"
"97","85","21","509.391068906","1","0","3","253","2","left","0","in","Female","Right-handed","2","no","left","d","855.37121832","472.350856347","18","red","1"
"97","85","21","507.682341285","1","1","3","254","3","right","2","in","Female","Right-handed","2","no","right","d","414.85694272","463.809530222","18","red","0"
"97","85","21","505.178012483","1","1","3","255","0","left","2","in","Female","Right-handed","2","no","left","s","452.547243971","352.453819214","18","red","3"
"97","86","21","503.991259172","1","1","3","256","0","left","3","out","Female","Right-handed","2","no","left","d","460.160416056","448.134824139","18","green","2"
"97","84","21","513.238097686","1","0","3","257","0","right","2","out","Female","Right-handed","2","no","right","s","893.856576149","927.847731422","18","red","1"
"97","84","21","513.583512283","1","1","3","258","1","left","2","in","Female","Right-handed","2","no","left","d","545.341798977","512.221710145","18","green","1"
"97","82","21","516.221988135","1","0","3","259","2","right","2","in","Female","Right-handed","2","no","right","s","541.980046924","727.926755993","18","green","1"
"97","82","21","514.665018373","1","1","3","260","2","left","2","in","Female","Right-handed","2","no","left","s","453.651150718","432.437667914","18","green","1"
"97","83","21","513.072257409","1","1","3","261","3","left","0","in","Female","Right-handed","2","no","left","s","452.147951728","424.277032464","18","red","3"
"97","83","21","513.291797644","1","1","3","262","1","right","1","out","Female","Right-handed","2","no","right","s","679.937601351","367.721856572","18","red","2"
"98","84","21","512.135876743","1","1","3","263","1","left","2","in","Female","Right-handed","2","no","left","d","462.434297195","448.557207972","18","red","3"
"98","84","21","510.536425843","1","1","3","264","1","right","2","out","Female","Right-handed","2","no","right","s","500.946915941","360.180845717","18","green","1"
"98","84","21","510.521492443","1","1","3","265","2","left","3","in","Female","Right-handed","2","no","left","d","451.726209314","567.7935688","18","red","2"
"98","84","21","509.469800837","1","1","3","266","0","right","0","out","Female","Right-handed","2","no","right","d","381.271494029","528.292180563","18","red","3"
"98","85","21","509.405188308","1","1","3","267","1","left","1","out","Female","Right-handed","2","no","left","d","563.985699875","447.975748684","18","green","3"
"98","83","21","512.382100545","1","0","3","268","2","left","2","out","Female","Right-handed","2","no","left","d","714.599054452","631.671668234","18","red","1"
"98","82","21","513.771851169","1","0","3","269","3","right","2","in","Female","Right-handed","2","no","right","s","668.170507095","512.245763879","18","red","1"
"98","80","21","515.009221812","1","0","3","270","0","right","1","in","Female","Right-handed","2","no","right","d","736.804513901","431.799441751","18","green","2"
"98","81","21","519.180752955","1","1","3","271","2","right","3","out","Female","Right-handed","2","no","right","s","745.417680533","768.498375721","18","green","1"
"98","81","21","518.618849681","1","1","3","272","0","right","0","in","Female","Right-handed","2","no","right","d","476.016006316","496.040913189","18","green","2"
"98","81","21","517.569598988","1","1","3","273","1","right","3","in","Female","Right-handed","2","no","right","s","463.618062378","447.709553875","18","green","2"
"98","80","21","515.786525773","1","0","3","274","3","right","1","in","Female","Right-handed","2","no","right","s","489.327992749","328.276273038","18","green","0"
"98","80","21","514.668400645","1","1","3","275","1","left","1","out","Female","Right-handed","2","no","left","s","572.922469641","320.003066037","18","red","2"
"98","79","21","515.705713771","1","0","3","276","3","left","2","out","Female","Right-handed","2","no","left","s","792.560463917","367.47779118","18","green","0"
"98","79","21","514.236206656","1","1","3","277","0","right","2","out","Female","Right-handed","2","no","right","s","459.188644571","384.125872311","18","red","0"
"98","80","21","515.60664506","1","1","3","278","0","right","3","in","Female","Right-handed","2","no","right","d","598.835413664","607.793992123","18","green","1"
"98","80","21","514.740417133","1","1","3","279","0","right","2","in","Female","Right-handed","2","no","right","d","429.433194251","487.43800947","18","red","0"
"98","80","21","516.946828704","1","1","3","280","3","left","3","in","Female","Right-handed","2","no","left","s","605.024924502","720.115060307","18","red","0"
"98","80","21","514.302439658","1","1","3","281","0","right","1","out","Female","Right-handed","2","no","right","s","378.663105424","295.593641727","18","red","0"
"98","81","21","516.157914523","1","1","3","282","2","left","1","out","Female","Right-handed","2","no","left","d","724.384440487","560.27597026","18","green","2"
"98","81","21","515.677997997","1","1","3","283","0","right","2","out","Female","Right-handed","2","no","right","d","461.046556185","504.080959159","18","green","0"
"98","80","21","516.042660681","1","0","3","284","3","left","3","out","Female","Right-handed","2","no","left","s","515.612326679","567.525770399","18","green","2"
"98","80","21","518.635096796","1","1","3","285","3","right","3","out","Female","Right-handed","2","no","right","d","773.131127906","632.264994056","18","red","1"
"98","80","21","519.38346914","1","1","3","286","1","left","0","out","Female","Right-handed","2","no","left","s","642.768464691","503.764091089","18","green","2"
"98","81","21","517.42485472","1","1","3","287","1","right","2","out","Female","Right-handed","2","no","right","s","437.369328021","311.522676115","18","red","3"
"98","80","21","515.95898718","1","0","3","288","1","right","2","in","Female","Right-handed","2","no","right","d","398.974091571","415.995486866","18","red","3"
"98","80","21","514.685196003","1","1","3","289","0","left","3","in","Female","Right-handed","2","no","left","s","510.529288324","327.772427176","18","green","2"
"98","80","21","517.808975483","1","1","3","290","2","right","2","out","Female","Right-handed","2","no","right","d","1007.19720259","503.23522932","18","green","1"
"98","80","21","517.00341258","1","1","3","291","0","right","3","out","Female","Right-handed","2","no","right","s","502.058519894","407.891618292","18","green","0"
"98","81","21","518.707061798","1","1","3","292","3","left","2","out","Female","Right-handed","2","no","left","d","591.479777067","711.70362446","18","red","3"
"98","81","21","517.168924992","1","1","3","293","1","left","2","out","Female","Right-handed","2","no","left","s","423.080438632","368.231796048","18","green","0"
"98","81","21","515.13494587","1","1","3","294","1","right","2","in","Female","Right-handed","2","no","right","s","352.923669096","351.909563033","18","green","0"
"98","80","21","514.901509047","1","0","3","295","3","left","2","in","Female","Right-handed","2","no","left","d","512.481169921","479.505082883","18","red","1"
"98","80","21","513.698115767","1","1","3","296","0","left","2","in","Female","Right-handed","2","no","left","s","462.009668321","368.030065263","18","red","1"
"98","80","21","513.150627771","1","1","3","297","2","right","3","out","Female","Right-handed","2","no","right","d","559.652497061","375.765751116","18","green","2"
"97","81","21","513.652944086","0","1","3","298","1","left","2","in","Female","Right-handed","2","no","right","d","548.389890115","563.305139134","18","red","1"
"97","80","21","515.145493746","1","0","3","299","3","right","1","out","Female","Right-handed","2","no","right","s","604.092921858","679.931507766","18","green","2"
"97","80","21","514.041509929","1","1","3","300","2","right","3","in","Female","Right-handed","2","no","right","d","470.621552086","367.576251185","18","red","0"
"97","80","21","519.850251122","1","1","3","301","0","left","2","out","Female","Right-handed","2","no","left","d","899.142628157","1151.27884163","18","green","1"
"97","80","21","519.231250235","1","1","3","302","2","right","2","out","Female","Right-handed","2","no","right","d","489.811312757","439.707031765","18","red","0"
"97","81","21","518.220754479","1","1","3","303","2","left","2","in","Female","Right-handed","2","no","left","s","481.360428763","375.212835585","18","green","0"
"97","81","21","517.718518807","1","1","3","304","2","right","0","out","Female","Right-handed","2","no","right","d","466.064809792","478.969806776","18","green","3"
"97","81","21","516.800024139","1","1","3","305","2","right","2","out","Female","Right-handed","2","no","right","d","450.759248604","415.674770193","18","red","3"
"97","81","21","516.504091425","1","1","3","306","2","right","0","in","Female","Right-handed","2","no","right","s","547.31645147","431.24011191","18","green","2"
"97","81","21","515.364965426","1","1","3","307","3","right","2","in","Female","Right-handed","2","no","right","s","458.855740697","359.996754327","18","red","3"
"97","82","21","514.26698612","1","1","3","308","1","right","2","in","Female","Right-handed","2","no","right","s","438.498892094","383.614970662","18","red","3"
"97","81","21","517.328411374","1","0","3","309","1","right","0","in","Female","Right-handed","2","no","right","s","529.099745123","1087.22787592","18","red","2"
"100","100","21","533.490035494","1","1","4","310","0","left","0","out","Female","Right-handed","2","no","left","d","586.946767784","480.033303204","18","red","3"
"100","100","21","583.031939845","1","1","4","311","2","left","3","out","Female","Right-handed","2","no","left","d","608.601556683","656.546131708","18","green","2"
"100","100","21","517.081048626","1","1","4","312","3","left","0","out","Female","Right-handed","2","no","left","s","434.218286828","336.140245548","18","red","3"
"100","100","21","523.877515745","1","1","4","313","3","right","0","out","Female","Right-handed","2","no","right","s","616.69484165","471.838992555","18","green","2"
"80","100","21","569.286344497","0","1","4","314","2","right","2","out","Female","Right-handed","2","no","left","s","771.49611435","730.347204663","18","red","1"
"83","100","21","562.928457417","1","1","4","315","2","left","0","out","Female","Right-handed","2","no","left","s","494.150288462","568.12775557","18","green","2"
"85","100","21","558.467746837","1","1","4","316","0","left","2","in","Female","Right-handed","2","no","left","s","510.709531111","552.697435603","18","red","0"
"87","100","21","535.583794128","1","1","4","317","0","right","2","in","Female","Right-handed","2","no","right","s","470.456703741","280.335546588","18","green","0"
"88","100","21","547.116359895","1","1","4","318","2","left","2","in","Female","Right-handed","2","no","left","d","406.862759264","871.891012793","18","green","3"
"90","100","21","532.113615806","1","1","4","319","3","right","0","out","Female","Right-handed","2","no","right","s","489.65063371","304.527204309","18","red","2"
"90","100","21","539.25523819","1","1","4","320","1","right","2","in","Female","Right-handed","2","no","right","s","653.094579029","568.248345022","18","red","1"
"91","100","21","532.548945911","1","1","4","321","1","right","3","in","Female","Right-handed","2","no","right","d","477.777061518","439.782400179","18","green","2"
"92","100","21","523.428253381","1","1","4","322","2","left","2","out","Female","Right-handed","2","no","left","s","483.485176636","344.474709389","18","green","0"
"92","100","21","523.720983107","1","1","4","323","0","right","2","in","Female","Right-handed","2","no","right","d","647.025657644","408.027281461","18","green","3"
"93","100","21","522.146041328","1","1","4","324","0","left","1","out","Female","Right-handed","2","no","left","d","576.667157351","423.526555504","18","green","0"
"93","100","21","516.277673442","1","1","4","325","0","right","3","in","Female","Right-handed","2","no","right","s","440.294263972","416.210046329","18","green","0"
"94","94","21","517.085699024","1","0","4","326","3","right","2","in","Female","Right-handed","2","no","right","d","691.940743127","368.087473529","18","red","1"
"94","94","21","517.109289515","1","1","4","327","3","left","3","out","Female","Right-handed","2","no","left","d","523.493297165","511.527358554","18","green","2"
"94","89","21","516.56240759","1","0","4","328","3","left","2","in","Female","Right-handed","2","no","left","s","493.125278008","520.3117879","18","red","3"
"95","85","21","512.407020233","1","0","4","329","1","left","0","in","Female","Right-handed","2","no","left","s","490.961402713","375.947918161","18","green","2"
"95","80","21","520.837396701","1","0","4","330","0","left","2","out","Female","Right-handed","2","no","left","s","410.397377564","968.492474553","18","red","3"
"95","77","21","554.390207275","1","0","4","331","2","left","1","out","Female","Right-handed","2","no","left","d","693.972803885","1824.02565479","18","red","2"
"95","73","21","552.699980401","1","0","4","332","3","right","2","out","Female","Right-handed","2","no","right","s","631.501688418","399.528289942","18","green","0"
"95","70","21","565.007950835","1","0","4","333","1","right","3","out","Female","Right-handed","2","no","right","s","848.066254926","848.11628671","18","green","1"
"96","72","21","559.139921304","1","1","4","334","2","right","3","out","Female","Right-handed","2","no","right","s","444.808992383","391.805432737","18","red","0"
"96","73","21","559.128199356","1","1","4","335","1","right","2","in","Female","Right-handed","2","no","right","s","701.307914598","416.362386721","18","red","1"
"96","74","21","564.267645467","1","1","4","336","0","right","0","in","Female","Right-handed","2","no","right","s","1075.9123507","319.87413796","18","red","2"
"96","75","21","559.619022284","1","1","4","337","1","left","1","in","Female","Right-handed","2","no","left","s","572.638635407","295.573757292","18","green","2"
"96","72","21","557.588818085","1","0","4","338","0","left","3","out","Female","Right-handed","2","no","left","d","617.195801053","384.290399961","18","red","1"
"96","73","21","555.165066987","1","1","4","339","1","left","2","in","Female","Right-handed","2","no","left","d","417.87135863","551.881211665","18","green","0"
"96","74","21","562.254740341","1","1","4","340","1","right","3","out","Female","Right-handed","2","no","right","d","430.467505445","1119.42237648","18","red","0"
"96","75","21","560.968061793","1","1","4","341","1","left","3","out","Female","Right-handed","2","no","left","d","490.037417999","552.124635636","18","green","2"
"96","75","21","559.490851029","1","1","4","342","3","left","3","in","Female","Right-handed","2","no","left","d","496.709607425","527.73060571","18","green","1"
"97","76","21","557.973125605","1","1","4","343","2","right","2","out","Female","Right-handed","2","no","right","d","584.556145768","431.220227474","18","red","1"
"97","77","21","553.700861798","1","1","4","344","0","left","1","out","Female","Right-handed","2","no","left","d","361.055760761","455.832023988","18","green","3"
"97","75","21","553.395524392","1","0","4","345","0","left","2","in","Female","Right-handed","2","no","left","s","493.612767343","591.80466301","18","red","3"
"97","72","21","549.539607334","1","0","4","346","3","left","2","out","Female","Right-handed","2","no","left","d","381.231404463","440.221781988","18","red","3"
"97","73","21","564.613730627","1","1","4","347","2","right","3","out","Female","Right-handed","2","no","right","d","612.841430964","1631.87115401","18","green","1"
"94","74","21","567.246389169","0","1","4","348","1","left","2","in","Female","Right-handed","2","no","right","d","516.263060796","818.311766751","18","red","3"
"95","75","21","570.652040224","1","1","4","349","1","left","2","in","Female","Right-handed","2","no","left","d","750.919574843","656.025287869","18","red","0"
"95","75","21","571.407278972","1","1","4","350","2","right","2","in","Female","Right-handed","2","no","right","d","507.63225471","695.601403073","18","red","1"
"95","76","21","568.42661767","1","1","4","351","1","right","0","out","Female","Right-handed","2","no","right","d","436.266704142","456.172304403","18","green","3"
"95","74","21","569.611114865","1","0","4","352","3","left","2","in","Female","Right-handed","2","no","left","d","534.721908188","703.998085955","18","green","0"
"95","75","21","570.413783826","1","1","4","353","0","right","1","in","Female","Right-handed","2","no","right","d","658.517577045","551.339521247","18","green","2"
"95","75","21","568.216900536","1","1","4","354","1","left","2","in","Female","Right-handed","2","no","left","d","495.059199486","448.048872088","18","green","1"
"93","76","21","568.681458929","0","1","4","355","2","left","0","in","Female","Right-handed","2","no","right","d","704.590128909","474.583044299","18","red","2"
"93","74","21","571.833421624","1","0","4","356","3","left","3","out","Female","Right-handed","2","no","left","s","586.33451967","847.312891507","18","red","0"
"93","75","21","571.31473706","1","1","4","357","0","left","2","in","Female","Right-handed","2","no","left","d","501.904896606","591.968228516","18","green","0"
"93","75","21","577.300278233","1","1","4","358","2","left","3","in","Female","Right-handed","2","no","left","s","537.678274355","1191.53423473","18","green","2"
"94","76","21","573.846159274","1","1","4","359","0","left","2","in","Female","Right-handed","2","no","left","s","426.090364461","383.098296123","18","red","0"
"94","76","21","573.578671643","1","1","4","360","2","right","2","out","Female","Right-handed","2","no","right","s","608.74491703","511.663663143","18","red","3"
"94","76","21","570.180302096","1","1","4","361","2","right","2","in","Female","Right-handed","2","no","right","s","442.376677209","351.350233162","18","green","3"
"94","77","21","570.517678626","1","1","4","362","2","right","0","in","Female","Right-handed","2","no","right","s","728.125279624","447.997236712","18","green","1"
"94","77","21","570.501884395","1","1","4","363","3","left","1","out","Female","Right-handed","2","no","left","s","699.66199671","439.667583589","18","green","2"
"94","78","21","566.815904876","1","1","4","364","1","right","1","in","Female","Right-handed","2","no","right","s","440.27245522","295.273566502","18","green","2"
"94","78","21","568.15510238","1","1","4","365","3","left","2","in","Female","Right-handed","2","no","left","s","843.867432413","439.754497813","18","red","3"
"92","78","21","568.677998442","0","1","4","366","0","left","2","in","Female","Right-handed","2","no","right","d","681.602762284","514.317593508","18","green","1"
"93","77","21","566.357081639","1","0","4","367","0","left","0","in","Female","Right-handed","2","no","left","s","581.08727436","287.042373413","18","green","1"
"93","77","21","564.804380803","1","1","4","368","3","left","2","out","Female","Right-handed","2","no","left","d","461.771055125","487.724409439","18","red","1"
"93","78","21","565.188590484","1","1","4","369","2","right","2","in","Female","Right-handed","2","no","right","d","552.348495869","623.365427455","18","green","3"
"93","78","21","564.117301498","1","1","4","370","0","left","2","out","Female","Right-handed","2","no","left","s","544.633977289","455.045947456","18","green","1"
"93","79","21","562.399846524","1","1","4","371","1","right","2","out","Female","Right-handed","2","no","right","d","387.588970829","527.681215317","18","red","3"
"93","79","21","562.071894484","1","1","4","372","3","right","2","out","Female","Right-handed","2","no","right","d","564.078387019","519.399348996","18","green","1"
"93","78","21","562.412281488","1","0","4","373","1","right","2","out","Female","Right-handed","2","no","right","s","648.836423934","518.876901566","18","green","1"
"93","78","21","564.004306386","1","1","4","374","0","right","3","in","Female","Right-handed","2","no","right","s","948.367504083","383.420295664","18","green","2"
"93","77","21","561.089392762","1","0","4","375","2","right","2","out","Female","Right-handed","2","no","right","s","408.182508312","335.057506105","18","red","0"
"94","77","21","561.99555727","1","1","4","376","2","right","2","in","Female","Right-handed","2","no","right","d","603.674065933","639.93076369","18","red","1"
"94","77","21","571.815912259","1","1","4","377","2","left","2","out","Female","Right-handed","2","no","left","s","1100.21882498","1359.34056807","18","red","0"
"94","76","21","572.684797672","1","0","4","378","3","right","1","in","Female","Right-handed","2","no","right","d","616.707349575","646.830661921","18","red","2"
"94","77","21","570.681134379","1","1","4","379","2","right","1","in","Female","Right-handed","2","no","right","s","457.510655018","407.346079272","18","red","3"
"94","77","21","569.481611252","1","1","4","380","0","left","0","in","Female","Right-handed","2","no","left","s","643.901877367","327.128107397","18","red","2"
"94","77","21","567.637992264","1","1","4","381","2","right","1","out","Female","Right-handed","2","no","right","s","457.711423631","415.770664491","18","green","0"
"94","78","21","564.942309817","1","1","4","382","1","right","2","out","Female","Right-handed","2","no","right","s","438.227565784","303.478781541","18","green","0"
"94","78","21","566.7391586","1","1","4","383","2","right","0","in","Female","Right-handed","2","no","right","d","908.888245321","486.92999428","18","red","3"
"94","77","21","567.564378257","1","0","4","384","0","right","2","out","Female","Right-handed","2","no","right","d","665.676293603","591.584972106","18","red","1"
"94","77","21","565.573013148","1","1","4","385","1","right","1","in","Female","Right-handed","2","no","right","s","433.090005594","399.351254338","18","red","3"
"94","77","21","566.789327877","1","1","4","386","3","left","1","in","Female","Right-handed","2","no","left","s","887.822612887","430.635881727","18","red","0"
"94","78","21","565.676257024","1","1","4","387","1","left","2","in","Female","Right-handed","2","no","left","d","384.435363899","575.504238747","18","red","3"
"94","78","21","567.675293365","1","1","4","388","2","right","2","in","Female","Right-handed","2","no","right","s","712.042621978","735.157633841","18","red","0"
"95","77","21","566.987844358","1","0","4","389","3","left","0","out","Female","Right-handed","2","no","left","s","617.805162706","407.553582947","18","green","1"
"95","77","21","570.817786346","1","1","4","390","0","right","2","out","Female","Right-handed","2","no","right","s","1163.17967477","591.246616037","18","green","3"
"95","78","21","569.543619879","1","1","4","391","0","left","1","out","Female","Right-handed","2","no","left","s","517.793199979","414.879072195","18","red","2"
"95","78","21","568.20428319","1","1","4","392","3","right","2","out","Female","Right-handed","2","no","right","d","413.410189882","503.347159421","18","green","0"
"95","77","21","566.554737698","1","0","4","393","3","left","1","out","Female","Right-handed","2","no","left","s","500.157952978","359.126970754","18","green","3"
"95","76","21","566.756761637","1","0","4","394","0","right","3","in","Female","Right-handed","2","no","right","s","720.769001579","446.684543393","18","green","2"
"95","75","21","568.274800417","1","0","4","395","3","left","2","out","Female","Right-handed","2","no","left","d","587.298914644","807.317278901","18","green","1"
"95","75","21","566.357613402","1","1","4","396","1","right","2","in","Female","Right-handed","2","no","right","s","420.007973036","382.951087173","18","green","3"
"95","76","21","566.047450628","1","1","4","397","2","right","1","out","Female","Right-handed","2","no","right","d","559.517154645","518.60942386","18","red","2"
"95","76","21","565.797601272","1","1","4","398","0","right","2","out","Female","Right-handed","2","no","right","d","592.417873268","495.2038427","18","green","1"
"95","76","21","563.892624347","1","1","4","399","1","right","2","in","Female","Right-handed","2","no","right","s","477.759422094","310.93993393","18","red","0"
"95","76","21","563.086440326","1","1","4","400","1","right","1","out","Female","Right-handed","2","no","right","s","413.644633751","567.415123136","18","red","0"
"95","77","21","562.527408202","1","1","4","401","3","left","2","in","Female","Right-handed","2","no","left","d","512.089895608","511.22107415","18","red","3"
"95","77","21","562.303699635","1","1","4","402","1","left","0","out","Female","Right-handed","2","no","left","s","684.671058552","398.773964349","18","red","2"
"95","77","21","560.671807987","1","1","4","403","3","right","2","out","Female","Right-handed","2","no","right","s","418.365903723","399.445865769","18","red","0"
"95","77","21","559.607566368","1","1","4","404","1","left","0","in","Female","Right-handed","2","no","left","d","488.066293416","431.071414932","18","green","1"
"95","78","21","558.368135434","1","1","4","405","3","left","3","out","Female","Right-handed","2","no","left","s","530.723854317","350.520539185","18","red","2"
"100","100","21","579.957229231","1","1","5","406","1","right","0","in","Female","Right-handed","2","no","right","s","752.555229818","407.359228644","18","red","2"
"100","50","21","581.092325665","1","0","5","407","2","left","3","out","Female","Right-handed","2","no","left","d","708.309159323","456.145684875","18","green","1"
"100","66","21","548.328847042","1","1","5","408","3","right","2","in","Female","Right-handed","2","no","right","d","485.810693149","479.793086444","18","green","1"
"100","75","21","527.250011786","1","1","5","409","1","left","0","out","Female","Right-handed","2","no","left","d","464.551668556","463.47534348","18","green","1"
"100","80","21","526.39789969","1","1","5","410","2","left","2","out","Female","Right-handed","2","no","left","d","405.988806335","639.990096271","18","red","1"
"83","66","21","623.443361597","0","0","5","411","3","right","2","out","Female","Right-handed","2","no","left","d","437.708966958","1779.63237531","18","green","1"
"85","71","21","624.616703501","1","1","5","412","3","left","2","out","Female","Right-handed","2","no","left","d","807.144412625","456.169097219","18","red","0"
"87","75","21","649.637814675","1","1","5","413","3","left","0","out","Female","Right-handed","2","no","left","d","601.764839638","1047.80634615","18","red","1"
"88","77","21","653.997877496","1","1","5","414","1","right","1","out","Female","Right-handed","2","no","right","d","922.403245408","455.353514728","18","red","2"
"90","80","21","636.398903534","1","1","5","415","1","right","2","in","Female","Right-handed","2","no","right","d","523.953204887","432.063070853","18","green","1"
"90","81","21","624.737511636","1","1","5","416","3","right","2","in","Female","Right-handed","2","no","right","s","664.636850939","351.610334386","18","red","3"
"91","83","21","613.280639052","1","1","5","417","2","right","2","in","Female","Right-handed","2","no","right","d","543.294343807","431.215737452","18","red","1"
"92","84","21","600.935910427","1","1","5","418","0","right","2","in","Female","Right-handed","2","no","right","s","601.824492943","303.773840889","18","red","3"
"92","85","21","598.405229535","1","1","5","419","1","right","0","in","Female","Right-handed","2","no","right","d","691.497833409","439.514922473","18","green","2"
"93","86","21","585.388533804","1","1","5","420","0","right","3","out","Female","Right-handed","2","no","right","s","447.199614369","359.109972778","18","green","0"
"93","87","21","575.825155862","1","1","5","421","3","left","0","in","Female","Right-handed","2","no","left","d","432.864221075","431.884752383","18","red","3"
"94","88","21","571.741543727","1","1","5","422","2","right","2","in","Female","Right-handed","2","no","right","d","581.426271907","431.381227245","18","red","1"
"94","88","21","593.921562257","1","1","5","423","1","left","1","in","Female","Right-handed","2","no","left","d","1135.11728769","806.846466817","18","red","2"
"94","89","21","593.012473534","1","1","5","424","2","left","2","out","Female","Right-handed","2","no","left","d","665.661540668","487.636212376","18","green","0"
"95","90","21","584.473064132","1","1","5","425","2","left","2","out","Female","Right-handed","2","no","left","s","493.203212187","351.245358819","18","red","0"
"95","90","21","577.567378487","1","1","5","426","1","right","2","out","Female","Right-handed","2","no","right","s","574.943305314","303.964025836","18","green","1"
"95","90","21","570.841769276","1","1","5","427","3","right","2","in","Female","Right-handed","2","no","right","s","531.632765313","327.575186413","18","red","1"
"95","91","21","574.1146641","1","1","5","428","2","left","1","in","Female","Right-handed","2","no","left","d","605.076239153","687.160461268","18","green","3"
"95","91","21","568.352050092","1","1","5","429","2","right","2","in","Female","Right-handed","2","no","right","s","487.770271924","383.853583888","18","red","3"
"96","88","21","562.888534605","1","0","5","430","3","right","2","out","Female","Right-handed","2","no","right","s","480.224771076","383.303554787","18","green","3"
"96","88","21","560.683847854","1","1","5","431","1","left","3","out","Female","Right-handed","2","no","left","s","660.031038947","351.102319197","18","red","0"
"96","85","21","602.154854857","1","0","5","432","0","right","2","in","Female","Right-handed","2","no","right","None","360.685974447","3000.11609943","18","red","3"
"96","85","21","596.899533537","1","1","5","433","2","left","2","in","Female","Right-handed","2","no","left","d","406.985914451","503.025801328","18","red","3"
"96","86","21","594.269923525","1","1","5","434","0","left","3","in","Female","Right-handed","2","no","left","d","457.70629216","583.575394237","18","red","2"
"96","83","21","594.705502462","1","0","5","435","1","right","2","in","Female","Right-handed","2","no","right","d","431.356852787","783.317730471","18","green","3"
"96","80","21","594.199671594","1","0","5","436","3","right","3","in","Female","Right-handed","2","no","right","s","606.917794241","551.131696848","18","green","0"
"96","81","21","589.216279131","1","1","5","437","2","left","2","in","Female","Right-handed","2","no","left","d","461.752453586","407.709771971","18","red","3"
"96","78","21","594.808436961","1","0","5","438","3","left","2","out","Female","Right-handed","2","no","left","s","772.260702885","775.254272187","18","green","0"
"97","76","21","591.029542742","1","0","5","439","2","right","1","out","Female","Right-handed","2","no","right","d","404.885541037","527.766525978","18","red","0"
"97","77","21","588.325766942","1","1","5","440","2","left","0","in","Female","Right-handed","2","no","left","s","489.344349306","503.450430202","18","green","1"
"97","75","21","593.45781042","1","0","5","441","0","right","0","in","Female","Right-handed","2","no","right","s","818.984630314","727.174033993","18","green","1"
"97","75","21","588.218417999","1","1","5","442","0","right","1","out","Female","Right-handed","2","no","right","s","439.604402403","359.596179246","18","red","3"
"97","73","21","583.916218986","1","0","5","443","1","right","2","in","Female","Right-handed","2","no","right","s","434.219248942","415.250462072","18","red","0"
"97","71","21","596.442702905","1","0","5","444","0","right","2","in","Female","Right-handed","2","no","right","d","409.867553651","1735.03063005","18","green","0"
"97","72","21","592.256332311","1","1","5","445","0","left","2","out","Female","Right-handed","2","no","left","s","586.448694783","271.527063509","18","green","1"
"97","73","21","614.336029256","1","1","5","446","3","left","1","in","Female","Right-handed","2","no","left","s","1124.10163254","1870.9461815","18","red","2"
"97","73","21","610.86487326","1","1","5","447","0","right","2","out","Female","Right-handed","2","no","right","s","513.528630544","423.566324375","18","red","3"
"97","72","21","605.455531365","1","0","5","448","1","right","0","out","Female","Right-handed","2","no","right","s","389.171066112","367.355277383","18","red","3"
"97","72","21","603.338312024","1","1","5","449","0","left","3","out","Female","Right-handed","2","no","left","s","697.777465627","326.818295085","18","green","2"
"97","73","21","597.698041915","1","1","5","450","2","right","0","out","Female","Right-handed","2","no","right","s","419.451208873","279.601105431","18","green","3"
"97","73","21","593.129602817","1","1","5","451","3","left","3","out","Female","Right-handed","2","no","left","s","447.980238707","327.119448047","18","red","2"
"97","74","21","592.900162904","1","1","5","452","0","left","0","in","Female","Right-handed","2","no","left","d","573.836191412","590.85566242","18","red","3"
"97","72","21","593.970756628","1","0","5","453","0","left","1","out","Female","Right-handed","2","no","left","d","849.308390549","439.268932794","18","red","0"
"97","73","21","594.703035125","1","1","5","454","1","left","3","out","Female","Right-handed","2","no","left","d","756.887791183","502.817014785","18","green","2"
"98","74","21","593.350122852","1","1","5","455","1","right","1","out","Female","Right-handed","2","no","right","d","470.518602058","583.596240816","18","green","3"
"98","74","21","590.034127838","1","1","5","456","1","left","2","in","Female","Right-handed","2","no","left","d","345.213961293","503.254793032","18","green","3"
"98","75","21","590.329832046","1","1","5","457","1","left","1","out","Female","Right-handed","2","no","left","d","740.002059","470.819434267","18","red","0"
"98","75","21","589.875612827","1","1","5","458","2","right","1","out","Female","Right-handed","2","no","right","d","637.244120211","495.268306753","18","green","2"
"98","75","21","586.017918868","1","1","5","459","3","left","1","in","Female","Right-handed","2","no","left","s","388.029314781","375.090963265","18","red","3"
"98","76","21","583.121023278","1","1","5","460","3","right","2","in","Female","Right-handed","2","no","right","s","494.472608727","358.904714114","18","green","3"
"98","76","21","588.107272416","1","1","5","461","1","right","3","out","Female","Right-handed","2","no","right","s","1285.29991981","439.402030199","18","green","1"
"98","77","21","588.516481706","1","1","5","462","2","left","2","in","Female","Right-handed","2","no","left","d","567.872465122","654.991938762","18","red","1"
"98","77","21","585.568703576","1","1","5","463","1","left","2","in","Female","Right-handed","2","no","left","s","500.66179884","334.428901435","18","green","1"
"98","77","21","581.707151737","1","1","5","464","0","left","2","in","Female","Right-handed","2","no","left","s","404.299271001","311.175019247","18","red","1"
"98","78","21","579.692071383","1","1","5","465","1","right","2","out","Female","Right-handed","2","no","right","s","626.753798977","294.850861944","18","green","3"
"98","78","21","579.442066262","1","1","5","466","3","left","1","in","Female","Right-handed","2","no","left","d","578.468622873","550.414895114","18","green","2"
"98","79","21","577.227971828","1","1","5","467","3","left","2","out","Female","Right-handed","2","no","left","d","413.168048777","471.168374002","18","green","3"
"98","79","21","575.301199653","1","1","5","468","0","left","2","out","Female","Right-handed","2","no","left","s","520.75565976","390.926989814","18","red","0"
"98","79","21","574.129612067","1","1","5","469","3","right","1","in","Female","Right-handed","2","no","right","d","497.177212324","503.461975983","18","green","0"
"98","80","21","574.357277029","1","1","5","470","3","left","0","out","Female","Right-handed","2","no","left","s","770.893167035","406.962502137","18","green","2"
"98","78","21","571.089663817","1","0","5","471","2","left","2","out","Female","Right-handed","2","no","left","s","382.632936264","334.756673866","18","green","3"
"98","77","21","567.510423855","1","0","5","472","0","left","2","out","Female","Right-handed","2","no","left","s","383.144800056","279.41637265","18","red","3"
"98","76","21","567.574715051","1","0","5","473","2","left","0","in","Female","Right-handed","2","no","left","d","536.790530663","606.973919639","18","green","2"
"98","76","21","565.299334413","1","1","5","474","1","right","3","out","Female","Right-handed","2","no","right","s","486.517873389","334.629028657","18","red","2"
"98","75","21","567.29001157","1","0","5","475","3","left","2","in","Female","Right-handed","2","no","left","d","810.239649116","599.05382173","18","green","1"
"98","76","21","566.747727578","1","1","5","476","3","left","2","out","Female","Right-handed","2","no","left","s","618.737165322","438.83853103","18","red","0"
"98","76","21","566.602861425","1","1","5","477","0","right","1","out","Female","Right-handed","2","no","right","d","506.289734797","606.344994274","18","red","2"
"98","76","21","566.904195139","1","1","5","478","0","right","3","out","Female","Right-handed","2","no","right","s","818.184442236","359.016002796","18","green","1"
"98","77","21","568.062533059","1","1","5","479","2","right","3","out","Female","Right-handed","2","no","right","s","490.470385528","814.772016951","18","green","2"
"98","77","21","566.585576668","1","1","5","480","2","right","3","in","Female","Right-handed","2","no","right","d","459.323666291","455.257941213","18","green","0"
"98","77","21","564.747646714","1","1","5","481","2","right","0","in","Female","Right-handed","2","no","right","s","486.945067969","366.86073232","18","green","2"
"98","77","21","566.608116718","1","1","5","482","3","left","3","in","Female","Right-handed","2","no","left","d","697.585997783","718.421676342","18","green","2"
"98","78","21","565.582104071","1","1","5","483","2","right","3","out","Female","Right-handed","2","no","right","d","486.107356061","487.050904456","18","red","2"
"98","78","21","564.495077109","1","1","5","484","1","right","2","in","Female","Right-handed","2","no","right","d","440.758340963","518.655607069","18","red","0"
"98","78","21","563.151309392","1","1","5","485","0","right","2","in","Female","Right-handed","2","no","right","d","435.483514041","478.503805469","18","red","0"
"98","79","21","561.23638997","1","1","5","486","3","left","2","out","Female","Right-handed","2","no","left","d","401.040468976","415.045203408","18","green","0"
"98","79","21","559.271943301","1","1","5","487","0","right","0","out","Female","Right-handed","2","no","right","s","393.734864192","406.56866206","18","red","2"
"98","79","21","562.585692451","1","1","5","488","1","left","2","out","Female","Right-handed","2","no","left","s","910.405235132","758.221010328","18","red","0"
"98","78","21","560.934382488","1","0","5","489","1","right","2","out","Female","Right-handed","2","no","right","s","440.777263226","406.974047917","18","red","0"
"98","78","21","558.859028975","1","1","5","490","0","left","2","in","Female","Right-handed","2","no","left","s","410.421752022","358.636915713","18","green","0"
"97","77","21","563.855257708","0","0","5","491","0","right","1","out","Female","Right-handed","2","no","left","d","392.047573812","1585.02182638","18","red","2"
"97","78","21","563.904414802","1","1","5","492","3","right","3","in","Female","Right-handed","2","no","right","d","713.614133594","422.649716143","18","red","1"
"97","78","21","564.211198322","1","1","5","493","1","right","2","in","Female","Right-handed","2","no","right","d","415.519864066","766.28286505","18","green","3"
"97","78","21","562.398426287","1","1","5","494","2","left","1","in","Female","Right-handed","2","no","left","s","422.91655243","382.832422009","18","green","2"
"96","77","21","569.338726435","0","0","5","495","0","left","2","in","Female","Right-handed","2","no","right","d","748.562628083","1625.48825104","18","red","1"
"96","78","21","567.808943814","1","1","5","496","3","left","0","out","Female","Right-handed","2","no","left","s","461.044952594","399.212063319","18","green","2"
"96","77","21","568.997594919","1","0","5","497","2","left","2","in","Female","Right-handed","2","no","left","s","683.669139689","670.66055123","18","green","0"
"96","77","21","568.543723343","1","1","5","498","2","right","2","out","Female","Right-handed","2","no","right","s","439.372844965","614.202231721","18","red","0"
"96","77","21","567.520843633","1","1","5","499","0","right","2","out","Female","Right-handed","2","no","right","s","585.849916766","358.936144359","18","green","1"
"96","77","21","567.121454708","1","1","5","500","1","left","2","in","Female","Right-handed","2","no","left","d","580.503890786","478.653900849","18","red","1"
"96","78","21","567.194545244","1","1","5","501","0","left","0","in","Female","Right-handed","2","no","left","s","766.025008838","382.251283445","18","green","2"
dis_reply=No
dis_loc=1
