"acc_1","acc_2","age","avg_rt","correct_1","correct_2","count_block_loop","count_trial_sequence","cue_position","detection","dis_position","dis_shape","gender","hand","high_loc","practice","response_keyboard_response_1","response_keyboard_response_2","response_time_keyboard_response_1","response_time_keyboard_response_2","subject_nr","tar_color","tar_position"
"100","0","22","1716.70488005","1","0","0","0","3","right","3","in","Female","Right-handed","3","yes","right","s","1660.56599433","1772.84376576","19","red","2"
"100","50","22","1358.38186578","1","1","0","1","3","left","3","in","Female","Right-handed","3","yes","left","s","1214.02769774","786.090005276","19","red","1"
"100","33","22","1363.75459146","1","0","0","2","1","right","1","in","Female","Right-handed","3","yes","right","d","1507.49947806","1241.5006076","19","green","3"
"100","25","22","1361.61252489","1","0","0","3","2","left","0","in","Female","Right-handed","3","yes","left","d","1557.2060704","1153.16657993","19","red","3"
"100","40","22","1408.2059527","1","1","0","4","3","right","0","out","Female","Right-handed","3","yes","right","d","939.603279898","2249.55604796","19","red","1"
"100","50","22","1353.11858467","1","1","0","5","2","right","1","in","Female","Right-handed","3","yes","right","d","1018.09611687","1137.26737219","19","red","3"
"100","57","22","1385.12245352","1","1","0","6","3","right","3","out","Female","Right-handed","3","yes","right","d","1768.57246127","1385.71887196","19","red","1"
"100","62","22","1337.01425858","1","1","0","7","3","left","1","out","Female","Right-handed","3","yes","left","s","847.243937431","1153.26985068","19","green","3"
"88","66","22","1348.36101136","0","1","0","8","3","left","1","out","Female","Right-handed","3","yes","right","s","1913.71791752","964.552149642","19","green","0"
"90","70","22","1307.59421774","1","1","0","9","2","left","0","out","Female","Right-handed","3","yes","left","d","1088.23877483","793.1473754","19","red","1"
"90","72","22","1335.43756992","1","1","0","10","0","left","3","in","Female","Right-handed","3","yes","left","s","1809.84420548","1417.8979781","19","green","2"
"91","75","22","1321.41826841","1","1","0","11","1","left","2","out","Female","Right-handed","3","yes","left","s","1117.14657105","1217.26533244","19","green","3"
"92","69","22","1301.64140813","1","0","0","12","2","left","1","in","Female","Right-handed","3","yes","left","d","1254.7369049","873.9012648","19","red","0"
"92","64","22","1286.62086008","1","0","0","13","0","left","0","out","Female","Right-handed","3","yes","left","s","1069.31456755","1113.39290324","19","red","3"
"93","66","22","1282.7058993","1","1","0","14","1","right","0","in","Female","Right-handed","3","yes","right","d","1269.85709186","1185.93580471","19","green","3"
"93","62","22","1273.34251024","1","0","0","15","0","right","3","in","Female","Right-handed","3","yes","right","d","1408.38872912","857.394619728","19","green","0"
"94","64","22","1271.07563595","1","1","0","16","1","left","2","in","Female","Right-handed","3","yes","left","s","1780.87354879","688.737745833","19","red","1"
"94","66","22","1245.21438181","1","1","0","17","0","left","2","in","Female","Right-handed","3","yes","left","s","881.621235545","729.524887138","19","red","0"
"94","68","22","1227.81454738","1","1","0","18","2","right","2","in","Female","Right-handed","3","yes","right","d","1036.05432555","793.180729932","19","red","0"
"95","70","22","1228.85875061","1","1","0","19","1","left","3","out","Female","Right-handed","3","yes","left","s","1919.73327918","577.663944743","19","green","2"
"95","71","22","1232.54145641","1","1","0","20","0","right","1","out","Female","Right-handed","3","yes","right","d","1803.10498629","809.286158503","19","red","2"
"95","72","22","1210.86746509","1","1","0","21","0","right","2","out","Female","Right-handed","3","yes","right","s","885.6224966","625.804798357","19","red","3"
"100","100","22","917.703463463","1","1","1","22","0","left","0","out","Female","Right-handed","3","no","left","d","1169.711711","665.695215925","19","green","3"
"100","100","22","901.738829518","1","1","1","23","1","right","0","out","Female","Right-handed","3","no","right","d","1122.28028261","649.268108536","19","green","1"
"100","66","22","907.272795497","1","0","1","24","3","right","1","in","Female","Right-handed","3","no","right","d","1075.01466476","761.666790146","19","red","3"
"100","75","22","950.567099218","1","1","1","25","3","left","3","out","Female","Right-handed","3","no","left","s","1087.41741948","1073.48260129","19","red","2"
"100","80","22","1056.74487984","1","1","1","26","3","left","3","out","Female","Right-handed","3","no","left","s","1937.10521783","1025.80678681","19","red","0"
"100","66","22","1153.12496693","1","0","1","27","1","right","3","in","Female","Right-handed","3","no","right","d","1252.62723072","2017.42357403","19","red","2"
"100","71","22","1105.46668879","1","1","1","28","2","right","0","out","Female","Right-handed","3","no","right","d","821.91501843","817.119021493","19","green","3"
"100","75","22","1106.53381621","1","1","1","29","3","right","3","in","Female","Right-handed","3","no","right","s","1474.55321765","753.454198595","19","red","1"
"100","77","22","1075.76831329","1","1","1","30","3","left","3","out","Female","Right-handed","3","no","left","s","1002.13918014","657.149399747","19","green","2"
"100","80","22","1064.51084135","1","1","1","31","0","right","3","out","Female","Right-handed","3","no","right","d","1252.74557516","673.641612608","19","green","2"
"100","72","22","1074.67213938","1","0","1","32","2","right","3","in","Female","Right-handed","3","no","right","s","1159.37629589","1193.19394344","19","green","1"
"100","75","22","1052.84638175","1","1","1","33","0","left","0","in","Female","Right-handed","3","no","left","d","967.701907968","657.824187627","19","red","1"
"100","76","22","1043.49233701","1","1","1","34","1","left","0","in","Female","Right-handed","3","no","left","s","1141.26478464","721.222815657","19","green","2"
"100","78","22","1042.38712801","1","1","1","35","2","left","3","out","Female","Right-handed","3","no","left","s","1383.11144552","672.927376581","19","red","2"
"100","80","22","1027.33304533","1","1","1","36","2","right","3","in","Female","Right-handed","3","no","right","s","943.583373679","689.568401955","19","red","0"
"100","81","22","1008.6040663","1","1","1","37","1","left","3","in","Female","Right-handed","3","no","left","d","750.184171542","705.15459025","19","red","0"
"100","82","22","1008.84573338","1","1","1","38","0","right","3","in","Female","Right-handed","3","no","right","d","1279.77429243","745.650520839","19","green","2"
"100","83","22","990.011457782","1","1","1","39","1","right","3","out","Female","Right-handed","3","no","right","s","818.353780633","521.303764544","19","red","0"
"100","84","22","982.951428156","1","1","1","40","3","left","1","out","Female","Right-handed","3","no","left","d","846.755806677","864.985983091","19","red","0"
"100","85","22","976.578038222","1","1","1","41","3","left","2","out","Female","Right-handed","3","no","left","d","1085.64513919","625.322119769","19","red","1"
"100","85","22","964.575248888","1","1","1","42","1","left","0","out","Female","Right-handed","3","no","left","s","920.06522094","528.973703476","19","red","3"
"100","86","22","969.939373181","1","1","1","43","0","right","3","out","Female","Right-handed","3","no","right","d","1267.53798968","897.633976972","19","green","1"
"100","86","22","965.494756834","1","1","1","44","0","left","1","out","Female","Right-handed","3","no","left","d","1046.15497607","689.27141832","19","red","2"
"100","87","22","958.196694673","1","1","1","45","0","right","1","in","Female","Right-handed","3","no","right","s","924.007149413","656.675380538","19","red","3"
"100","88","22","956.565817313","1","1","1","46","0","right","3","in","Female","Right-handed","3","no","right","s","1177.45958408","657.38993726","19","green","2"
"100","88","22","945.91201099","1","1","1","47","1","left","3","in","Female","Right-handed","3","no","left","s","694.022835669","665.110870148","19","red","0"
"100","88","22","935.009180039","1","1","1","48","2","right","0","out","Female","Right-handed","3","no","right","s","869.554271194","433.516879479","19","red","2"
"100","85","22","935.768235984","1","0","1","49","1","right","0","in","Female","Right-handed","3","no","right","d","1031.32183052","881.203662459","19","green","3"
"100","82","22","934.062855357","1","0","1","50","1","right","3","in","Female","Right-handed","3","no","right","d","979.816979845","792.807415739","19","red","2"
"100","83","22","933.203170477","1","1","1","51","3","right","3","out","Female","Right-handed","3","no","right","d","1055.35505418","761.189563753","19","red","1"
"100","83","22","921.739548132","1","1","1","52","0","left","3","in","Female","Right-handed","3","no","left","s","594.728636817","560.933118715","19","red","0"
"100","84","22","916.530692825","1","1","1","53","2","left","3","in","Female","Right-handed","3","no","left","s","884.48587677","625.626479887","19","red","2"
"100","84","22","908.263008188","1","1","1","54","0","left","0","in","Female","Right-handed","3","no","left","d","662.177916267","625.216283312","19","green","2"
"100","85","22","907.084025445","1","1","1","55","0","left","3","out","Female","Right-handed","3","no","left","d","1096.72782413","639.627365716","19","red","1"
"97","85","22","903.70532205","0","1","1","56","2","right","3","in","Female","Right-handed","3","no","left","d","941.369787266","636.289026006","19","green","2"
"97","86","22","902.112272889","1","1","1","57","2","left","2","out","Female","Right-handed","3","no","left","s","667.852676881","1024.85842764","19","green","0"
"97","86","22","897.394210938","1","1","1","58","2","left","2","out","Female","Right-handed","3","no","left","d","725.586807268","729.501154099","19","green","3"
"97","86","22","892.594091896","1","1","1","59","2","right","3","in","Female","Right-handed","3","no","right","s","765.03431506","664.945059631","19","green","0"
"97","87","22","883.27700932","1","1","1","60","1","left","1","in","Female","Right-handed","3","no","left","s","593.670271832","464.785471035","19","green","0"
"97","87","22","881.976757984","1","1","1","61","1","right","3","out","Female","Right-handed","3","no","right","s","1141.2811412","521.252770588","19","green","1"
"97","87","22","878.145253624","1","1","1","62","0","left","3","in","Female","Right-handed","3","no","left","d","776.919753815","672.850404575","19","red","2"
"97","88","22","875.89401869","1","1","1","63","2","right","0","out","Female","Right-handed","3","no","right","s","1046.67710277","520.509670081","19","green","1"
"97","86","22","875.317351932","1","0","1","64","1","left","1","out","Female","Right-handed","3","no","left","s","669.085511705","1033.10918447","19","green","3"
"97","86","22","873.061934731","1","1","1","65","1","right","2","in","Female","Right-handed","3","no","right","d","743.519037904","808.638952265","19","green","3"
"97","86","22","869.443100107","1","1","1","66","2","right","1","in","Female","Right-handed","3","no","right","s","619.198355882","801.230397396","19","red","3"
"97","86","22","863.311110039","1","1","1","67","3","left","3","out","Female","Right-handed","3","no","left","d","517.938484612","656.804629369","19","green","0"
"97","85","22","859.250460326","1","0","1","68","0","right","2","in","Female","Right-handed","3","no","right","s","536.419461481","808.501685533","19","red","0"
"97","85","22","857.256955436","1","1","1","69","3","left","3","in","Female","Right-handed","3","no","left","d","918.043743819","609.080707392","19","red","1"
"97","85","22","851.358061282","1","1","1","70","0","right","0","out","Female","Right-handed","3","no","right","s","647.655545181","488.766738592","19","red","3"
"98","86","22","847.038152775","1","1","1","71","3","left","3","in","Female","Right-handed","3","no","left","d","693.37562946","577.349642437","19","red","0"
"98","86","22","842.60576451","1","1","1","72","1","right","2","in","Female","Right-handed","3","no","right","s","521.026986069","720.945716457","19","green","0"
"98","86","22","835.201646654","1","1","1","73","2","right","1","out","Female","Right-handed","3","no","right","s","434.680760256","480.502511695","19","red","0"
"98","84","22","832.784130257","1","0","1","74","1","right","1","in","Female","Right-handed","3","no","right","s","957.165403524","456.981151801","19","red","2"
"98","85","22","825.302323858","1","1","1","75","0","left","1","in","Female","Right-handed","3","no","left","s","472.685043089","384.848126239","19","red","0"
"98","83","22","820.657969473","1","0","1","76","2","right","3","out","Female","Right-handed","3","no","right","s","547.330883681","592.394781677","19","green","0"
"98","83","22","820.010428217","1","1","1","77","1","left","3","in","Female","Right-handed","3","no","left","d","863.991119986","704.80019832","19","red","2"
"98","84","22","817.467347907","1","1","1","78","2","left","1","in","Female","Right-handed","3","no","left","d","597.622142523","752.48755858","19","green","3"
"98","82","22","815.592678361","1","0","1","79","1","left","3","in","Female","Right-handed","3","no","left","d","712.109972461","705.363056069","19","red","2"
"98","83","22","811.969184369","1","1","1","80","3","left","2","out","Female","Right-handed","3","no","left","d","418.72221994","784.89084568","19","red","0"
"98","81","22","811.734966487","1","0","1","81","1","left","2","in","Female","Right-handed","3","no","left","s","1043.4410717","552.39115117","19","green","1"
"98","81","22","810.320180538","1","1","1","82","3","right","3","out","Female","Right-handed","3","no","right","s","649.91210759","800.953939615","19","red","1"
"98","82","22","808.936585077","1","1","1","83","2","left","0","in","Female","Right-handed","3","no","left","d","656.512777176","792.561746784","19","red","3"
"98","80","22","805.916485249","1","0","1","84","2","left","2","out","Female","Right-handed","3","no","left","d","485.206783691","752.133808128","19","green","3"
"98","81","22","803.069018406","1","1","1","85","3","left","1","in","Female","Right-handed","3","no","left","d","526.641131204","720.716083335","19","green","3"
"98","81","22","803.866293619","1","1","1","86","1","left","3","out","Female","Right-handed","3","no","left","d","925.443639338","784.34017516","19","green","1"
"98","80","22","802.010414331","1","0","1","87","1","left","2","in","Female","Right-handed","3","no","left","s","545.845644869","816.910876369","19","green","3"
"98","80","22","804.870280187","1","1","1","88","3","right","3","out","Female","Right-handed","3","no","right","d","1394.73934876","592.503504624","19","red","2"
"98","80","22","803.689881497","1","1","1","89","3","right","0","out","Female","Right-handed","3","no","right","s","793.169504846","656.03683365","19","green","1"
"98","79","22","802.002483249","1","0","1","90","2","left","1","out","Female","Right-handed","3","no","left","s","725.710283179","648.808521568","19","green","2"
"98","78","22","805.035515018","1","0","1","91","1","right","3","out","Female","Right-handed","3","no","right","s","836.373566941","1192.25584721","19","green","1"
"98","78","22","803.166932024","1","1","1","92","0","right","1","out","Female","Right-handed","3","no","right","s","607.884434256","736.847810651","19","red","3"
"98","79","22","805.621603143","1","1","1","93","2","right","2","out","Female","Right-handed","3","no","right","d","1247.403077","712.403428188","19","green","1"
"98","79","22","801.716423726","1","1","1","94","1","left","1","out","Female","Right-handed","3","no","left","s","489.044158516","552.042852883","19","green","3"
"98","78","22","802.242930232","1","0","1","95","0","right","3","out","Female","Right-handed","3","no","right","s","840.716070525","840.639739938","19","red","0"
"98","78","22","802.462443277","1","1","1","96","1","right","3","out","Female","Right-handed","3","no","right","d","685.244179243","952.168637945","19","green","0"
"98","78","22","803.308356511","1","1","1","97","3","left","0","in","Female","Right-handed","3","no","left","d","1084.66278407","648.840913957","19","green","2"
"97","79","22","807.497804892","0","1","1","98","3","right","3","in","Female","Right-handed","3","no","left","s","472.466314328","1779.32544949","19","green","0"
"97","79","22","805.099942589","1","1","1","99","2","left","3","in","Female","Right-handed","3","no","left","s","672.969069739","567.960020737","19","green","1"
"97","78","22","803.7124622","1","0","1","100","3","left","0","out","Female","Right-handed","3","no","left","d","574.428234366","816.549749405","19","red","3"
"97","78","22","813.366778869","1","1","1","101","3","left","2","in","Female","Right-handed","3","no","left","d","2487.98964213","664.12594929","19","green","3"
"97","79","22","811.628704643","1","1","1","102","2","left","3","in","Female","Right-handed","3","no","left","s","800.583832606","544.581700466","19","green","0"
"97","79","22","812.524804207","1","1","1","103","3","right","3","in","Female","Right-handed","3","no","right","s","1066.05801059","704.159727145","19","red","2"
"97","78","22","813.196716614","1","0","1","104","3","right","1","in","Female","Right-handed","3","no","right","d","1079.75646062","656.830607419","19","green","2"
"97","78","22","811.234701185","1","1","1","105","0","left","3","out","Female","Right-handed","3","no","left","d","624.387872143","672.386969032","19","green","1"
"97","78","22","808.949871967","1","1","1","106","3","right","0","out","Female","Right-handed","3","no","right","d","578.088573617","655.959861673","19","red","3"
"97","77","22","809.133141203","1","0","1","107","0","right","2","out","Female","Right-handed","3","no","right","s","720.636545593","928.785506927","19","red","1"
"97","78","22","807.179602978","1","1","1","108","1","left","3","out","Female","Right-handed","3","no","left","d","718.186591053","560.164040158","19","red","1"
"97","78","22","805.187035105","1","1","1","109","0","left","2","out","Female","Right-handed","3","no","left","s","775.759400945","487.90785938","19","green","3"
"97","77","22","802.510683892","1","0","1","110","3","right","2","in","Female","Right-handed","3","no","right","s","589.488447324","544.495106995","19","green","3"
"97","76","22","800.416049688","1","0","1","111","0","right","3","out","Female","Right-handed","3","no","right","d","548.043195391","679.94401569","19","green","0"
"97","76","22","798.490254163","1","1","1","112","0","left","2","out","Female","Right-handed","3","no","left","s","522.641794436","727.695519308","19","red","3"
"97","77","22","799.307422132","1","1","1","113","0","right","3","in","Female","Right-handed","3","no","right","s","947.29919688","800.040217873","19","green","0"
"97","77","22","802.086221184","1","1","1","114","0","left","3","in","Female","Right-handed","3","no","left","d","1083.74617583","1031.72529206","19","green","1"
"97","76","22","803.44054632","1","0","1","115","2","right","3","in","Female","Right-handed","3","no","right","d","938.360182132","920.425385761","19","red","1"
"97","76","22","803.768224956","1","1","1","116","2","right","3","out","Female","Right-handed","3","no","right","s","1021.19423982","647.945793753","19","red","1"
"97","77","22","803.766551252","1","1","1","117","2","right","3","in","Female","Right-handed","3","no","right","s","902.615348168","704.599750432","19","red","2"
"100","0","22","1767.01041078","1","0","2","118","3","left","3","in","Female","Right-handed","3","no","left","None","533.835447335","3000.18537423","19","red","2"
"100","50","22","1228.37992865","1","1","2","119","2","left","3","in","Female","Right-handed","3","no","left","d","658.268380183","721.230512863","19","red","1"
"100","66","22","1008.02074951","1","1","2","120","2","left","3","out","Female","Right-handed","3","no","left","d","573.799629696","560.805152752","19","red","2"
"100","75","22","924.609294943","1","1","2","121","2","right","3","in","Female","Right-handed","3","no","right","s","779.295943532","569.453918957","19","green","1"
"100","80","22","867.900175013","1","1","2","122","0","left","3","in","Female","Right-handed","3","no","left","d","672.987671336","609.13971925","19","red","0"
"100","83","22","885.68757536","1","1","2","123","3","left","1","out","Female","Right-handed","3","no","left","s","644.656523684","1304.59263051","19","red","3"
"100","85","22","840.3210163","1","1","2","124","2","left","1","in","Female","Right-handed","3","no","left","d","415.028205432","721.21511845","19","red","0"
"100","87","22","811.064071329","1","1","2","125","0","right","1","in","Female","Right-handed","3","no","right","d","491.777626594","720.75328647","19","green","0"
"100","77","22","808.997887651","1","0","2","126","3","left","3","out","Female","Right-handed","3","no","left","s","607.406566414","977.530270029","19","red","2"
"100","70","22","820.934411194","1","0","2","127","3","left","1","in","Female","Right-handed","3","no","left","d","471.953488362","1384.7727578","19","green","0"
"100","63","22","835.084679544","1","0","2","128","3","left","3","in","Female","Right-handed","3","no","left","s","808.618747105","1144.555979","19","green","1"
"100","66","22","882.542039804","1","1","2","129","3","right","3","in","Female","Right-handed","3","no","right","s","1256.12753234","1553.01847297","19","green","2"
"100","69","22","872.431074964","1","1","2","130","0","left","2","out","Female","Right-handed","3","no","left","s","781.674699014","720.524294768","19","green","3"
"100","71","22","870.805043257","1","1","2","131","2","right","0","in","Female","Right-handed","3","no","right","s","1050.16040642","649.172855716","19","red","1"
"100","73","22","855.508966113","1","1","2","132","2","right","1","out","Female","Right-handed","3","no","right","s","569.771428447","712.956343748","19","red","3"
"100","75","22","852.749499921","1","1","2","133","2","left","3","in","Female","Right-handed","3","no","left","d","854.257048632","768.457965431","19","red","2"
"100","76","22","846.707246378","1","1","2","134","0","right","0","in","Female","Right-handed","3","no","right","s","930.9673424","569.095037004","19","red","1"
"100","77","22","840.372324603","1","1","2","135","0","left","3","out","Female","Right-handed","3","no","left","s","760.657174105","704.700134724","19","green","1"
"100","78","22","831.2062054","1","1","2","136","0","left","1","out","Female","Right-handed","3","no","left","d","563.112067699","769.320051797","19","green","3"
"100","80","22","828.860626801","1","1","2","137","0","left","3","out","Female","Right-handed","3","no","left","d","887.790541252","680.798725603","19","red","0"
"100","80","22","822.533039427","1","1","2","138","3","left","3","out","Female","Right-handed","3","no","left","d","727.558893996","664.403689909","19","red","0"
"100","77","22","820.487683503","1","0","2","139","1","right","3","in","Female","Right-handed","3","no","right","s","674.046357046","881.02406112","19","green","0"
"100","78","22","811.944425491","1","1","2","140","1","right","0","out","Female","Right-handed","3","no","right","d","479.502196424","768.483302032","19","green","3"
"100","75","22","814.158766612","1","0","2","141","1","right","0","out","Female","Right-handed","3","no","right","s","1016.95083766","713.226387161","19","green","2"
"100","76","22","803.106281972","1","1","2","142","2","left","2","in","Female","Right-handed","3","no","left","s","530.925905798","544.767395419","19","green","3"
"100","76","22","809.844834565","1","1","2","143","1","left","2","out","Female","Right-handed","3","no","left","s","1028.21601037","928.401288402","19","red","1"
"100","77","22","805.406930109","1","1","2","144","3","right","2","in","Female","Right-handed","3","no","right","s","539.070826082","840.972002421","19","red","3"
"100","78","22","809.01929358","1","1","2","145","0","right","2","out","Female","Right-handed","3","no","right","s","1092.48410127","720.622113353","19","red","1"
"100","79","22","803.975483179","1","1","2","146","1","right","3","in","Female","Right-handed","3","no","right","d","693.152731372","632.344852522","19","green","2"
"100","76","22","797.052854426","1","0","2","147","3","left","1","in","Female","Right-handed","3","no","left","s","463.684771443","728.908469726","19","green","3"
"100","77","22","787.678416617","1","1","2","148","3","right","3","out","Female","Right-handed","3","no","right","s","524.488480965","488.402083749","19","green","0"
"100","78","22","784.127940931","1","1","2","149","0","right","3","out","Female","Right-handed","3","no","right","s","754.988827859","593.13756146","19","red","1"
"100","75","22","778.535835339","1","0","2","150","0","right","1","out","Female","Right-handed","3","no","right","s","494.703845412","704.473067337","19","green","3"
"100","73","22","772.392748528","1","0","2","151","0","left","2","out","Female","Right-handed","3","no","left","s","483.158366347","656.183401181","19","red","3"
"100","71","22","772.160126131","1","0","2","152","0","right","3","in","Female","Right-handed","3","no","right","s","671.829242754","856.672686525","19","red","1"
"100","72","22","765.764800726","1","1","2","153","1","right","1","in","Female","Right-handed","3","no","right","s","555.396587006","528.460236092","19","red","3"
"100","72","22","762.05814248","1","1","2","154","2","right","0","in","Female","Right-handed","3","no","right","d","568.084458821","689.15243246","19","red","3"
"100","71","22","761.32503278","1","0","2","155","1","left","3","out","Female","Right-handed","3","no","left","d","715.777688165","752.622259606","19","green","1"
"100","69","22","761.37481874","1","0","2","156","3","left","3","in","Female","Right-handed","3","no","left","d","662.222816638","864.310553792","19","green","1"
"100","70","22","763.208727694","1","1","2","157","0","right","0","out","Female","Right-handed","3","no","right","d","892.709693377","776.752660429","19","green","2"
"100","70","22","757.928325098","1","1","2","158","3","right","3","in","Female","Right-handed","3","no","right","s","557.224351243","536.200091272","19","green","0"
"100","69","22","756.7737955","1","0","2","159","0","right","1","out","Female","Right-handed","3","no","right","s","794.017159002","624.859004951","19","red","2"
"100","69","22","757.572077471","1","1","2","160","2","right","2","in","Female","Right-handed","3","no","right","s","973.491485114","608.708355343","19","red","1"
"100","68","22","758.836472901","1","0","2","161","2","left","3","in","Female","Right-handed","3","no","left","s","642.181232484","984.229720372","19","red","1"
"100","68","22","755.367348328","1","1","2","162","0","left","3","in","Female","Right-handed","3","no","left","s","612.737198011","592.714536178","19","green","2"
"100","69","22","752.627464269","1","1","2","163","2","left","1","out","Female","Right-handed","3","no","left","d","618.211831432","640.453531843","19","green","2"
"100","70","22","754.88888024","1","1","2","164","1","left","1","in","Female","Right-handed","3","no","left","s","1037.88625912","679.941770679","19","red","0"
"100","70","22","751.634382124","1","1","2","165","1","left","2","out","Female","Right-handed","3","no","left","s","484.759704646","712.58623671","19","green","3"
"100","71","22","748.562376114","1","1","2","166","3","left","1","in","Female","Right-handed","3","no","left","d","554.224688298","647.987486911","19","green","2"
"100","72","22","748.576043683","1","1","2","167","3","left","3","out","Female","Right-handed","3","no","left","d","817.758851219","680.732657958","19","red","0"
"100","72","22","746.276305062","1","1","2","168","2","left","3","out","Female","Right-handed","3","no","left","s","662.362969801","600.215778162","19","green","1"
"100","73","22","746.319702307","1","1","2","169","3","left","0","in","Female","Right-handed","3","no","left","d","873.006786045","624.059137568","19","red","3"
"100","73","22","742.92838976","1","1","2","170","1","right","0","in","Female","Right-handed","3","no","right","s","684.554959123","448.605315498","19","green","1"
"100","74","22","740.940737274","1","1","2","171","3","left","0","out","Female","Right-handed","3","no","left","s","559.215680987","711.974630045","19","green","3"
"100","74","22","742.003718738","1","1","2","172","0","right","3","out","Female","Right-handed","3","no","right","s","1078.84851174","519.960923877","19","red","2"
"100","75","22","744.021583727","1","1","2","173","2","right","3","out","Female","Right-handed","3","no","right","s","829.524021217","880.48429499","19","green","2"
"100","75","22","742.985995557","1","1","2","174","2","left","3","out","Female","Right-handed","3","no","left","s","498.07457751","871.911538648","19","green","0"
"100","74","22","738.184933697","1","0","2","175","0","left","3","in","Female","Right-handed","3","no","left","s","552.508533467","376.540281839","19","green","0"
"100","72","22","735.717950309","1","0","2","176","2","left","3","in","Female","Right-handed","3","no","left","s","593.10581052","592.160017084","19","red","2"
"100","73","22","732.494565723","1","1","2","177","1","left","3","in","Female","Right-handed","3","no","left","s","604.692982772","479.936767486","19","red","2"
"100","73","22","735.936531055","1","1","2","178","1","left","3","in","Female","Right-handed","3","no","left","s","1044.42086106","840.488040965","19","green","1"
"100","74","22","734.520737109","1","1","2","179","0","left","3","out","Female","Right-handed","3","no","left","s","520.205951412","776.108661375","19","green","2"
"100","73","22","731.841853738","1","0","2","180","1","left","3","out","Female","Right-handed","3","no","left","s","546.801059769","584.701109707","19","red","1"
"100","73","22","729.831700223","1","1","2","181","2","right","1","out","Female","Right-handed","3","no","right","d","542.252656101","664.131401485","19","green","3"
"100","73","22","729.572622105","1","1","2","182","1","right","1","out","Female","Right-handed","3","no","right","d","802.046942001","623.936303105","19","green","3"
"100","74","22","728.996557456","1","1","2","183","0","right","3","in","Female","Right-handed","3","no","right","s","766.522119695","616.582590796","19","green","0"
"100","74","22","733.445083463","1","1","2","184","0","left","3","out","Female","Right-handed","3","no","left","d","862.030258315","1192.06534151","19","red","1"
"100","75","22","734.383397882","1","1","2","185","2","left","0","in","Female","Right-handed","3","no","left","s","897.792090283","696.708837699","19","red","3"
"100","75","22","732.466609572","1","1","2","186","1","left","3","in","Female","Right-handed","3","no","left","d","532.058677054","672.191331862","19","green","2"
"100","75","22","731.85596578","1","1","2","187","1","left","2","out","Female","Right-handed","3","no","left","s","515.721691045","863.721397269","19","green","0"
"100","76","22","729.457789592","1","1","2","188","3","left","3","in","Female","Right-handed","3","no","left","s","498.635831667","624.535081122","19","green","2"
"100","76","22","727.556279269","1","1","2","189","2","right","3","out","Female","Right-handed","3","no","right","s","577.052658802","608.045433997","19","red","0"
"100","76","22","726.33235487","1","1","2","190","2","right","0","in","Female","Right-handed","3","no","right","d","684.754765622","591.664830543","19","green","2"
"100","77","22","724.155906037","1","1","2","191","2","right","2","in","Female","Right-handed","3","no","right","s","602.186261327","528.364021127","19","red","3"
"100","76","22","724.307299585","1","0","2","192","2","right","2","out","Female","Right-handed","3","no","right","s","671.094801597","799.926042731","19","red","0"
"100","76","22","722.185623949","1","1","2","193","1","right","3","out","Female","Right-handed","3","no","right","d","470.569595986","655.550306488","19","green","0"
"100","75","22","721.717731443","1","0","2","194","1","right","3","in","Female","Right-handed","3","no","right","s","748.151148611","624.16465336","19","red","1"
"100","75","22","721.160039479","1","1","2","195","1","left","3","out","Female","Right-handed","3","no","left","s","860.678116907","495.757399651","19","red","0"
"100","75","22","719.655958468","1","1","2","196","2","right","3","out","Female","Right-handed","3","no","right","d","564.329508139","640.34577104","19","green","0"
"100","76","22","716.15868956","1","1","2","197","2","right","3","out","Female","Right-handed","3","no","right","s","455.779105774","423.969785945","19","red","0"
"100","76","22","716.738674089","1","1","2","198","1","right","0","out","Female","Right-handed","3","no","right","s","654.612851707","871.662021091","19","red","3"
"100","75","22","717.24976984","1","0","2","199","1","right","3","in","Female","Right-handed","3","no","right","s","829.033966118","688.263085147","19","red","0"
"100","75","22","715.460976623","1","1","2","200","0","left","0","out","Female","Right-handed","3","no","left","s","481.737912254","655.821953493","19","red","3"
"100","75","22","713.887405191","1","0","2","201","1","right","2","out","Female","Right-handed","3","no","right","s","630.229084694","536.332867981","19","red","3"
"100","75","22","717.452632836","1","1","2","202","3","right","0","in","Female","Right-handed","3","no","right","s","1353.88261193","679.98089813","19","green","1"
"100","75","22","719.069374824","1","1","2","203","3","right","3","out","Female","Right-handed","3","no","right","d","1041.4853415","671.499546035","19","green","1"
"100","75","22","717.835815475","1","1","2","204","3","left","0","in","Female","Right-handed","3","no","left","d","599.235026632","624.264396261","19","red","2"
"100","76","22","717.787927463","1","1","2","205","0","right","3","in","Female","Right-handed","3","no","right","d","659.630784561","767.612556316","19","red","2"
"100","76","22","717.636715106","1","1","2","206","0","right","0","in","Female","Right-handed","3","no","right","s","544.298507681","864.361547749","19","red","3"
"100","76","22","717.745582457","1","1","2","207","3","right","3","out","Female","Right-handed","3","no","right","d","870.962858753","583.906694548","19","red","1"
"100","76","22","717.847278088","1","1","2","208","3","right","2","out","Female","Right-handed","3","no","right","d","646.432011126","807.567758602","19","green","3"
"100","77","22","716.775268648","1","1","2","209","3","right","2","in","Female","Right-handed","3","no","right","d","582.195991883","656.248827378","19","green","0"
"100","77","22","715.727008061","1","1","2","210","1","right","1","out","Female","Right-handed","3","no","right","d","582.802146353","655.771921709","19","red","2"
"100","76","22","714.846214416","1","0","2","211","0","right","2","in","Female","Right-handed","3","no","right","d","498.45783395","767.406976956","19","green","0"
"100","76","22","713.137393346","1","1","2","212","1","left","3","out","Female","Right-handed","3","no","left","s","553.008530755","552.007894759","19","green","2"
"100","77","22","712.388344499","1","1","2","213","3","left","2","in","Female","Right-handed","3","no","left","s","706.683446566","575.773961464","19","green","1"
"100","100","22","782.428703882","1","1","3","214","3","right","3","out","Female","Right-handed","3","no","right","d","996.494566876","568.362840888","19","red","1"
"100","100","22","667.554410393","1","1","3","215","0","left","3","out","Female","Right-handed","3","no","left","d","569.105941395","536.254292412","19","red","2"
"100","100","22","713.833503803","1","1","3","216","1","left","0","out","Female","Right-handed","3","no","left","d","1075.97328688","536.810094374","19","red","2"
"100","100","22","697.353237654","1","1","3","217","1","right","3","in","Female","Right-handed","3","no","right","s","623.396857671","672.428020742","19","red","2"
"100","100","22","722.695450348","1","1","3","218","0","left","0","out","Female","Right-handed","3","no","left","s","528.084997612","1120.04360463","19","green","2"
"100","100","22","695.167099262","1","1","3","219","1","left","1","in","Female","Right-handed","3","no","left","d","530.557402351","584.493285307","19","red","0"
"100","100","22","681.731667461","1","1","3","220","0","left","2","out","Female","Right-handed","3","no","left","d","610.119508667","592.11864465","19","red","1"
"100","87","22","689.688249777","1","0","3","221","2","right","0","in","Female","Right-handed","3","no","right","s","737.840428686","752.928223286","19","red","1"
"100","88","22","671.542878413","1","1","3","222","1","right","0","out","Female","Right-handed","3","no","right","s","460.324623011","592.435191997","19","green","3"
"100","90","22","681.047072548","1","1","3","223","2","right","3","out","Female","Right-handed","3","no","right","d","909.134235","624.035404529","19","red","1"
"100","90","22","664.19685682","1","1","3","224","0","left","3","out","Female","Right-handed","3","no","left","s","462.66553388","528.723865194","19","green","0"
"100","91","22","652.701580844","1","1","3","225","1","right","2","out","Female","Right-handed","3","no","right","d","500.362890889","552.144199319","19","green","0"
"100","84","22","651.410693201","1","0","3","226","3","left","3","out","Female","Right-handed","3","no","left","d","471.838030382","800.002052594","19","red","0"
"100","85","22","637.986877098","1","1","3","227","1","right","2","in","Female","Right-handed","3","no","right","s","486.539682111","440.414853423","19","green","3"
"100","86","22","639.363052436","1","1","3","228","0","right","1","out","Female","Right-handed","3","no","right","d","493.234963127","824.024051195","19","red","3"
"100","87","22","632.480676019","1","1","3","229","2","left","2","out","Female","Right-handed","3","no","left","d","393.667192955","664.822866587","19","green","3"
"100","88","22","631.87826637","1","1","3","230","2","left","1","out","Female","Right-handed","3","no","left","d","612.289477576","632.189946366","19","green","2"
"100","88","22","632.024812922","1","1","3","231","1","left","3","out","Female","Right-handed","3","no","left","d","532.936478558","736.09573007","19","red","2"
"100","89","22","626.684135935","1","1","3","232","0","left","3","in","Female","Right-handed","3","no","left","s","540.578515123","520.525385218","19","green","2"
"100","90","22","624.665773151","1","1","3","233","1","right","3","in","Female","Right-handed","3","no","right","s","652.296956687","520.336803806","19","green","2"
"100","90","22","635.557616389","1","1","3","234","2","right","3","in","Female","Right-handed","3","no","right","s","962.860048545","743.928913784","19","green","0"
"100","86","22","636.594537782","1","0","3","235","0","right","3","in","Female","Right-handed","3","no","right","s","796.319904621","520.419869426","19","red","0"
"100","86","22","636.087058175","1","1","3","236","0","right","1","in","Female","Right-handed","3","no","right","d","449.990811467","799.854202196","19","red","3"
"100","87","22","639.526647332","1","1","3","237","0","left","3","in","Female","Right-handed","3","no","left","d","676.677195821","760.597200075","19","red","0"
"100","88","22","635.831991936","1","1","3","238","3","left","3","out","Female","Right-handed","3","no","left","s","494.260935724","600.059589138","19","green","0"
"100","84","22","643.659020856","1","0","3","239","3","right","0","in","Female","Right-handed","3","no","right","d","774.87999585","903.789491829","19","green","3"
"100","81","22","643.203599999","1","0","3","240","2","left","3","in","Female","Right-handed","3","no","left","s","550.430289499","712.295025965","19","red","0"
"100","78","22","642.656815213","1","0","3","241","2","right","3","out","Female","Right-handed","3","no","right","s","567.944626353","687.84262563","19","red","0"
"100","79","22","639.668920652","1","1","3","242","2","right","0","out","Female","Right-handed","3","no","right","s","711.495479336","400.520266558","19","red","2"
"100","80","22","645.749905576","1","1","3","243","3","right","1","out","Female","Right-handed","3","no","right","d","980.125829956","664.071106759","19","green","2"
"100","80","22","642.62335593","1","1","3","244","0","left","1","out","Female","Right-handed","3","no","left","s","577.741237474","519.912495656","19","red","2"
"100","81","22","638.146155874","1","1","3","245","1","right","3","in","Female","Right-handed","3","no","right","s","534.257189749","464.448718529","19","red","0"
"100","81","22","639.158060065","1","1","3","246","1","right","3","in","Female","Right-handed","3","no","right","s","903.115024703","439.962963632","19","red","1"
"100","82","22","638.334288032","1","1","3","247","3","left","2","in","Female","Right-handed","3","no","left","s","421.456970886","800.842650962","19","red","0"
"100","82","22","643.603583395","1","1","3","248","0","right","3","out","Female","Right-handed","3","no","right","d","749.147294584","896.371956915","19","green","1"
"100","80","22","650.874382304","1","0","3","249","1","left","3","in","Female","Right-handed","3","no","left","s","907.00595922","903.698729031","19","red","2"
"100","81","22","650.804016299","1","1","3","250","0","left","3","out","Female","Right-handed","3","no","left","d","648.263623967","648.278056236","19","red","1"
"100","81","22","647.863078394","1","1","3","251","0","left","1","in","Female","Right-handed","3","no","left","d","414.079846261","664.01690559","19","green","0"
"100","79","22","648.29377133","1","0","3","252","3","left","3","in","Female","Right-handed","3","no","left","s","585.606492852","743.713712902","19","red","2"
"100","77","22","647.450699435","1","0","3","253","0","right","3","out","Female","Right-handed","3","no","right","s","669.153824361","559.987966728","19","green","2"
"100","78","22","650.265697717","1","1","3","254","2","right","3","in","Female","Right-handed","3","no","right","s","965.910063998","559.821194038","19","green","1"
"100","78","22","648.759703913","1","1","3","255","2","right","3","in","Female","Right-handed","3","no","right","s","765.565742593","408.462173247","19","red","1"
"100","79","22","647.869481834","1","1","3","256","3","right","3","in","Female","Right-handed","3","no","right","s","589.000957989","631.959351071","19","green","2"
"100","79","22","650.636548223","1","1","3","257","0","left","3","in","Female","Right-handed","3","no","left","d","443.811884266","1095.42892163","19","red","0"
"100","77","22","646.518390802","1","0","3","258","1","right","2","out","Female","Right-handed","3","no","right","s","530.233799218","400.405129301","19","green","3"
"100","78","22","646.992752821","1","1","3","259","3","right","3","out","Female","Right-handed","3","no","right","d","744.862199295","591.815888125","19","green","1"
"100","78","22","642.960243028","1","1","3","260","0","left","0","in","Female","Right-handed","3","no","left","s","507.556565601","407.373019436","19","red","3"
"100","79","22","640.911498531","1","1","3","261","1","left","1","out","Female","Right-handed","3","no","left","s","561.017787899","528.223226517","19","red","2"
"100","79","22","638.672196241","1","1","3","262","2","left","3","in","Female","Right-handed","3","no","left","s","614.682986023","447.688386543","19","green","2"
"100","80","22","635.197896612","1","1","3","263","3","left","0","out","Female","Right-handed","3","no","left","s","426.410118992","503.504310589","19","green","3"
"100","78","22","634.979939204","1","0","3","264","1","right","0","in","Female","Right-handed","3","no","right","s","599.995125085","648.169012536","19","green","3"
"100","78","22","633.405407002","1","1","3","265","2","left","2","out","Female","Right-handed","3","no","left","s","682.768888073","423.439641308","19","red","1"
"100","79","22","630.364908209","1","1","3","266","0","left","0","out","Female","Right-handed","3","no","left","s","400.186400541","544.331541489","19","green","3"
"100","77","22","631.198661652","1","0","3","267","0","right","3","out","Female","Right-handed","3","no","right","s","678.861596971","671.913591242","19","red","1"
"100","76","22","631.222399598","1","0","3","268","3","right","1","in","Female","Right-handed","3","no","right","s","561.485713522","703.522783879","19","green","0"
"100","76","22","629.361975668","1","1","3","269","1","right","1","out","Female","Right-handed","3","no","right","d","461.9439214","592.133397615","19","green","3"
"100","77","22","629.261620391","1","1","3","270","1","left","2","out","Female","Right-handed","3","no","left","s","599.672484153","647.610965563","19","green","1"
"100","77","22","628.030328693","1","1","3","271","3","left","0","out","Female","Right-handed","3","no","left","s","636.311796901","479.381606972","19","green","1"
"100","77","22","628.749197468","1","1","3","272","1","left","3","out","Female","Right-handed","3","no","left","s","716.964660532","623.922512284","19","red","0"
"100","78","22","627.712242001","1","1","3","273","1","right","3","out","Female","Right-handed","3","no","right","s","629.603045789","503.460693115","19","green","1"
"100","78","22","630.268567028","1","1","3","274","1","left","3","in","Female","Right-handed","3","no","left","d","711.199137149","856.097000098","19","green","0"
"100","79","22","630.961686909","1","1","3","275","3","right","3","out","Female","Right-handed","3","no","right","d","570.842942805","775.641056476","19","red","0"
"100","79","22","629.140129463","1","1","3","276","0","right","2","out","Female","Right-handed","3","no","right","s","465.185084002","567.22205173","19","green","0"
"100","79","22","630.864955596","1","1","3","277","3","right","3","in","Female","Right-handed","3","no","right","d","863.107866317","615.950137522","19","green","1"
"100","80","22","629.452096785","1","1","3","278","2","left","2","in","Female","Right-handed","3","no","left","d","478.643317212","599.414948666","19","green","0"
"100","80","22","629.355360193","1","1","3","279","3","left","3","in","Female","Right-handed","3","no","left","d","647.061577911","599.073385412","19","green","2"
"100","80","22","627.346452244","1","1","3","280","3","right","1","out","Female","Right-handed","3","no","right","s","501.630683866","487.886371353","19","red","3"
"100","80","22","626.370077992","1","1","3","281","0","right","2","in","Female","Right-handed","3","no","right","s","546.47424951","575.431756763","19","red","3"
"100","81","22","623.495306077","1","1","3","282","2","left","0","in","Female","Right-handed","3","no","left","s","448.908713443","407.112918241","19","green","3"
"100","81","22","622.640793354","1","1","3","283","2","left","3","out","Female","Right-handed","3","no","left","s","599.711290852","527.64754009","19","green","2"
"100","81","22","620.882219982","1","1","3","284","1","left","3","in","Female","Right-handed","3","no","left","s","668.269608548","327.294559334","19","red","1"
"100","81","22","620.007265658","1","1","3","285","2","right","1","out","Female","Right-handed","3","no","right","d","475.991631858","639.779385441","19","red","3"
"100","80","22","619.865092865","1","0","3","286","2","left","3","in","Female","Right-handed","3","no","left","s","683.702173526","535.555130074","19","green","0"
"100","81","22","622.402629533","1","1","3","287","2","right","3","in","Female","Right-handed","3","no","right","d","888.156799658","727.128812956","19","red","2"
"100","81","22","620.755039715","1","1","3","288","1","left","1","out","Female","Right-handed","3","no","left","s","437.923205696","559.743580641","19","red","3"
"100","81","22","620.190402139","1","1","3","289","0","right","2","out","Female","Right-handed","3","no","right","s","452.438521024","703.246646823","19","green","3"
"100","81","22","622.726195411","1","1","3","290","0","left","0","in","Female","Right-handed","3","no","left","s","863.994006446","766.898961738","19","red","1"
"100","82","22","622.41723481","1","1","3","291","2","left","2","in","Female","Right-handed","3","no","left","s","493.513665919","703.740871191","19","red","3"
"100","82","22","621.598877456","1","1","3","292","3","left","3","in","Female","Right-handed","3","no","left","d","588.33418804","527.199819626","19","green","2"
"100","82","22","624.84487737","1","1","3","293","1","right","0","out","Female","Right-handed","3","no","right","d","1042.68706683","719.87067422","19","red","1"
"100","82","22","624.598547375","1","1","3","294","0","right","3","out","Female","Right-handed","3","no","right","s","642.441975128","567.342320457","19","red","2"
"100","82","22","624.251203843","1","1","3","295","3","left","1","in","Female","Right-handed","3","no","left","d","425.120517292","767.112238304","19","red","3"
"100","83","22","623.685151048","1","1","3","296","3","left","2","in","Female","Right-handed","3","no","left","s","586.739584804","567.798058823","19","green","3"
"100","83","22","623.066422162","1","1","3","297","3","right","3","in","Female","Right-handed","3","no","right","d","648.234118038","495.189731155","19","green","1"
"100","83","22","622.152609099","1","1","3","298","2","right","1","in","Female","Right-handed","3","no","right","s","555.85296682","534.931656876","19","red","0"
"100","83","22","621.185208643","1","1","3","299","1","right","3","in","Female","Right-handed","3","no","right","s","670.505965827","407.406373968","19","green","0"
"100","82","22","620.823388491","1","0","3","300","2","right","0","out","Female","Right-handed","3","no","right","s","484.16028521","695.253425511","19","red","3"
"100","82","22","622.661674872","1","1","3","301","3","left","0","in","Female","Right-handed","3","no","left","d","933.598501869","631.586678326","19","green","2"
"100","82","22","624.967120687","1","0","3","302","2","right","3","in","Female","Right-handed","3","no","right","d","968.326984759","687.365719932","19","green","1"
"100","82","22","622.923210846","1","1","3","303","3","left","2","out","Female","Right-handed","3","no","left","s","482.974274986","399.056195019","19","green","3"
"100","82","22","622.891528054","1","1","3","304","0","right","3","in","Female","Right-handed","3","no","right","s","680.604050605","559.476102935","19","red","1"
"100","82","22","622.328667269","1","1","3","305","1","left","3","in","Female","Right-handed","3","no","left","d","599.208086409","543.008585257","19","green","1"
"100","82","22","621.82177678","1","1","3","306","3","right","2","in","Female","Right-handed","3","no","right","d","526.630226843","623.745476711","19","red","1"
"100","82","22","620.658949023","1","1","3","307","3","left","3","out","Female","Right-handed","3","no","left","s","545.553792676","479.47814269","19","red","0"
"100","83","22","623.7943134","1","1","3","308","2","left","3","out","Female","Right-handed","3","no","left","s","686.017747823","1151.01938185","19","green","2"
"100","82","22","623.610951087","1","0","3","309","2","right","1","out","Female","Right-handed","3","no","right","s","501.730426738","710.652635957","19","green","3"
"100","100","22","755.700979178","1","1","4","310","2","right","3","in","Female","Right-handed","3","no","right","s","983.291624114","528.110334243","19","green","1"
"100","100","22","724.500620105","1","1","4","311","0","left","3","out","Female","Right-handed","3","no","left","d","834.73021473","551.870307332","19","green","1"
"100","100","22","757.86474758","1","1","4","312","1","left","0","out","Female","Right-handed","3","no","left","d","881.664211571","767.521793488","19","green","1"
"100","100","22","756.809335868","1","1","4","313","1","right","1","in","Female","Right-handed","3","no","right","d","867.021892453","640.264309011","19","red","2"
"100","100","22","722.001227064","1","1","4","314","0","right","3","in","Female","Right-handed","3","no","right","d","597.819704009","567.717879691","19","red","1"
"100","100","22","694.633373287","1","1","4","315","1","left","1","in","Female","Right-handed","3","no","left","d","595.235689863","520.352518943","19","green","3"
"100","100","22","711.892916008","1","1","4","316","1","left","0","in","Female","Right-handed","3","no","left","d","839.113128633","791.787216032","19","red","3"
"100","100","22","710.907525521","1","1","4","317","3","right","3","out","Female","Right-handed","3","no","right","d","800.425719295","607.59386493","19","green","2"
"100","100","22","697.663290483","1","1","4","318","3","right","3","out","Female","Right-handed","3","no","right","s","655.185651646","528.233168705","19","red","0"
"100","100","22","732.829455388","1","1","4","319","2","left","3","in","Female","Right-handed","3","no","left","s","538.814573491","1559.83530558","19","green","1"
"100","100","22","718.194638101","1","1","4","320","2","right","2","in","Female","Right-handed","3","no","right","s","543.397614558","600.295315904","19","green","3"
"100","100","22","709.379564534","1","1","4","321","0","left","2","out","Female","Right-handed","3","no","left","d","496.880549413","727.946961182","19","red","3"
"100","100","22","739.622096106","1","1","4","322","1","left","3","out","Female","Right-handed","3","no","left","s","725.522984634","1479.54196529","19","red","0"
"100","100","22","733.30272322","1","1","4","323","0","left","3","out","Female","Right-handed","3","no","left","d","686.173295398","616.128456022","19","red","2"
"100","100","22","727.627965682","1","1","4","324","2","right","3","in","Female","Right-handed","3","no","right","s","552.728865819","743.633854465","19","red","0"
"100","100","22","718.392280656","1","1","4","325","0","left","1","out","Female","Right-handed","3","no","left","s","455.401942978","704.312067566","19","green","3"
"100","100","22","706.521022441","1","1","4","326","1","left","0","in","Female","Right-handed","3","no","left","s","505.094103078","528.067678912","19","red","3"
"100","100","22","718.33104716","1","1","4","327","3","right","2","in","Female","Right-handed","3","no","right","d","1126.61412687","711.588807899","19","green","1"
"100","100","22","718.696834358","1","1","4","328","2","right","3","out","Female","Right-handed","3","no","right","d","762.271661777","688.290346065","19","green","2"
"100","100","22","708.870782297","1","1","4","329","3","left","1","out","Female","Right-handed","3","no","left","s","500.624274981","543.727311306","19","green","0"
"100","95","22","714.612463476","1","0","4","330","1","right","3","out","Female","Right-handed","3","no","right","s","571.428892145","1087.46328196","19","red","2"
"100","90","22","715.855753545","1","0","4","331","1","left","3","out","Female","Right-handed","3","no","left","s","436.005961499","1047.92372847","19","green","0"
"100","91","22","705.347661674","1","1","4","332","0","left","3","out","Female","Right-handed","3","no","left","d","412.613850407","535.725430644","19","red","0"
"100","91","22","696.25649358","1","1","4","333","2","left","1","out","Female","Right-handed","3","no","left","s","407.304065389","567.015189445","19","green","0"
"100","92","22","694.634538557","1","1","4","334","2","left","3","in","Female","Right-handed","3","no","left","s","751.706934243","559.708301764","19","green","1"
"100","92","22","694.296166444","1","1","4","335","0","right","1","in","Female","Right-handed","3","no","right","d","692.262742639","679.410984594","19","red","2"
"100","92","22","692.363602087","1","1","4","336","2","right","0","in","Female","Right-handed","3","no","right","d","780.21158962","504.022267996","19","green","1"
"100","92","22","688.445893658","1","1","4","337","0","left","3","in","Female","Right-handed","3","no","left","s","501.780458551","663.55507361","19","green","2"
"100","93","22","685.383746279","1","1","4","338","1","right","3","in","Female","Right-handed","3","no","right","s","520.240909536","679.04632978","19","red","0"
"100","90","22","684.203475053","1","0","4","339","1","right","1","out","Female","Right-handed","3","no","right","s","523.985917971","775.965301029","19","green","3"
"100","90","22","685.130128253","1","1","4","340","0","left","0","in","Female","Right-handed","3","no","left","d","738.480258442","687.379190058","19","red","1"
"100","90","22","680.520789538","1","1","4","341","0","right","3","out","Female","Right-handed","3","no","right","s","492.148054356","583.114524401","19","red","0"
"100","87","22","680.224030503","1","0","4","342","3","right","1","out","Female","Right-handed","3","no","right","d","573.74574928","767.709733453","19","green","2"
"100","88","22","673.668401878","1","1","4","343","3","left","3","in","Female","Right-handed","3","no","left","s","443.251913005","471.413401538","19","green","0"
"100","88","22","674.448998471","1","1","4","344","2","left","3","in","Female","Right-handed","3","no","left","d","521.982400998","879.996164236","19","red","0"
"100","88","22","671.702354772","1","1","4","345","0","right","3","in","Female","Right-handed","3","no","right","s","527.564795193","623.574855446","19","green","0"
"100","89","22","667.985106857","1","1","4","346","1","left","2","out","Female","Right-handed","3","no","left","d","413.107433327","655.220930494","19","green","0"
"100","86","22","668.264789349","1","0","4","347","2","right","0","in","Female","Right-handed","3","no","right","d","653.582709784","703.64337333","19","red","2"
"100","87","22","669.381779906","1","1","4","348","1","left","3","in","Female","Right-handed","3","no","left","s","592.370727914","831.284114217","19","green","1"
"100","87","22","672.395460001","1","1","4","349","3","left","0","in","Female","Right-handed","3","no","left","d","971.892391884","607.96557556","19","red","3"
"100","87","22","674.325885066","1","1","4","350","2","left","2","in","Female","Right-handed","3","no","left","s","911.508821154","591.576954176","19","green","1"
"100","88","22","672.78543657","1","1","4","351","3","right","0","in","Female","Right-handed","3","no","right","s","708.167402539","511.086693907","19","green","1"
"100","88","22","671.714899807","1","1","4","352","3","right","3","out","Female","Right-handed","3","no","right","d","709.755270742","543.749440752","19","green","2"
"100","86","22","669.630227104","1","0","4","353","3","right","3","out","Female","Right-handed","3","no","right","s","728.395002312","431.583599449","19","red","1"
"100","84","22","669.572277652","1","0","4","354","3","right","3","in","Female","Right-handed","3","no","right","s","743.070034572","590.974969004","19","red","2"
"100","84","22","666.20119524","1","1","4","355","0","left","3","in","Female","Right-handed","3","no","left","s","485.559251276","543.445722055","19","green","2"
"100","85","22","664.413345529","1","1","4","356","3","left","3","in","Female","Right-handed","3","no","left","s","613.210255105","551.134262583","19","green","1"
"100","83","22","663.087595685","1","0","4","357","2","right","0","in","Female","Right-handed","3","no","right","d","569.791633578","631.763072481","19","red","3"
"100","83","22","662.084077209","1","1","4","358","2","right","2","out","Female","Right-handed","3","no","right","s","580.483044207","647.347336461","19","red","0"
"100","84","22","660.181759754","1","1","4","359","1","right","0","out","Female","Right-handed","3","no","right","s","582.925942989","551.010465948","19","red","2"
"100","84","22","658.131075731","1","1","4","360","2","left","3","out","Female","Right-handed","3","no","left","s","503.575188981","607.618560142","19","red","2"
"100","84","22","656.62581748","1","1","4","361","1","left","3","in","Female","Right-handed","3","no","left","s","560.300665442","599.41462794","19","red","2"
"100","84","22","657.319760823","1","1","4","362","2","right","3","out","Female","Right-handed","3","no","right","d","547.873856995","838.935772306","19","green","2"
"100","85","22","656.769261432","1","1","4","363","3","left","3","out","Female","Right-handed","3","no","left","s","703.536253975","551.649333531","19","red","0"
"100","85","22","654.495020393","1","1","4","364","0","left","3","out","Female","Right-handed","3","no","left","s","448.197684629","615.174323932","19","green","0"
"100","85","22","652.848575027","1","1","4","365","0","right","0","out","Female","Right-handed","3","no","right","d","517.826233787","606.761925941","19","red","2"
"100","85","22","653.55101791","1","1","4","366","2","right","1","out","Female","Right-handed","3","no","right","d","538.380964572","847.39467423","19","green","2"
"100","84","22","654.643117947","1","0","4","367","3","right","0","out","Female","Right-handed","3","no","right","d","498.995034344","934.790605679","19","red","2"
"100","84","22","651.598215648","1","1","4","368","0","right","0","in","Female","Right-handed","3","no","right","s","462.606522022","487.381242623","19","green","3"
"100","85","22","652.599213432","1","1","4","369","3","left","3","in","Female","Right-handed","3","no","left","d","792.087406822","631.228758546","19","green","1"
"100","85","22","649.65934081","1","1","4","370","0","left","0","in","Female","Right-handed","3","no","left","s","395.787771529","550.746195426","19","green","3"
"100","85","22","647.235962431","1","1","4","371","3","left","3","out","Female","Right-handed","3","no","left","s","511.316006275","487.50375639","19","red","2"
"100","85","22","647.233914763","1","1","4","372","3","right","1","out","Female","Right-handed","3","no","right","d","503.15729517","791.056623479","19","green","3"
"100","85","22","645.303015807","1","1","4","373","2","left","1","in","Female","Right-handed","3","no","left","d","463.679639972","583.633123257","19","red","3"
"100","86","22","642.542115217","1","1","4","374","3","right","0","out","Female","Right-handed","3","no","right","s","436.311604455","495.377350424","19","green","3"
"100","86","22","641.47988833","1","1","4","375","1","right","3","in","Female","Right-handed","3","no","right","s","697.984327854","446.885953482","19","red","2"
"100","86","22","643.116052152","1","1","4","376","1","right","3","in","Female","Right-handed","3","no","right","d","886.651997105","615.553731768","19","red","0"
"100","86","22","642.586554683","1","1","4","377","1","right","3","out","Female","Right-handed","3","no","right","d","615.18073827","599.039710185","19","red","2"
"100","86","22","642.22735527","1","1","4","378","1","right","3","in","Female","Right-handed","3","no","right","s","636.722634954","598.880955426","19","red","1"
"100","85","22","644.043702869","1","0","4","379","2","right","0","in","Female","Right-handed","3","no","right","d","515.397125797","1023.34624861","19","green","3"
"100","84","22","643.281170937","1","0","4","380","1","right","2","in","Female","Right-handed","3","no","right","s","500.924145047","678.883726418","19","red","3"
"100","83","22","641.78980672","1","0","4","381","3","left","3","out","Female","Right-handed","3","no","left","s","601.43450147","470.371393109","19","red","1"
"100","83","22","641.946239444","1","1","4","382","3","right","1","in","Female","Right-handed","3","no","right","s","659.191723447","647.227067704","19","green","3"
"100","83","22","642.68747941","1","1","4","383","0","right","1","out","Female","Right-handed","3","no","right","s","562.79391679","830.802077108","19","red","3"
"100","84","22","641.176602523","1","1","4","384","3","left","2","in","Female","Right-handed","3","no","left","d","483.413015376","575.330410327","19","red","3"
"100","84","22","639.475922054","1","1","4","385","2","left","2","in","Female","Right-handed","3","no","left","d","432.968774694","590.880999051","19","green","3"
"100","84","22","638.835230979","1","1","4","386","1","left","3","out","Female","Right-handed","3","no","left","d","677.612084837","502.673333715","19","green","1"
"100","83","22","638.864493865","1","0","4","387","0","left","3","out","Female","Right-handed","3","no","left","s","571.110741235","711.124730879","19","red","1"
"100","82","22","638.389230939","1","0","4","388","2","left","3","out","Female","Right-handed","3","no","left","d","539.837018208","662.800427323","19","green","1"
"100","81","22","638.264889192","1","0","4","389","2","right","3","out","Female","Right-handed","3","no","right","s","738.518103026","518.365679222","19","red","2"
"100","81","22","637.669685494","1","1","4","390","0","left","2","out","Female","Right-handed","3","no","left","d","476.996757876","703.11002151","19","red","0"
"100","80","22","636.743686852","1","0","4","391","3","right","2","out","Female","Right-handed","3","no","right","s","484.744310263","638.731283369","19","green","3"
"100","80","22","634.129876438","1","1","4","392","0","right","2","out","Female","Right-handed","3","no","right","s","448.202495347","391.392349702","19","green","3"
"100","80","22","632.121206096","1","1","4","393","1","left","2","in","Female","Right-handed","3","no","left","s","515.895519493","414.907615981","19","red","3"
"100","80","22","632.302665067","1","0","4","394","0","left","2","in","Female","Right-handed","3","no","left","s","584.501303237","710.589134047","19","red","1"
"100","80","22","632.456941123","1","1","4","395","1","left","1","out","Female","Right-handed","3","no","left","d","596.089116909","695.051694726","19","red","0"
"100","80","22","631.759323425","1","1","4","396","0","left","3","in","Female","Right-handed","3","no","left","s","552.755806013","590.772596828","19","red","2"
"100","80","22","630.226050652","1","1","4","397","2","left","3","out","Female","Right-handed","3","no","left","s","443.322470674","550.340168119","19","green","0"
"100","80","22","629.47729242","1","1","4","398","0","left","3","out","Female","Right-handed","3","no","left","s","648.13180943","479.041326587","19","red","1"
"100","81","22","628.657380637","1","1","4","399","2","right","3","out","Female","Right-handed","3","no","right","s","528.714243701","582.656220271","19","green","0"
"100","81","22","628.888286412","1","1","4","400","1","right","2","out","Female","Right-handed","3","no","right","s","805.085732369","494.253879966","19","red","1"
"100","81","22","628.019303337","1","1","4","401","1","left","3","in","Female","Right-handed","3","no","left","d","554.984145361","542.899541586","19","red","1"
"100","81","22","628.119926071","1","1","4","402","0","right","1","in","Female","Right-handed","3","no","right","d","668.336959031","606.417476229","19","green","0"
"100","81","22","627.040831851","1","1","4","403","3","right","2","in","Female","Right-handed","3","no","right","d","478.191106725","575.17903205","19","green","0"
"100","82","22","626.300270164","1","1","4","404","3","left","3","out","Female","Right-handed","3","no","left","d","394.668470399","718.706472719","19","green","0"
"100","82","22","625.83746804","1","1","4","405","2","right","1","in","Female","Right-handed","3","no","right","d","453.39361523","710.348917288","19","green","3"
"100","100","22","521.469895757","1","1","5","406","3","right","2","in","Female","Right-handed","3","no","right","s","571.491752606","471.448038908","19","green","0"
"100","100","22","591.001668683","1","1","5","407","2","right","3","in","Female","Right-handed","3","no","right","s","665.084250649","655.982632569","19","red","0"
"100","100","22","561.044140127","1","1","5","408","2","left","3","out","Female","Right-handed","3","no","left","d","418.547429348","583.710736682","19","green","0"
"100","100","22","565.844052486","1","1","5","409","1","left","3","in","Female","Right-handed","3","no","left","d","585.266212467","575.221366656","19","green","2"
"100","80","22","659.43030458","1","0","5","410","1","right","0","out","Female","Right-handed","3","no","right","s","483.706150407","1583.84447551","19","green","3"
"100","83","22","655.785017635","1","1","5","411","3","right","1","in","Female","Right-handed","3","no","right","d","707.690176175","567.426989641","19","red","2"
"100","85","22","642.975166588","1","1","5","412","3","right","3","in","Female","Right-handed","3","no","right","d","573.070640734","559.161479876","19","green","2"
"100","75","22","643.183953134","1","0","5","413","1","left","3","out","Female","Right-handed","3","no","left","d","449.71820229","839.572715631","19","green","0"
"100","77","22","683.914185059","1","1","5","414","3","right","3","out","Female","Right-handed","3","no","right","s","532.244051253","1487.26802965","19","green","0"
"100","80","22","700.720233405","1","1","5","415","2","right","0","out","Female","Right-handed","3","no","right","s","759.989442012","943.959895026","19","green","1"
"100","81","22","692.422153392","1","1","5","416","0","right","3","out","Female","Right-handed","3","no","right","s","555.319935724","663.562770816","19","red","2"
"100","83","22","680.066035026","1","1","5","417","1","left","2","out","Female","Right-handed","3","no","left","d","465.182838961","623.114627029","19","green","3"
"100","84","22","670.650954413","1","1","5","418","2","right","3","out","Female","Right-handed","3","no","right","d","563.734578755","551.605395362","19","red","2"
"100","78","22","670.274717646","1","0","5","419","2","left","3","in","Female","Right-handed","3","no","left","s","691.33619222","639.431087126","19","red","1"
"100","80","22","665.487049408","1","1","5","420","2","left","0","out","Female","Right-handed","3","no","left","s","541.941881645","654.977506521","19","green","2"
"100","75","22","672.236913718","1","0","5","421","1","left","3","in","Female","Right-handed","3","no","left","s","715.481345978","831.488410738","19","green","1"
"100","76","22","671.022046082","1","1","5","422","3","left","3","out","Female","Right-handed","3","no","left","s","688.150192873","615.018134937","19","green","1"
"100","72","22","661.033821959","1","0","5","423","2","left","3","in","Female","Right-handed","3","no","left","s","446.739706676","535.728317074","19","green","0"
"100","73","22","656.395031977","1","1","5","424","3","right","3","out","Female","Right-handed","3","no","right","d","490.399186412","655.394438189","19","green","0"
"100","75","22","653.345972777","1","1","5","425","2","right","1","out","Female","Right-handed","3","no","right","s","503.887887724","686.93980822","19","green","0"
"100","76","22","665.733633176","1","1","5","426","2","left","2","in","Female","Right-handed","3","no","left","d","1155.40389935","671.56978295","19","red","3"
"100","77","22","685.517655787","1","1","5","427","0","left","3","out","Female","Right-handed","3","no","left","s","627.055272635","1574.90898864","19","red","1"
"100","73","22","681.064739154","1","0","5","428","0","right","1","in","Female","Right-handed","3","no","right","d","503.481218999","662.719927437","19","green","0"
"100","75","22","674.432760469","1","1","5","429","1","left","1","in","Female","Right-handed","3","no","left","s","428.35783129","615.436670166","19","green","3"
"100","76","22","679.969666618","1","1","5","430","0","right","3","in","Female","Right-handed","3","no","right","d","946.841534198","678.869294177","19","red","1"
"100","76","22","676.820673327","1","1","5","431","1","left","3","in","Female","Right-handed","3","no","left","d","564.693521562","631.49816051","19","red","1"
"100","77","22","673.464725485","1","1","5","432","3","left","1","out","Female","Right-handed","3","no","left","s","541.219627746","631.200535456","19","green","3"
"100","78","22","669.369832768","1","1","5","433","2","right","0","out","Female","Right-handed","3","no","right","d","550.690390722","566.925068095","19","red","3"
"100","75","22","666.907480642","1","0","5","434","3","right","0","out","Female","Right-handed","3","no","right","s","444.486992841","751.436249382","19","green","3"
"100","76","22","666.14352434","1","1","5","435","3","right","3","out","Female","Right-handed","3","no","right","s","609.085838835","678.891744319","19","red","2"
"100","77","22","660.900238009","1","1","5","436","2","right","1","out","Female","Right-handed","3","no","right","s","496.606657369","510.596638807","19","red","3"
"100","75","22","664.643696216","1","0","5","437","2","right","3","out","Female","Right-handed","3","no","right","s","906.191018177","655.190783116","19","green","1"
"100","75","22","661.677778088","1","1","5","438","1","left","2","out","Female","Right-handed","3","no","left","s","614.712491923","518.824304047","19","red","1"
"100","76","22","663.065636418","1","1","5","439","3","left","3","in","Female","Right-handed","3","no","left","s","570.470590784","847.259331814","19","green","1"
"100","77","22","663.491855789","1","1","5","440","0","right","3","in","Female","Right-handed","3","no","right","d","789.01878983","566.947838961","19","green","0"
"100","77","22","661.259232318","1","1","5","441","0","left","3","out","Female","Right-handed","3","no","left","s","599.68370921","566.551112453","19","green","2"
"100","78","22","655.821511434","1","1","5","442","3","left","3","out","Female","Right-handed","3","no","left","d","433.014957903","487.112161354","19","green","0"
"100","78","22","652.651719952","1","1","5","443","0","left","0","out","Female","Right-handed","3","no","left","s","583.801499481","486.937370762","19","red","2"
"100","79","22","653.004749574","1","1","5","444","3","right","2","in","Female","Right-handed","3","no","right","s","645.437468746","687.402281619","19","green","3"
"100","80","22","648.220411401","1","1","5","445","1","left","1","in","Female","Right-handed","3","no","left","d","444.116244384","479.146200931","19","red","3"
"100","80","22","647.357435126","1","1","5","446","1","right","3","out","Female","Right-handed","3","no","right","s","586.863381439","638.813386846","19","red","1"
"100","80","22","644.831780062","1","1","5","447","0","left","3","in","Female","Right-handed","3","no","left","s","555.360666738","527.199178177","19","red","2"
"100","79","22","643.161402276","1","0","5","448","2","right","0","out","Female","Right-handed","3","no","right","d","475.031726907","670.979343588","19","red","3"
"100","77","22","642.002866651","1","0","5","449","1","right","3","in","Female","Right-handed","3","no","right","s","625.675870251","558.695799293","19","green","2"
"100","77","22","640.11731744","1","1","5","450","3","left","1","out","Female","Right-handed","3","no","left","d","595.08527373","519.221030554","19","green","0"
"100","78","22","637.558126232","1","1","5","451","2","right","2","in","Female","Right-handed","3","no","right","s","413.980744808","630.808299","19","red","3"
"100","76","22","645.352154705","1","0","5","452","0","left","1","in","Female","Right-handed","3","no","left","d","1361.46467453","646.290254343","19","green","2"
"100","77","22","641.656616875","1","1","5","453","0","right","2","out","Female","Right-handed","3","no","right","s","472.996458964","462.93621877","19","green","3"
"100","77","22","640.095477872","1","1","5","454","1","left","3","in","Female","Right-handed","3","no","left","s","643.71874815","486.602863297","19","red","0"
"100","76","22","638.941214879","1","0","5","455","1","left","3","in","Female","Right-handed","3","no","left","s","573.34453275","591.420123762","19","red","1"
"100","76","22","639.497230223","1","1","5","456","0","left","0","out","Female","Right-handed","3","no","left","d","775.784416823","558.811577998","19","red","1"
"100","76","22","639.997731791","1","1","5","457","2","right","3","in","Female","Right-handed","3","no","right","d","716.614758654","614.431864873","19","green","2"
"100","77","22","637.746725585","1","1","5","458","2","left","2","in","Female","Right-handed","3","no","left","s","394.155002985","647.233802767","19","red","0"
"100","77","22","635.303490432","1","1","5","459","0","left","3","in","Female","Right-handed","3","no","left","s","532.762329385","478.861725278","19","red","2"
"100","78","22","634.294372467","1","1","5","460","1","right","3","in","Female","Right-handed","3","no","right","s","481.261968729","678.342035972","19","red","0"
"100","78","22","633.491403119","1","1","5","461","2","left","2","in","Female","Right-handed","3","no","left","d","651.866234199","526.789943746","19","green","1"
"100","78","22","632.238532125","1","1","5","462","0","right","0","in","Female","Right-handed","3","no","right","s","549.58391824","574.571594683","19","red","3"
"100","79","22","632.486910639","1","1","5","463","0","right","3","out","Female","Right-handed","3","no","right","d","686.956485501","606.332486321","19","green","0"
"100","79","22","631.518186293","1","1","5","464","3","right","0","in","Female","Right-handed","3","no","right","d","663.819664856","486.844683648","19","green","2"
"100","78","22","633.13444624","1","0","5","465","3","right","0","out","Female","Right-handed","3","no","right","d","690.561340773","766.426225397","19","green","1"
"100","78","22","632.583376327","1","1","5","466","3","left","0","out","Female","Right-handed","3","no","left","d","600.018858124","599.019505026","19","green","3"
"100","79","22","629.599923965","1","1","5","467","0","left","1","out","Female","Right-handed","3","no","left","s","448.650857259","446.567802544","19","red","3"
"100","79","22","629.491052031","1","1","5","468","2","left","1","out","Female","Right-handed","3","no","left","d","583.127994498","662.353989727","19","red","2"
"100","78","22","638.684436192","1","0","5","469","3","left","3","in","Female","Right-handed","3","no","left","s","628.87566039","1806.85961622","19","red","1"
"100","78","22","640.20255872","1","1","5","470","2","left","3","out","Female","Right-handed","3","no","left","d","556.475798541","918.249002483","19","red","2"
"100","78","22","638.176664652","1","1","5","471","3","left","3","in","Female","Right-handed","3","no","left","s","509.983428579","503.003671882","19","green","2"
"100","79","22","636.356378896","1","1","5","472","1","right","3","out","Female","Right-handed","3","no","right","s","537.670256424","494.764781586","19","red","2"
"100","77","22","638.913608438","1","0","5","473","2","left","3","in","Female","Right-handed","3","no","left","s","630.134793988","990.361181495","19","red","0"
"100","78","22","640.056140659","1","1","5","474","1","right","1","out","Female","Right-handed","3","no","right","d","788.708656793","646.788006619","19","red","2"
"100","78","22","639.087507951","1","1","5","475","2","left","3","out","Female","Right-handed","3","no","left","s","506.299035566","638.20466664","19","red","2"
"100","78","22","637.023833045","1","1","5","476","1","left","0","out","Female","Right-handed","3","no","left","s","507.149576181","477.983603021","19","red","2"
"100","79","22","641.227405554","1","1","5","477","2","right","1","in","Female","Right-handed","3","no","right","d","488.675655069","1390.6864523","19","red","3"
"100","79","22","639.569012866","1","1","5","478","1","left","3","out","Female","Right-handed","3","no","left","s","546.123064763","494.206413889","19","red","0"
"100","79","22","636.817294018","1","1","5","479","0","left","3","out","Female","Right-handed","3","no","left","s","464.871423086","407.012213196","19","red","0"
"100","78","22","637.026849648","1","0","5","480","2","left","3","in","Female","Right-handed","3","no","left","s","770.42588286","534.642049752","19","green","1"
"100","77","22","637.153161176","1","0","5","481","0","right","3","in","Female","Right-handed","3","no","right","d","543.110573169","750.142478355","19","green","0"
"100","77","22","635.192529062","1","1","5","482","0","left","2","out","Female","Right-handed","3","no","left","s","557.679127465","414.689849334","19","green","1"
"100","78","22","635.624120746","1","1","5","483","1","left","3","in","Female","Right-handed","3","no","left","d","675.286568352","662.426792405","19","green","2"
"100","78","22","636.33098914","1","1","5","484","3","right","3","in","Female","Right-handed","3","no","right","s","640.912798117","742.02064966","19","red","1"
"100","78","22","635.508241293","1","1","5","485","0","right","3","out","Female","Right-handed","3","no","right","s","598.563125212","542.459197604","19","green","1"
"100","79","22","634.937854632","1","1","5","486","3","left","2","in","Female","Right-handed","3","no","left","d","460.27330833","718.340535037","19","green","3"
"100","79","22","633.681032432","1","1","5","487","0","right","2","in","Female","Right-handed","3","no","right","d","504.889806558","558.867061976","19","red","0"
"100","78","22","632.792893686","1","0","5","488","0","right","3","out","Female","Right-handed","3","no","right","s","577.485305577","542.445727537","19","red","1"
"100","78","22","632.009797144","1","1","5","489","2","right","3","in","Female","Right-handed","3","no","right","d","600.148748402","533.876819769","19","red","1"
"100","78","22","631.510615653","1","1","5","490","0","left","2","out","Female","Right-handed","3","no","left","d","524.487839546","654.670901393","19","green","3"
"100","79","22","631.268536722","1","1","5","491","1","left","0","in","Female","Right-handed","3","no","left","d","519.314359087","702.069295949","19","red","1"
"100","79","22","630.688127932","1","1","5","492","3","right","2","in","Female","Right-handed","3","no","right","s","578.751174238","582.794769871","19","red","1"
"100","79","22","630.701584166","1","1","5","493","0","right","1","in","Female","Right-handed","3","no","right","d","489.380269573","774.364283454","19","green","3"
"100","79","22","629.829482553","1","1","5","494","1","right","2","in","Female","Right-handed","3","no","right","d","484.071125975","622.097955202","19","green","0"
"100","80","22","627.994993825","1","1","5","495","1","right","1","out","Female","Right-handed","3","no","right","s","466.664870648","462.78612336","19","red","0"
"100","80","22","628.224591475","1","1","5","496","3","right","3","in","Female","Right-handed","3","no","right","d","579.324294901","718.452465138","19","green","2"
"100","80","22","626.667616823","1","1","5","497","3","left","1","in","Female","Right-handed","3","no","left","s","443.920927966","526.044918923","19","green","3"
"100","80","22","625.436108703","1","1","5","498","1","left","0","out","Female","Right-handed","3","no","left","d","417.599711625","606.675011717","19","red","3"
"100","80","22","624.694040569","1","1","5","499","0","right","0","in","Female","Right-handed","3","no","right","d","521.287087293","590.07632095","19","red","3"
"100","81","22","624.348422325","1","1","5","500","3","right","3","out","Female","Right-handed","3","no","right","s","689.877893543","493.842721189","19","red","0"
"100","81","22","623.334419826","1","1","5","501","1","right","2","out","Female","Right-handed","3","no","right","s","495.511730697","558.496634243","19","green","3"
dis_reply=No
dis_loc=2
