"acc_1","acc_2","age","avg_rt","correct_1","correct_2","count_block_loop","count_trial_sequence","cue_position","detection","dis_position","dis_shape","gender","hand","high_loc","practice","response_keyboard_response_1","response_keyboard_response_2","response_time_keyboard_response_1","response_time_keyboard_response_2","subject_nr","tar_color","tar_position"
"0","100","19","1022.29585452","0","1","0","0","0","left","3","out","Female","Right-handed","0","yes","right","s","762.001907604","1282.58980143","12","green","1"
"50","100","19","1226.73182179","1","1","0","1","1","left","3","out","Female","Right-handed","0","yes","left","s","1876.72952869","985.606049429","12","red","0"
"66","66","19","1025.67681811","1","0","0","2","2","left","1","out","Female","Right-handed","0","yes","left","s","749.162135518","497.971485989","12","green","3"
"75","75","19","1065.79445108","1","1","0","3","3","left","1","in","Female","Right-handed","0","yes","left","d","1154.61349833","1217.68120162","12","red","3"
"80","80","19","1071.66770471","1","1","0","4","3","right","2","out","Female","Right-handed","0","yes","right","s","1357.31769191","833.003746577","12","green","1"
"83","66","19","1042.12651663","1","0","0","5","3","right","0","out","Female","Right-handed","0","yes","right","s","946.874741425","841.966411015","12","red","1"
"85","71","19","994.363732011","1","1","0","6","2","right","2","out","Female","Right-handed","0","yes","right","s","718.304669013","697.269379605","12","green","0"
"87","75","19","951.752235214","1","1","0","7","0","right","0","out","Female","Right-handed","0","yes","right","s","688.881754792","618.061760473","12","green","3"
"88","77","19","896.854650494","1","1","0","8","2","right","1","in","Female","Right-handed","0","yes","right","s","545.713565483","369.634379995","12","red","2"
"90","80","19","892.050999248","1","1","0","9","0","left","0","out","Female","Right-handed","0","yes","left","s","1160.3084111","537.327864951","12","red","1"
"90","72","19","879.482695252","1","0","0","10","3","left","3","out","Female","Right-handed","0","yes","left","s","825.734450358","681.864860237","12","green","0"
"91","75","19","881.928644841","1","1","0","11","1","right","0","out","Female","Right-handed","0","yes","right","d","608.483967202","1209.18421345","12","red","3"
"92","76","19","861.898778421","1","1","0","12","2","right","3","out","Female","Right-handed","0","yes","right","s","641.110169638","601.970593121","12","green","0"
"92","71","19","895.979508137","1","0","0","13","3","left","2","in","Female","Right-handed","0","yes","left","s","988.66437506","1689.39361382","12","green","0"
"93","73","19","880.413983629","1","1","0","14","0","left","2","in","Female","Right-handed","0","yes","left","s","860.05819029","464.93509076","12","green","1"
"93","75","19","872.186308749","1","1","0","15","0","left","0","in","Female","Right-handed","0","yes","left","d","895.739511219","601.802859868","12","red","2"
"94","76","19","866.132696001","1","1","0","16","1","left","3","in","Female","Right-handed","0","yes","left","d","729.285263911","809.264520152","12","green","2"
"94","77","19","856.149323077","1","1","0","17","0","left","1","out","Female","Right-handed","0","yes","left","d","610.909524747","761.954441979","12","red","3"
"94","78","19","833.493240048","1","1","0","18","0","right","1","out","Female","Right-handed","0","yes","right","s","529.808732777","321.558758273","12","red","3"
"95","80","19","817.536303185","1","1","0","19","0","left","2","out","Female","Right-handed","0","yes","left","s","523.356615007","505.352390568","12","green","3"
"95","80","19","802.456975267","1","1","0","20","1","right","1","out","Female","Right-handed","0","yes","right","d","559.805403769","441.935430074","12","red","3"
"95","81","19","793.95992496","1","1","0","21","3","right","0","in","Female","Right-handed","0","yes","right","s","901.587083705","329.456653302","12","red","1"
"100","100","19","591.141535437","1","1","1","22","3","left","3","out","Female","Right-handed","0","no","left","s","668.681283087","513.601787787","12","red","2"
"100","100","19","555.717667411","1","1","1","23","1","right","3","in","Female","Right-handed","0","no","right","s","679.251364476","361.336234295","12","red","2"
"100","100","19","615.606911081","1","1","1","24","0","right","2","out","Female","Right-handed","0","no","right","d","900.838537982","569.932258857","12","green","1"
"100","75","19","699.579359958","1","0","1","25","1","left","3","in","Female","Right-handed","0","no","left","d","1149.52248941","753.470923777","12","green","0"
"100","80","19","726.360130672","1","1","1","26","2","right","0","in","Female","Right-handed","0","no","right","d","816.948499158","850.017927894","12","green","2"
"100","66","19","721.163029667","1","0","1","27","1","left","1","out","Female","Right-handed","0","no","left","s","1020.60585379","369.74919549","12","red","2"
"100","71","19","717.951952693","1","1","1","28","0","right","3","in","Female","Right-handed","0","no","right","d","956.233487255","441.137494443","12","red","0"
"100","62","19","698.745323995","1","0","1","29","0","left","0","in","Female","Right-handed","0","no","left","s","622.78875937","505.809086844","12","red","3"
"100","66","19","677.822977026","1","1","1","30","2","left","0","in","Female","Right-handed","0","no","left","s","715.466352965","305.42204958","12","green","3"
"100","70","19","674.096164713","1","1","1","31","1","left","0","in","Female","Right-handed","0","no","left","s","510.982839893","770.126867917","12","red","3"
"100","72","19","670.108488107","1","1","1","32","2","right","0","in","Female","Right-handed","0","no","right","s","602.66461752","657.798826573","12","red","3"
"100","66","19","658.080239462","1","0","1","33","1","left","0","out","Female","Right-handed","0","no","left","s","594.283086266","457.25592246","12","red","3"
"100","61","19","640.759925632","1","0","1","34","3","left","1","out","Female","Right-handed","0","no","left","d","479.919795924","385.912523421","12","green","3"
"100","64","19","632.819297269","1","1","1","35","3","right","2","out","Female","Right-handed","0","no","right","s","745.536788103","313.64546899","12","green","0"
"100","66","19","629.893647068","1","1","1","36","1","right","3","in","Female","Right-handed","0","no","right","s","752.946556915","424.922531611","12","red","1"
"100","68","19","637.535745544","1","1","1","37","1","left","0","out","Female","Right-handed","0","no","left","d","582.645349043","921.689096313","12","green","3"
"100","64","19","636.346807471","1","0","1","38","2","right","0","out","Female","Right-handed","0","no","right","s","713.29704565","521.350550955","12","green","1"
"100","66","19","632.352708502","1","1","1","39","1","left","3","in","Female","Right-handed","0","no","left","s","767.970709861","360.935342198","12","red","0"
"100","68","19","627.261710835","1","1","1","40","3","left","2","out","Female","Right-handed","0","no","left","d","637.630105521","433.617400127","12","green","0"
"100","70","19","618.759962169","1","1","1","41","2","right","1","in","Female","Right-handed","0","no","right","s","569.260684415","345.192790614","12","red","3"
"100","71","19","616.260365199","1","1","1","42","1","left","2","in","Female","Right-handed","0","no","left","d","482.742397","649.794454605","12","green","0"
"100","72","19","612.972952816","1","1","1","43","0","right","0","out","Female","Right-handed","0","no","right","d","710.342631251","377.531954307","12","red","1"
"100","69","19","607.148410868","1","0","1","44","2","left","0","in","Female","Right-handed","0","no","left","s","581.07288988","376.944086136","12","green","2"
"100","70","19","599.838949618","1","1","1","45","0","right","3","out","Female","Right-handed","0","no","right","s","445.652180884","417.790500846","12","green","0"
"100","72","19","596.902964228","1","1","1","46","3","right","0","in","Female","Right-handed","0","no","right","d","515.326265231","537.552364525","12","green","2"
"100","73","19","588.485440265","1","1","1","47","2","right","3","in","Female","Right-handed","0","no","right","s","466.988299722","289.106382652","12","green","0"
"100","74","19","583.897284579","1","1","1","48","1","left","0","out","Female","Right-handed","0","no","left","d","575.55629391","353.654179571","12","red","1"
"100","75","19","585.034740393","1","1","1","49","0","right","0","in","Female","Right-handed","0","no","right","d","494.275260851","737.216833875","12","red","3"
"100","75","19","589.235357104","1","1","1","50","1","right","1","out","Female","Right-handed","0","no","right","s","756.922123665","656.783126356","12","red","0"
"100","76","19","594.574668452","1","1","1","51","0","right","0","out","Female","Right-handed","0","no","right","d","633.434208476","865.395186602","12","green","3"
"100","74","19","597.958961602","1","0","1","52","3","right","0","out","Female","Right-handed","0","no","right","s","773.916100019","625.059412208","12","red","1"
"100","75","19","597.780569145","1","1","1","53","1","left","0","out","Female","Right-handed","0","no","left","d","598.780774883","585.720031071","12","green","2"
"100","75","19","596.960826807","1","1","1","54","2","left","3","in","Female","Right-handed","0","no","left","d","500.300188003","641.157955977","12","green","1"
"100","76","19","593.933093316","1","1","1","55","0","left","0","in","Female","Right-handed","0","no","left","s","515.096954952","472.9388213","12","green","2"
"100","77","19","600.021799367","1","1","1","56","0","right","1","out","Female","Right-handed","0","no","right","d","740.524033321","873.551576853","12","red","2"
"100","75","19","599.984431133","1","0","1","57","2","left","3","in","Female","Right-handed","0","no","left","d","484.13846364","713.214622234","12","red","2"
"100","75","19","604.032071298","1","1","1","58","0","left","0","out","Female","Right-handed","0","no","left","d","618.754181303","880.740053226","12","red","1"
"100","76","19","604.869595793","1","1","1","59","2","right","0","out","Female","Right-handed","0","no","right","d","662.374448613","609.341555577","12","red","1"
"100","74","19","611.43314739","1","0","1","60","1","left","2","in","Female","Right-handed","0","no","left","d","1184.92446872","536.771747435","12","green","3"
"100","75","19","609.023844581","1","1","1","61","1","right","0","in","Female","Right-handed","0","no","right","s","484.515302211","545.606767828","12","green","2"
"100","73","19","605.037699267","1","0","1","62","2","left","0","out","Female","Right-handed","0","no","left","d","466.106978538","425.076794891","12","red","2"
"100","73","19","602.995025151","1","1","1","63","2","right","0","in","Female","Right-handed","0","no","right","s","693.669368573","344.821404175","12","green","1"
"100","74","19","599.677781206","1","1","1","64","0","right","2","out","Female","Right-handed","0","no","right","d","423.345582458","497.361488573","12","red","0"
"100","75","19","597.263821054","1","1","1","65","3","right","1","out","Female","Right-handed","0","no","right","s","577.856773119","409.070295947","12","green","0"
"100","75","19","594.659358243","1","1","1","66","2","right","2","out","Female","Right-handed","0","no","right","d","566.448025462","393.677963701","12","red","0"
"100","76","19","598.628889068","1","1","1","67","3","right","0","in","Female","Right-handed","0","no","right","s","873.194622529","681.32092984","12","red","3"
"100","74","19","599.397056921","1","0","1","68","0","left","0","out","Female","Right-handed","0","no","left","d","708.77369994","560.691856374","12","green","2"
"100","75","19","598.34707979","1","1","1","69","0","left","2","in","Female","Right-handed","0","no","left","s","697.641407471","400.354901756","12","red","0"
"100","75","19","599.218751953","1","1","1","70","2","left","0","in","Female","Right-handed","0","no","left","s","665.082875621","617.035155992","12","red","1"
"100","76","19","597.18998052","1","1","1","71","3","right","0","out","Female","Right-handed","0","no","right","s","474.677089434","520.883271125","12","green","3"
"100","76","19","594.21241292","1","1","1","72","0","left","1","in","Female","Right-handed","0","no","left","s","553.3087068","337.359359035","12","green","0"
"100","76","19","603.783973015","1","1","1","73","3","left","0","in","Female","Right-handed","0","no","left","d","1238.88294143","944.984134294","12","red","1"
"100","77","19","601.534398315","1","1","1","74","3","right","1","out","Female","Right-handed","0","no","right","s","488.497924662","480.615103177","12","red","0"
"100","77","19","609.204958276","1","1","1","75","2","right","1","in","Female","Right-handed","0","no","right","s","1486.28981099","545.199461458","12","red","2"
"100","78","19","609.377767067","1","1","1","76","3","right","0","out","Female","Right-handed","0","no","right","s","660.662479002","576.756404491","12","green","2"
"100","78","19","608.15283033","1","1","1","77","1","left","2","out","Female","Right-handed","0","no","left","d","520.274877279","561.287742388","12","green","1"
"100","78","19","607.482167391","1","1","1","78","2","left","2","out","Female","Right-handed","0","no","left","s","458.991304169","680.858781428","12","green","3"
"100","79","19","604.700308883","1","1","1","79","1","left","0","in","Female","Right-handed","0","no","left","s","427.686121371","464.582626426","12","red","1"
"98","77","19","605.243218001","0","0","1","80","1","left","2","out","Female","Right-handed","0","no","right","d","526.226681712","747.237212023","12","green","0"
"98","78","19","607.451875844","1","1","1","81","2","right","0","in","Female","Right-handed","0","no","right","d","882.745475852","592.779901259","12","red","2"
"98","78","19","606.254696944","1","1","1","82","2","left","3","in","Female","Right-handed","0","no","left","s","499.286091354","569.56183456","12","green","0"
"98","79","19","605.41405967","1","1","1","83","0","left","0","out","Female","Right-handed","0","no","left","s","539.211737096","569.058634799","12","red","3"
"98","79","19","604.123465134","1","1","1","84","0","right","3","out","Female","Right-handed","0","no","right","d","567.498042044","480.715165844","12","green","1"
"98","79","19","601.666273425","1","1","1","85","2","right","2","in","Female","Right-handed","0","no","right","d","501.313963938","392.412427526","12","green","1"
"98","78","19","600.439395008","1","0","1","86","0","left","1","out","Female","Right-handed","0","no","left","s","498.936513444","544.901839165","12","green","3"
"98","78","19","600.56110996","1","1","1","87","2","right","1","in","Female","Right-handed","0","no","right","s","576.509134245","640.436029487","12","red","0"
"98","79","19","601.689738888","1","1","1","88","1","right","0","out","Female","Right-handed","0","no","right","d","607.221958881","745.136537435","12","red","1"
"98","79","19","600.992994161","1","1","1","89","2","left","0","out","Female","Right-handed","0","no","left","d","603.797057516","504.825137281","12","red","3"
"98","79","19","597.940237786","1","1","1","90","1","right","1","in","Female","Right-handed","0","no","right","d","428.336849425","352.368759151","12","green","0"
"98","78","19","599.262782341","1","0","1","91","0","right","0","in","Female","Right-handed","0","no","right","s","756.020918228","625.015795149","12","green","2"
"98","77","19","608.435903063","1","0","1","92","1","left","0","out","Female","Right-handed","0","no","left","s","748.591585885","1752.5171213","12","red","2"
"98","77","19","608.293178199","1","1","1","93","3","right","0","out","Female","Right-handed","0","no","right","d","547.169284868","649.150140826","12","green","2"
"98","78","19","605.540140748","1","1","1","94","3","right","0","in","Female","Right-handed","0","no","right","s","485.768009838","328.874878691","12","green","2"
"98","78","19","605.787731648","1","1","1","95","3","right","3","out","Female","Right-handed","0","no","right","s","495.394230875","752.329503799","12","green","1"
"98","78","19","605.23787868","1","1","1","96","0","right","0","in","Female","Right-handed","0","no","right","d","712.136062137","416.961455989","12","green","1"
"98","78","19","604.025226308","1","1","1","97","3","left","0","in","Female","Right-handed","0","no","left","d","553.56527774","472.587319109","12","red","3"
"98","79","19","602.566916472","1","1","1","98","0","left","0","out","Female","Right-handed","0","no","left","d","591.226684917","392.244052846","12","green","2"
"98","79","19","601.262977453","1","1","1","99","1","right","1","out","Female","Right-handed","0","no","right","d","520.851841184","480.867504841","12","red","3"
"98","79","19","601.037572078","1","1","1","100","3","left","0","in","Female","Right-handed","0","no","left","s","614.405303835","552.506601891","12","green","1"
"98","80","19","598.614178158","1","1","1","101","3","right","2","out","Female","Right-handed","0","no","right","s","358.167583161","456.164533813","12","green","3"
"98","80","19","597.0979625","1","1","1","102","0","left","1","out","Female","Right-handed","0","no","left","s","518.687665288","432.913754321","12","red","0"
"98","80","19","596.090573798","1","1","1","103","0","left","0","out","Female","Right-handed","0","no","left","s","564.396420066","464.587757846","12","green","1"
"98","80","19","597.179505586","1","1","1","104","3","left","1","in","Female","Right-handed","0","no","left","s","747.987040602","624.956783831","12","red","2"
"97","79","19","596.780674576","0","0","1","105","0","right","3","in","Female","Right-handed","0","no","left","s","723.697790219","403.657611209","12","green","2"
"97","80","19","595.886481092","1","1","1","106","3","left","0","out","Female","Right-handed","0","no","left","d","537.228122997","504.320333954","12","red","3"
"97","80","19","595.549254543","1","1","1","107","1","right","0","in","Female","Right-handed","0","no","right","d","580.851276729","552.918718968","12","red","1"
"97","79","19","597.501405629","1","0","1","108","3","right","3","in","Female","Right-handed","0","no","right","d","1034.42444403","496.348354067","12","red","0"
"97","79","19","598.359896492","1","1","1","109","3","left","2","in","Female","Right-handed","0","no","left","s","826.042656201","520.054546981","12","red","1"
"97","79","19","597.654786997","1","1","1","110","0","left","2","in","Female","Right-handed","0","no","left","s","614.605429169","456.604873694","12","green","3"
"97","80","19","597.200602557","1","1","1","111","2","right","0","out","Female","Right-handed","0","no","right","d","481.223497023","632.332877705","12","red","3"
"97","80","19","596.213909482","1","1","1","112","1","left","0","in","Female","Right-handed","0","no","left","s","525.873896666","488.949168806","12","red","2"
"97","80","19","595.572050224","1","1","1","113","3","left","0","out","Female","Right-handed","0","no","left","d","561.57734684","512.74836869","12","green","1"
"97","80","19","596.152614231","1","1","1","114","3","right","3","in","Female","Right-handed","0","no","right","s","899.071726331","400.057279463","12","green","0"
"97","80","19","596.148863675","1","1","1","115","2","right","1","out","Female","Right-handed","0","no","right","d","534.807696873","656.792427051","12","red","0"
"97","81","19","595.299922485","1","1","1","116","2","left","2","out","Female","Right-handed","0","no","left","d","502.52978949","528.469111745","12","red","0"
"97","81","19","594.416134001","1","1","1","117","1","left","0","in","Female","Right-handed","0","no","left","d","524.878401409","496.034054662","12","green","3"
"100","0","19","576.424946905","1","0","2","118","1","left","0","out","Female","Right-handed","0","no","left","d","639.487999855","513.361893954","12","green","2"
"100","50","19","710.9792479","1","1","2","119","0","left","0","out","Female","Right-handed","0","no","left","d","954.029222146","737.037875644","12","green","1"
"100","66","19","660.336580452","1","1","2","120","1","left","3","in","Female","Right-handed","0","no","left","d","629.539461572","488.563029539","12","green","1"
"100","50","19","641.706216008","1","0","2","121","2","left","0","in","Female","Right-handed","0","no","left","s","474.249898814","697.380346537","12","green","2"
"100","60","19","650.236269766","1","1","2","122","3","left","1","in","Female","Right-handed","0","no","left","s","1031.79844043","336.914529164","12","red","0"
"100","66","19","664.930376267","1","1","2","123","0","left","1","in","Female","Right-handed","0","no","left","s","875.464954654","601.336862894","12","red","3"
"100","71","19","650.746974227","1","1","2","124","3","left","0","out","Female","Right-handed","0","no","left","d","426.215328447","705.077795517","12","red","3"
"100","75","19","639.736492823","1","1","2","125","3","left","2","in","Female","Right-handed","0","no","left","s","524.543576328","600.78266966","12","green","3"
"100","66","19","633.016425458","1","0","2","126","2","left","2","out","Female","Right-handed","0","no","left","d","709.180364884","449.331408196","12","green","0"
"100","70","19","666.653538787","1","1","2","127","3","right","3","out","Female","Right-handed","0","no","right","s","673.867223255","1264.90789424","12","red","0"
"100","72","19","654.001664096","1","1","2","128","1","right","0","out","Female","Right-handed","0","no","right","d","557.474136045","497.491698327","12","green","3"
"100","75","19","667.966652833","1","1","2","129","0","left","0","in","Female","Right-handed","0","no","left","d","690.117464592","953.045593298","12","green","2"
"100","69","19","658.172902072","1","0","2","130","0","right","0","in","Female","Right-handed","0","no","right","s","544.657776056","536.638009831","12","green","2"
"100","71","19","653.291195832","1","1","2","131","3","left","0","in","Female","Right-handed","0","no","left","d","562.272012663","617.386016756","12","red","3"
"100","66","19","651.701450203","1","0","2","132","3","right","3","out","Female","Right-handed","0","no","right","d","697.920749084","560.969273705","12","red","0"
"100","68","19","653.406522466","1","1","2","133","2","left","0","out","Female","Right-handed","0","no","left","d","869.492624548","488.472588282","12","red","1"
"100","70","19","650.595682266","1","1","2","134","2","right","1","in","Female","Right-handed","0","no","right","s","602.182264149","609.062213964","12","green","0"
"100","72","19","656.096950533","1","1","2","135","1","right","0","in","Female","Right-handed","0","no","right","d","690.659149994","808.577872169","12","red","2"
"100","73","19","654.608341587","1","1","2","136","0","right","3","in","Female","Right-handed","0","no","right","s","702.227933776","553.398827342","12","green","0"
"100","70","19","657.474360545","1","0","2","137","2","left","3","out","Female","Right-handed","0","no","left","d","798.90290265","624.954538836","12","red","0"
"100","71","19","653.431034632","1","1","2","138","1","right","2","out","Female","Right-handed","0","no","right","s","536.501385804","608.627646931","12","red","1"
"100","68","19","653.031038728","1","0","2","139","0","right","0","in","Female","Right-handed","0","no","right","s","520.129593982","769.132655516","12","red","3"
"100","69","19","645.174615908","1","1","2","140","3","left","0","in","Female","Right-handed","0","no","left","s","575.818637699","368.847990056","12","green","1"
"100","70","19","637.994930693","1","1","2","141","0","left","1","out","Female","Right-handed","0","no","left","s","489.317989535","456.406351927","12","red","0"
"100","72","19","629.955241199","1","1","2","142","3","right","2","in","Female","Right-handed","0","no","right","s","472.925030614","401.080356096","12","green","0"
"100","73","19","622.92149166","1","1","2","143","2","left","0","in","Female","Right-handed","0","no","left","s","509.569134003","384.586372362","12","red","1"
"100","74","19","616.265876723","1","1","2","144","2","right","1","out","Female","Right-handed","0","no","right","d","414.216146908","472.223629799","12","red","0"
"100","75","19","613.703399043","1","1","2","145","2","right","0","in","Female","Right-handed","0","no","right","d","584.022493575","505.010509789","12","green","1"
"100","75","19","614.251947401","1","1","2","146","2","right","0","in","Female","Right-handed","0","no","right","d","626.62738138","632.595221496","12","green","2"
"100","76","19","611.914935401","1","1","2","147","3","left","0","out","Female","Right-handed","0","no","left","d","567.065720004","521.217454778","12","green","1"
"100","74","19","614.878408237","1","0","2","148","1","left","3","out","Female","Right-handed","0","no","left","d","518.722943792","888.842242866","12","green","2"
"100","75","19","615.110057108","1","1","2","149","1","left","0","out","Female","Right-handed","0","no","left","s","524.17026561","720.41207859","12","red","3"
"100","75","19","619.515239721","1","1","2","150","0","left","1","in","Female","Right-handed","0","no","left","d","735.977916938","784.984249753","12","green","0"
"100","76","19","622.782189457","1","1","2","151","1","right","0","out","Female","Right-handed","0","no","right","s","572.640044438","888.543017005","12","red","1"
"100","77","19","627.480827966","1","1","2","152","0","right","3","in","Female","Right-handed","0","no","right","s","677.308801731","897.160272812","12","red","0"
"100","77","19","631.251484637","1","1","2","153","2","left","3","in","Female","Right-handed","0","no","left","d","789.683346556","736.765589732","12","green","1"
"100","78","19","630.538632034","1","1","2","154","1","left","3","out","Female","Right-handed","0","no","left","s","697.345388746","512.406487909","12","green","0"
"100","76","19","626.680805526","1","0","2","155","1","right","2","in","Female","Right-handed","0","no","right","s","462.917481012","504.964968446","12","red","0"
"100","76","19","622.25573735","1","1","2","156","1","left","3","out","Female","Right-handed","0","no","left","s","531.658929984","376.547363316","12","red","0"
"100","77","19","618.932530181","1","1","2","157","2","right","0","in","Female","Right-handed","0","no","right","s","482.287625007","496.367276171","12","green","3"
"100","78","19","615.773573985","1","1","2","158","3","left","0","in","Female","Right-handed","0","no","left","s","617.858748716","360.971903558","12","red","2"
"100","78","19","611.386471802","1","1","2","159","0","left","0","out","Female","Right-handed","0","no","left","s","422.4414906","440.589074055","12","red","2"
"100","79","19","605.41699349","1","1","2","160","2","right","0","out","Female","Right-handed","0","no","right","s","452.210134166","257.187674588","12","green","3"
"100","79","19","600.903702628","1","1","2","161","1","right","0","out","Female","Right-handed","0","no","right","s","452.889085023","360.775306073","12","red","3"
"100","80","19","597.768884031","1","1","2","162","0","left","0","in","Female","Right-handed","0","no","left","d","495.388137315","424.285594247","12","green","1"
"100","78","19","595.198856285","1","0","2","163","1","right","2","out","Female","Right-handed","0","no","right","d","454.038843558","505.056371843","12","red","0"
"100","76","19","594.113609559","1","0","2","164","2","right","0","in","Female","Right-handed","0","no","right","d","535.575806129","552.808714176","12","red","3"
"100","77","19","590.555097113","1","1","2","165","2","left","1","out","Female","Right-handed","0","no","left","s","486.317713081","360.292311276","12","green","2"
"100","77","19","586.746269023","1","1","2","166","1","left","1","out","Female","Right-handed","0","no","left","s","422.841420557","385.003620857","12","green","2"
"100","76","19","583.973138947","1","0","2","167","1","left","0","out","Female","Right-handed","0","no","left","s","431.560663314","464.618867072","12","red","2"
"100","76","19","582.174208073","1","1","2","168","0","left","0","out","Female","Right-handed","0","no","left","d","448.212117461","536.243211294","12","green","2"
"100","75","19","582.264001977","1","0","2","169","0","right","2","out","Female","Right-handed","0","no","right","s","596.770862265","576.916119902","12","green","1"
"100","75","19","579.873308779","1","1","2","170","1","right","0","in","Female","Right-handed","0","no","right","s","510.632620559","400.481904371","12","red","1"
"100","74","19","579.1085483","1","0","2","171","3","left","1","in","Female","Right-handed","0","no","left","d","661.071068227","416.081417656","12","red","3"
"100","74","19","576.981927434","1","1","2","172","1","right","0","out","Female","Right-handed","0","no","right","s","523.615110233","400.673691152","12","green","1"
"100","75","19","575.318793977","1","1","2","173","2","right","2","out","Female","Right-handed","0","no","right","d","543.334832135","424.358075537","12","red","0"
"100","75","19","576.154033873","1","1","2","174","0","left","0","in","Female","Right-handed","0","no","left","s","765.955986537","479.898949536","12","green","3"
"100","75","19","575.447223612","1","1","2","175","3","right","0","in","Female","Right-handed","0","no","right","d","509.664385965","560.653691446","12","green","1"
"100","74","19","573.331712407","1","0","2","176","1","right","1","out","Female","Right-handed","0","no","right","s","461.099034461","440.165090573","12","green","0"
"100","73","19","574.921721809","1","0","2","177","1","right","0","in","Female","Right-handed","0","no","right","s","544.762008001","792.702545121","12","green","1"
"100","72","19","578.19457926","1","0","2","178","3","left","0","in","Female","Right-handed","0","no","left","d","532.516518359","1016.61553422","12","green","3"
"100","72","19","576.271102624","1","1","2","179","2","left","3","out","Female","Right-handed","0","no","left","d","517.888126089","399.989929592","12","red","0"
"100","73","19","574.70545834","1","1","2","180","1","left","0","in","Female","Right-handed","0","no","left","d","458.596826345","496.674199163","12","red","2"
"100","73","19","573.519381209","1","1","2","181","1","right","1","out","Female","Right-handed","0","no","right","d","501.354373861","496.238669988","12","green","3"
"100","73","19","572.96103689","1","1","2","182","3","left","0","in","Female","Right-handed","0","no","left","d","570.745268031","503.708732969","12","red","2"
"100","72","19","572.764981853","1","0","2","183","0","left","2","in","Female","Right-handed","0","no","left","s","511.576480911","608.466327949","12","red","0"
"100","73","19","572.277633196","1","1","2","184","2","left","0","in","Female","Right-handed","0","no","left","d","464.020736065","616.204507567","12","red","3"
"100","73","19","570.719382192","1","1","2","185","0","right","3","in","Female","Right-handed","0","no","right","s","603.781983975","328.851145878","12","red","2"
"100","73","19","573.294388653","1","1","2","186","3","left","2","in","Female","Right-handed","0","no","left","d","624.412853434","872.376802652","12","green","0"
"100","74","19","576.282249937","1","1","2","187","0","right","2","out","Female","Right-handed","0","no","right","d","436.929410278","1127.95994671","12","red","3"
"100","73","19","574.948758311","1","0","2","188","2","right","2","out","Female","Right-handed","0","no","right","s","562.543977863","400.664711169","12","green","3"
"100","73","19","572.320965509","1","1","2","189","1","left","1","out","Female","Right-handed","0","no","left","s","451.194113235","320.301239945","12","green","0"
"100","73","19","570.171526637","1","1","2","190","1","right","0","out","Female","Right-handed","0","no","right","s","438.834128811","391.989726901","12","green","3"
"100","72","19","571.148901362","1","0","2","191","3","right","2","out","Female","Right-handed","0","no","right","s","500.497106201","784.497406388","12","red","1"
"100","73","19","571.981027007","1","1","2","192","0","right","0","out","Female","Right-handed","0","no","right","d","531.083890359","736.032758978","12","red","1"
"100","73","19","569.865039802","1","1","2","193","0","left","3","in","Female","Right-handed","0","no","left","s","390.771014923","431.560984027","12","red","1"
"100","74","19","568.987384299","1","1","2","194","2","left","3","out","Female","Right-handed","0","no","left","d","492.329170256","512.241961793","12","red","2"
"100","74","19","569.480693999","1","1","2","195","3","left","0","out","Female","Right-handed","0","no","left","s","582.857340784","632.073741055","12","red","1"
"100","74","19","568.817175966","1","1","2","196","3","left","1","out","Female","Right-handed","0","no","left","d","506.521071209","527.60446767","12","green","2"
"100","75","19","569.079240653","1","1","2","197","3","right","0","in","Female","Right-handed","0","no","right","d","515.269178197","664.295523542","12","green","2"
"100","75","19","571.623401877","1","1","2","198","3","right","0","out","Female","Right-handed","0","no","right","d","438.751063968","1111.56153565","12","green","3"
"100","75","19","570.322103933","1","1","2","199","1","right","2","in","Female","Right-handed","0","no","right","d","529.404954257","400.428986615","12","red","3"
"100","75","19","568.353659767","1","1","2","200","0","right","0","out","Female","Right-handed","0","no","right","d","405.854499901","408.027976497","12","green","3"
"100","76","19","567.43537879","1","1","2","201","0","left","0","in","Female","Right-handed","0","no","left","d","486.716039468","495.720075969","12","green","3"
"100","76","19","568.268879254","1","1","2","202","3","left","3","out","Female","Right-handed","0","no","left","s","636.236925306","640.328911119","12","red","2"
"100","75","19","569.37444827","1","0","2","203","0","right","2","out","Female","Right-handed","0","no","right","d","542.768131067","783.927498183","12","green","0"
"100","75","19","568.146021911","1","1","2","204","2","right","0","out","Female","Right-handed","0","no","right","s","468.535743219","456.466966811","12","green","2"
"100","76","19","569.758860269","1","1","2","205","2","left","2","in","Female","Right-handed","0","no","left","s","763.927793239","656.223801701","12","red","1"
"100","76","19","568.578836326","1","1","2","206","3","left","0","out","Female","Right-handed","0","no","left","d","505.761941933","423.711516763","12","green","2"
"100","75","19","566.883055749","1","0","2","207","0","right","1","out","Female","Right-handed","0","no","right","s","455.42208165","376.495086986","12","red","2"
"100","74","19","566.636650921","1","0","2","208","2","right","0","in","Female","Right-handed","0","no","right","d","632.969173643","455.951259217","12","red","1"
"100","75","19","565.962973913","1","1","2","209","0","right","0","in","Female","Right-handed","0","no","right","s","649.594649984","359.722082356","12","green","1"
"100","75","19","564.691412851","1","1","2","210","2","right","0","in","Female","Right-handed","0","no","right","s","591.224119207","304.191471197","12","red","2"
"100","75","19","564.012246022","1","1","2","211","3","right","3","in","Female","Right-handed","0","no","right","s","577.866073816","423.833387962","12","green","1"
"100","75","19","562.67469907","1","1","2","212","2","right","1","in","Female","Right-handed","0","no","right","d","466.580672639","407.309898572","12","red","3"
"100","76","19","563.674468521","1","1","2","213","3","right","1","in","Female","Right-handed","0","no","right","d","557.203132988","760.101999778","12","red","0"
"100","0","19","568.959053203","1","0","3","214","2","right","3","out","Female","Right-handed","0","no","right","d","688.895224767","449.022881639","12","green","0"
"100","50","19","638.734563249","1","1","3","215","1","right","3","in","Female","Right-handed","0","no","right","d","640.501134365","776.519012226","12","red","1"
"100","33","19","677.873685422","1","0","3","216","3","right","0","out","Female","Right-handed","0","no","right","d","496.09851811","1016.20534142","12","green","1"
"100","50","19","624.469258953","1","1","3","217","2","right","0","out","Female","Right-handed","0","no","right","d","431.727434425","496.784524666","12","red","3"
"100","60","19","649.163546657","1","1","3","218","1","left","2","in","Female","Right-handed","0","no","left","s","1047.45985146","448.421543493","12","red","0"
"100","50","19","704.725251007","1","0","3","219","2","left","0","out","Female","Right-handed","0","no","left","s","628.024410158","1337.04313535","12","red","2"
"100","57","19","669.641362388","1","1","3","220","1","right","0","out","Female","Right-handed","0","no","right","d","413.751753502","504.524307851","12","red","2"
"100","62","19","644.28589652","1","1","3","221","2","left","2","out","Female","Right-handed","0","no","left","s","573.31001531","360.285255574","12","green","0"
"100","66","19","622.73537836","1","1","3","222","1","right","1","out","Female","Right-handed","0","no","right","d","467.729148319","432.933317854","12","green","0"
"100","70","19","612.212953241","1","1","3","223","3","right","0","in","Female","Right-handed","0","no","right","d","554.451730348","480.570523976","12","green","3"
"100","72","19","601.14774387","1","1","3","224","3","left","2","out","Female","Right-handed","0","no","left","s","668.052042851","312.93925747","12","red","3"
"100","75","19","594.200849934","1","1","3","225","0","left","0","in","Female","Right-handed","0","no","left","d","354.854931582","680.7151017","12","green","3"
"100","76","19","580.865166098","1","1","3","226","2","right","0","out","Female","Right-handed","0","no","right","s","481.293733319","360.380186821","12","green","3"
"100","78","19","568.487833177","1","1","3","227","2","left","0","in","Female","Right-handed","0","no","left","d","455.142419321","360.022591072","12","green","3"
"100","80","19","570.902588779","1","1","3","228","0","left","2","in","Female","Right-handed","0","no","left","d","624.698288608","584.720045823","12","red","1"
"100","81","19","570.07692077","1","1","3","229","2","right","0","out","Female","Right-handed","0","no","right","d","523.164507515","592.219293749","12","green","2"
"100","82","19","569.150547566","1","1","3","230","1","left","2","out","Female","Right-handed","0","no","left","s","515.802525042","592.854627546","12","red","0"
"100","83","19","579.229302939","1","1","3","231","2","right","1","out","Female","Right-handed","0","no","right","d","628.532741339","872.603547223","12","green","0"
"100","84","19","572.070305029","1","1","3","232","2","right","2","out","Female","Right-handed","0","no","right","d","390.141453974","496.275231348","12","green","3"
"100","85","19","568.727513962","1","1","3","233","2","right","1","out","Female","Right-handed","0","no","right","d","505.664765689","504.764201683","12","red","0"
"100","85","19","569.324300265","1","1","3","234","3","left","0","out","Female","Right-handed","0","no","left","d","578.183259644","584.336792979","12","green","2"
"100","86","19","565.355076982","1","1","3","235","3","left","1","in","Female","Right-handed","0","no","left","s","435.853415889","528.149360209","12","red","3"
"100","86","19","561.038506027","1","1","3","236","0","right","0","out","Female","Right-handed","0","no","right","s","515.469624244","416.678265812","12","green","2"
"100","87","19","561.340326067","1","1","3","237","3","right","2","out","Female","Right-handed","0","no","right","d","704.321873378","432.24250059","12","red","0"
"100","88","19","562.724520421","1","1","3","238","0","left","0","in","Female","Right-handed","0","no","left","s","710.971550772","480.918819028","12","red","1"
"100","88","19","558.946896426","1","1","3","239","1","right","2","in","Female","Right-handed","0","no","right","s","512.425089302","416.58750384","12","red","3"
"100","85","19","556.453648879","1","0","3","240","3","right","3","in","Female","Right-handed","0","no","right","d","599.098602137","384.15982317","12","red","2"
"100","85","19","550.606430621","1","1","3","241","0","left","3","out","Female","Right-handed","0","no","left","s","488.699332851","296.763742419","12","green","2"
"100","86","19","547.738297285","1","1","3","242","0","right","0","out","Female","Right-handed","0","no","right","d","502.330947011","432.53018076","12","red","2"
"100","86","19","559.596955914","1","1","3","243","1","right","2","in","Female","Right-handed","0","no","right","s","1270.90940929","536.086703018","12","red","1"
"100","83","19","560.261199978","1","0","3","244","3","left","3","in","Female","Right-handed","0","no","left","d","679.75745066","480.619593169","12","green","0"
"100","84","19","556.213981849","1","1","3","245","3","right","3","out","Female","Right-handed","0","no","right","s","477.241836714","384.258602984","12","red","0"
"100","84","19","552.233655114","1","1","3","246","1","left","0","out","Female","Right-handed","0","no","left","s","424.821186088","424.905213073","12","red","1"
"100","85","19","557.0791913","1","1","3","247","3","right","1","in","Female","Right-handed","0","no","right","d","817.455547482","616.50822342","12","red","2"
"100","82","19","559.994047554","1","0","3","248","0","right","0","in","Female","Right-handed","0","no","right","d","582.095966513","736.102353845","12","green","3"
"100","83","19","557.63829245","1","1","3","249","3","left","2","out","Female","Right-handed","0","no","left","s","613.680490924","336.693236724","12","green","0"
"100","83","19","554.637839627","1","1","3","250","0","left","2","out","Female","Right-handed","0","no","left","d","477.084045584","416.159030368","12","red","0"
"100","81","19","557.356809698","1","0","3","251","0","right","0","out","Female","Right-handed","0","no","right","d","627.934610329","687.982794352","12","green","3"
"100","82","19","559.345952643","1","1","3","252","0","left","0","in","Female","Right-handed","0","no","left","s","901.446290402","368.420478722","12","red","2"
"100","82","19","558.166119903","1","1","3","253","3","left","0","out","Female","Right-handed","0","no","left","d","576.188741281","448.116544785","12","red","1"
"100","82","19","557.458350675","1","1","3","254","2","right","2","out","Female","Right-handed","0","no","right","s","522.652007059","535.643156001","12","green","0"
"100","83","19","553.291976235","1","1","3","255","2","left","0","out","Female","Right-handed","0","no","left","d","404.498843185","360.442405276","12","green","2"
"100","83","19","551.887583471","1","1","3","256","3","left","0","out","Female","Right-handed","0","no","left","d","609.89735238","375.908822383","12","green","3"
"100","84","19","552.01866883","1","1","3","257","2","left","3","in","Female","Right-handed","0","no","left","s","491.709230717","623.601447829","12","red","1"
"100","84","19","552.434680067","1","1","3","258","1","right","3","in","Female","Right-handed","0","no","right","d","693.170979517","448.307369424","12","green","0"
"100","84","19","549.630859951","1","1","3","259","3","right","0","out","Female","Right-handed","0","no","right","d","494.882692557","352.035216927","12","green","3"
"100","85","19","550.096892378","1","1","3","260","1","left","1","in","Female","Right-handed","0","no","left","s","614.475540129","528.593227939","12","green","0"
"100","83","19","548.930303626","1","0","3","261","1","left","0","out","Female","Right-handed","0","no","left","d","620.109838021","368.09142649","12","red","1"
"100","83","19","548.204578071","1","1","3","262","0","right","2","out","Female","Right-handed","0","no","right","s","690.957734427","335.781768454","12","red","3"
"100","84","19","546.470218848","1","1","3","263","0","left","3","out","Female","Right-handed","0","no","left","d","490.409698896","432.563534983","12","green","1"
"100","82","19","545.697457481","1","0","3","264","3","left","0","out","Female","Right-handed","0","no","left","d","606.0359597","408.082818534","12","green","2"
"100","82","19","544.455541412","1","1","3","265","1","left","1","in","Female","Right-handed","0","no","left","d","538.585062568","423.650581166","12","red","2"
"100","83","19","541.858284516","1","1","3","266","0","right","1","in","Female","Right-handed","0","no","right","s","501.338979604","312.262872325","12","green","3"
"100","81","19","540.906058545","1","0","3","267","0","left","0","in","Female","Right-handed","0","no","left","d","548.980355004","431.895809106","12","green","3"
"100","81","19","539.835044127","1","1","3","268","3","left","3","out","Female","Right-handed","0","no","left","d","492.504600637","471.495930464","12","red","1"
"100","82","19","539.222767354","1","1","3","269","2","left","3","in","Female","Right-handed","0","no","left","d","579.046620866","432.048468818","12","green","2"
"100","82","19","538.390563789","1","1","3","270","2","right","0","out","Female","Right-handed","0","no","right","d","479.63179504","503.94253324","12","red","3"
"100","82","19","539.573153761","1","1","3","271","0","left","1","in","Female","Right-handed","0","no","left","d","774.401660526","439.559903864","12","green","0"
"100","81","19","538.741706738","1","0","3","272","3","left","0","out","Female","Right-handed","0","no","left","s","484.97552634","496.060032469","12","green","1"
"100","81","19","537.416769455","1","1","3","273","1","left","3","out","Female","Right-handed","0","no","left","s","526.729240042","391.761699475","12","green","2"
"100","81","19","537.783735785","1","1","3","274","0","right","0","in","Female","Right-handed","0","no","right","d","743.349520822","376.253910303","12","red","1"
"100","82","19","535.68964914","1","1","3","275","1","left","0","out","Female","Right-handed","0","no","left","s","479.906967375","335.993760194","12","red","3"
"100","82","19","535.90905564","1","1","3","276","0","left","2","in","Female","Right-handed","0","no","left","s","635.548032325","463.476484952","12","red","0"
"100","82","19","537.694565964","1","1","3","277","0","right","1","in","Female","Right-handed","0","no","right","d","724.169239324","576.194193414","12","red","0"
"100","83","19","536.388551331","1","1","3","278","3","left","0","in","Female","Right-handed","0","no","left","s","545.891240861","359.715988796","12","red","2"
"100","83","19","536.404539992","1","1","3","279","2","right","0","in","Female","Right-handed","0","no","right","d","723.520435555","351.367170337","12","green","1"
"98","83","19","538.660585852","0","1","3","280","0","left","0","in","Female","Right-handed","0","no","right","d","644.002365583","731.116859724","12","red","2"
"98","83","19","537.549706847","1","1","3","281","0","left","3","out","Female","Right-handed","0","no","left","d","518.637954667","407.6036723","12","red","0"
"98","84","19","536.964668331","1","1","3","282","0","right","0","out","Female","Right-handed","0","no","right","s","659.067249167","335.296849373","12","red","1"
"98","84","19","536.742736591","1","1","3","283","0","right","1","in","Female","Right-handed","0","no","right","s","706.94948054","335.909412497","12","red","2"
"98","84","19","535.618684645","1","1","3","284","1","right","1","in","Female","Right-handed","0","no","right","s","554.406509718","359.463587132","12","green","3"
"98","84","19","534.551045751","1","1","3","285","2","left","1","in","Female","Right-handed","0","no","left","d","525.348888376","392.14848017","12","green","3"
"98","84","19","534.479178429","1","1","3","286","2","left","1","in","Female","Right-handed","0","no","left","s","530.860032212","527.749430252","12","red","2"
"98","85","19","538.829244861","1","1","3","287","2","left","3","in","Female","Right-handed","0","no","left","d","1169.40834099","543.359847801","12","green","0"
"98","84","19","537.984528344","1","0","3","288","3","left","0","out","Female","Right-handed","0","no","left","s","566.919153855","384.031858413","12","green","1"
"98","84","19","535.874707057","1","1","3","289","1","right","0","out","Female","Right-handed","0","no","right","s","459.736642757","295.539578312","12","red","3"
"98","84","19","537.243240274","1","1","3","290","2","right","0","in","Female","Right-handed","0","no","right","d","707.256082816","575.247446637","12","green","1"
"98","84","19","535.058291438","1","1","3","291","1","left","0","in","Female","Right-handed","0","no","left","s","429.794493089","303.839969007","12","red","2"
"98","83","19","534.007258457","1","0","3","292","2","right","0","in","Female","Right-handed","0","no","right","s","456.476588222","447.576783665","12","green","2"
"98","83","19","534.347087888","1","1","3","293","0","right","3","in","Female","Right-handed","0","no","right","s","563.201440902","559.185784943","12","green","0"
"98","83","19","533.766428647","1","1","3","294","1","left","3","out","Female","Right-handed","0","no","left","s","654.704260296","319.923118517","12","red","0"
"98","84","19","534.104193819","1","1","3","295","1","left","0","out","Female","Right-handed","0","no","left","d","651.482691403","471.443654134","12","red","3"
"98","84","19","532.815015851","1","1","3","296","3","right","1","out","Female","Right-handed","0","no","right","d","470.126162347","384.078682611","12","green","0"
"98","84","19","532.284917266","1","1","3","297","3","left","2","in","Female","Right-handed","0","no","left","d","560.762413383","415.811056026","12","green","1"
"98","84","19","531.879833792","1","1","3","298","2","right","0","in","Female","Right-handed","0","no","right","d","596.35361377","399.352030087","12","red","1"
"98","84","19","531.386261825","1","1","3","299","1","left","0","out","Female","Right-handed","0","no","left","d","578.959707458","399.905581895","12","green","2"
"98","83","19","530.095609318","1","0","3","300","3","left","0","in","Female","Right-handed","0","no","left","d","438.541317222","399.657670219","12","green","3"
"98","84","19","529.289830802","1","1","3","301","3","right","0","in","Female","Right-handed","0","no","right","s","583.136682397","335.237517342","12","green","2"
"98","84","19","529.038097448","1","1","3","302","2","right","2","in","Female","Right-handed","0","no","right","s","605.840965785","407.930158824","12","green","1"
"98","84","19","528.619579912","1","1","3","303","1","left","0","in","Female","Right-handed","0","no","left","d","583.343542718","399.399495709","12","green","1"
"98","84","19","527.180336166","1","1","3","304","1","right","0","in","Female","Right-handed","0","no","right","s","476.146920218","319.149877842","12","green","1"
"98","84","19","527.708692643","1","1","3","305","3","right","1","in","Female","Right-handed","0","no","right","s","607.847671266","543.730592813","12","red","0"
"98","84","19","527.081190543","1","1","3","306","2","right","0","out","Female","Right-handed","0","no","right","d","539.271710553","399.430284222","12","red","1"
"98","85","19","528.042652967","1","1","3","307","1","right","0","in","Female","Right-handed","0","no","right","d","660.002450253","574.914866555","12","red","2"
"98","84","19","526.812618848","1","0","3","308","0","right","0","out","Female","Right-handed","0","no","right","d","430.601729415","391.777093732","12","red","1"
"98","84","19","526.061874969","1","1","3","309","1","right","0","in","Female","Right-handed","0","no","right","s","526.389924973","383.092488051","12","red","3"
"100","100","19","731.79789522","1","1","4","310","1","left","1","in","Female","Right-handed","0","no","left","d","654.774817305","808.820973136","12","green","0"
"100","50","19","579.320750881","1","0","4","311","3","right","0","out","Female","Right-handed","0","no","right","s","565.333866147","288.353346935","12","green","3"
"100","66","19","576.703326378","1","1","4","312","3","left","0","in","Female","Right-handed","0","no","left","d","751.062043344","391.874911404","12","green","1"
"100","75","19","557.420456594","1","1","4","313","3","left","0","in","Female","Right-handed","0","no","left","d","543.514752508","455.628941972","12","red","2"
"100","80","19","547.781880062","1","1","4","314","0","left","0","out","Female","Right-handed","0","no","left","s","506.269631685","512.185516185","12","red","2"
"100","83","19","523.288249543","1","1","4","315","0","left","1","in","Female","Right-handed","0","no","left","d","433.837409711","367.802784178","12","red","0"
"100","71","19","506.035075447","1","0","4","316","2","left","0","in","Female","Right-handed","0","no","left","d","452.433992316","352.598069432","12","red","2"
"100","75","19","504.062480156","1","1","4","317","0","left","0","out","Female","Right-handed","0","no","left","s","484.238526308","496.270099928","12","green","3"
"100","77","19","517.695751335","1","1","4","318","0","left","3","out","Female","Right-handed","0","no","left","s","821.802821383","431.721020152","12","green","1"
"100","80","19","507.16578588","1","1","4","319","0","left","1","out","Female","Right-handed","0","no","left","d","424.300026363","400.49216721","12","red","0"
"100","81","19","503.784756689","1","1","4","320","0","right","0","out","Female","Right-handed","0","no","right","d","483.940262588","456.008666966","12","red","3"
"100","83","19","500.732042333","1","1","4","321","1","right","0","out","Female","Right-handed","0","no","right","s","470.497228072","463.807140755","12","green","3"
"100","84","19","500.355252074","1","1","4","322","0","left","2","out","Female","Right-handed","0","no","left","s","415.261994211","576.405543728","12","green","3"
"100","85","19","502.974436096","1","1","4","323","3","left","2","out","Female","Right-handed","0","no","left","s","658.112484549","415.935172219","12","red","1"
"100","86","19","510.284336194","1","1","4","324","3","left","0","out","Female","Right-handed","0","no","left","d","649.644681316","575.601193825","12","green","1"
"100","87","19","506.176003337","1","1","4","325","1","left","2","out","Female","Right-handed","0","no","left","d","569.056069089","320.045951855","12","red","0"
"100","88","19","508.945525122","1","1","4","326","1","right","0","in","Female","Right-handed","0","no","right","d","682.65092946","423.864817902","12","green","2"
"100","88","19","513.859668309","1","1","4","327","1","left","3","in","Female","Right-handed","0","no","left","d","562.467006581","632.333198421","12","red","2"
"100","89","19","518.761488513","1","1","4","328","0","left","3","in","Female","Right-handed","0","no","left","d","509.959763261","704.028741078","12","green","2"
"100","90","19","520.08305041","1","1","4","329","2","right","0","in","Female","Right-handed","0","no","right","d","522.661628469","567.723824472","12","red","1"
"100","90","19","515.706013134","1","1","4","330","1","left","1","in","Female","Right-handed","0","no","left","s","544.172536262","312.157998953","12","green","3"
"100","90","19","512.98528863","1","1","4","331","3","right","1","in","Female","Right-handed","0","no","right","d","487.872853704","423.827294402","12","red","0"
"100","91","19","513.664891689","1","1","4","332","3","left","1","in","Female","Right-handed","0","no","left","d","513.633859155","543.598458779","12","green","2"
"100","91","19","508.730761723","1","1","4","333","1","left","0","out","Female","Right-handed","0","no","left","d","430.106547497","360.384997528","12","green","1"
"100","92","19","512.495947783","1","1","4","334","2","right","0","out","Female","Right-handed","0","no","right","d","613.846941322","591.873885119","12","green","1"
"100","92","19","513.569266186","1","1","4","335","2","right","3","out","Female","Right-handed","0","no","right","s","393.425241322","687.379211211","12","green","0"
"100","92","19","514.34742927","1","1","4","336","0","right","1","out","Female","Right-handed","0","no","right","d","564.950934015","504.20840488","12","red","3"
"100","92","19","521.199924339","1","1","4","337","0","left","0","in","Female","Right-handed","0","no","left","d","748.644182927","663.7903995","12","red","3"
"100","93","19","520.309027756","1","1","4","338","1","left","0","in","Female","Right-handed","0","no","left","d","710.35738408","280.370462784","12","green","2"
"100","93","19","516.164867356","1","1","4","339","1","left","0","in","Female","Right-handed","0","no","left","d","399.941822538","392.026608974","12","red","3"
"100","93","19","513.33848703","1","1","4","340","3","left","1","out","Female","Right-handed","0","no","left","d","441.529406557","415.564747922","12","green","0"
"100","93","19","508.602202309","1","1","4","341","0","right","2","out","Female","Right-handed","0","no","right","s","452.307631125","271.247120793","12","red","0"
"100","93","19","506.991130556","1","1","4","342","2","left","2","out","Female","Right-handed","0","no","left","s","454.887772663","455.985896296","12","red","3"
"97","94","19","505.845681219","0","1","4","343","1","right","2","in","Female","Right-handed","0","no","left","d","565.624112025","370.467594128","12","green","1"
"97","91","19","505.852891752","1","0","4","344","1","left","3","out","Female","Right-handed","0","no","left","d","444.067534603","568.128565134","12","green","1"
"97","91","19","511.057730992","1","1","4","345","0","right","1","in","Female","Right-handed","0","no","right","d","818.695747272","567.758461549","12","red","2"
"97","89","19","510.119834059","1","0","4","346","0","right","0","out","Female","Right-handed","0","no","right","d","513.363818238","439.347270696","12","red","1"
"97","89","19","514.419139254","1","1","4","347","3","left","2","out","Female","Right-handed","0","no","left","s","1035.05272212","311.934140806","12","red","0"
"97","89","19","515.718748874","1","1","4","348","1","right","2","out","Female","Right-handed","0","no","right","s","546.559928878","583.647899999","12","green","3"
"97","90","19","515.430918114","1","1","4","349","2","left","0","out","Female","Right-handed","0","no","left","d","464.263516319","544.147520593","12","green","3"
"97","87","19","517.3423731","1","0","4","350","1","right","0","out","Female","Right-handed","0","no","right","d","635.748478373","551.852666702","12","red","1"
"97","88","19","528.212418626","1","1","4","351","1","right","0","out","Female","Right-handed","0","no","right","d","732.405487283","1215.36308316","12","red","1"
"97","88","19","527.546936857","1","1","4","352","1","left","2","out","Female","Right-handed","0","no","left","d","615.088423969","384.104981132","12","red","0"
"97","88","19","527.107430714","1","1","4","353","2","right","0","in","Female","Right-handed","0","no","right","d","520.679297226","495.738035937","12","green","3"
"97","88","19","523.666905492","1","1","4","354","3","left","2","in","Female","Right-handed","0","no","left","s","433.279688625","311.287902745","12","green","3"
"97","89","19","522.021274807","1","1","4","355","1","left","0","in","Female","Right-handed","0","no","left","s","407.97088946","487.96489853","12","red","3"
"97","89","19","520.342923168","1","1","4","356","3","left","1","out","Female","Right-handed","0","no","left","s","430.681587122","455.595908463","12","green","3"
"97","89","19","518.266401191","1","1","4","357","2","right","0","in","Female","Right-handed","0","no","right","s","522.076967434","319.262769055","12","green","2"
"97","89","19","516.768681542","1","1","4","358","1","left","0","in","Female","Right-handed","0","no","left","s","393.86205335","495.894223497","12","red","3"
"98","90","19","517.021477554","1","1","4","359","2","right","0","out","Female","Right-handed","0","no","right","s","627.492666881","431.324297333","12","red","2"
"98","90","19","515.30780533","1","1","4","360","0","left","2","in","Female","Right-handed","0","no","left","s","435.091079476","424.157308776","12","red","0"
"98","90","19","515.353337783","1","1","4","361","3","left","0","in","Female","Right-handed","0","no","left","d","499.654912082","535.696073759","12","green","2"
"98","88","19","515.088165582","1","0","4","362","2","right","3","out","Female","Right-handed","0","no","right","s","619.308053827","383.290368391","12","red","1"
"98","88","19","513.363830116","1","1","4","363","2","right","1","out","Female","Right-handed","0","no","right","d","452.994920537","390.953180293","12","red","2"
"98","89","19","512.720822301","1","1","4","364","2","left","2","in","Female","Right-handed","0","no","left","s","668.393602917","287.603197644","12","green","0"
"98","89","19","511.410543082","1","1","4","365","0","right","2","out","Female","Right-handed","0","no","right","d","471.258602343","407.431769769","12","green","1"
"98","87","19","508.3497806","1","0","4","366","2","right","1","in","Female","Right-handed","0","no","right","s","377.899812895","295.994350309","12","green","0"
"98","87","19","509.551815464","1","1","4","367","3","left","3","in","Female","Right-handed","0","no","left","s","612.659980001","543.47562544","12","green","2"
"98","88","19","511.457702698","1","1","4","368","3","left","0","in","Female","Right-handed","0","no","left","s","597.00337968","646.994944911","12","green","3"
"98","88","19","511.613004854","1","1","4","369","3","right","0","out","Female","Right-handed","0","no","right","s","553.794588021","487.757076067","12","red","2"
"98","88","19","510.091860494","1","1","4","370","2","left","0","out","Female","Right-handed","0","no","left","s","422.377027151","415.269370626","12","red","3"
"98","88","19","512.768930575","1","1","4","371","2","right","0","in","Female","Right-handed","0","no","right","d","641.06847686","711.071934153","12","green","1"
"98","88","19","511.459041163","1","1","4","372","2","right","1","out","Female","Right-handed","0","no","right","s","556.692556813","303.799238368","12","green","0"
"98","87","19","509.91065398","1","0","4","373","1","right","1","out","Female","Right-handed","0","no","right","d","409.312434776","415.412088212","12","red","0"
"98","87","19","508.281562334","1","1","4","374","2","left","2","out","Female","Right-handed","0","no","left","s","473.06101321","334.978380692","12","green","0"
"98","87","19","509.914457596","1","1","4","375","2","left","1","out","Female","Right-handed","0","no","left","s","488.553087415","743.552211867","12","red","3"
"98","88","19","508.531895708","1","1","4","376","1","right","3","in","Female","Right-handed","0","no","right","s","531.164710206","303.400911982","12","red","0"
"98","88","19","509.213297461","1","1","4","377","3","right","0","in","Female","Right-handed","0","no","right","s","742.774160484","366.960269348","12","green","1"
"98","88","19","508.716007732","1","1","4","378","2","right","2","out","Female","Right-handed","0","no","right","s","558.338459407","391.462152898","12","red","1"
"98","87","19","507.614219198","1","0","4","379","1","right","3","in","Female","Right-handed","0","no","right","d","472.121963563","391.059657235","12","red","0"
"98","85","19","506.094571706","1","0","4","380","0","left","0","out","Female","Right-handed","0","no","left","s","455.677369738","343.761124755","12","green","1"
"98","86","19","506.55007798","1","1","4","381","0","right","0","in","Female","Right-handed","0","no","right","d","622.397488683","455.384558151","12","red","1"
"98","86","19","506.672716059","1","1","4","382","1","right","1","in","Female","Right-handed","0","no","right","s","671.980785402","359.024530106","12","red","2"
"98","85","19","509.753227988","1","0","4","383","3","right","3","in","Female","Right-handed","0","no","right","d","605.642444017","863.618753539","12","red","0"
"98","84","19","508.045609334","1","0","4","384","0","right","0","in","Female","Right-handed","0","no","right","s","460.265178897","303.098478984","12","green","3"
"98","84","19","507.04962001","1","1","4","385","3","right","0","out","Female","Right-handed","0","no","right","d","433.824901877","430.875939612","12","green","3"
"98","84","19","506.548937896","1","1","4","386","2","right","0","in","Female","Right-handed","0","no","right","d","505.510823125","431.483371316","12","red","3"
"98","84","19","507.113546556","1","1","4","387","0","left","3","in","Female","Right-handed","0","no","left","s","726.086465689","375.090361078","12","green","0"
"98","84","19","507.765026193","1","1","4","388","3","left","3","in","Female","Right-handed","0","no","left","s","782.564465053","334.596410701","12","red","0"
"98","85","19","507.197684864","1","1","4","389","0","left","0","out","Female","Right-handed","0","no","left","d","437.364939451","487.390500333","12","red","2"
"98","83","19","508.009176735","1","0","4","390","2","left","0","out","Female","Right-handed","0","no","left","s","466.798437226","679.058615557","12","red","2"
"98","84","19","513.039340085","1","1","4","391","3","right","0","out","Female","Right-handed","0","no","right","s","801.558091189","1039.40705172","12","green","1"
"98","84","19","511.95046204","1","1","4","392","1","right","0","in","Female","Right-handed","0","no","right","s","542.116761588","303.208163061","12","red","2"
"98","84","19","510.906284776","1","1","4","393","1","left","0","out","Female","Right-handed","0","no","left","s","521.673509627","326.80563404","12","green","2"
"98","84","19","511.146162391","1","1","4","394","0","right","0","in","Female","Right-handed","0","no","right","s","639.272159551","423.31960465","12","green","2"
"98","84","19","510.266600479","1","1","4","395","3","right","0","in","Female","Right-handed","0","no","right","d","431.973421815","439.034254145","12","green","3"
"98","83","19","510.506736753","1","0","4","396","2","left","3","out","Female","Right-handed","0","no","left","s","534.714048477","527.602864102","12","red","0"
"98","84","19","514.861418089","1","1","4","397","0","right","3","in","Female","Right-handed","0","no","right","d","564.258833898","1223.17855477","12","red","0"
"98","83","19","514.675214664","1","0","4","398","3","left","0","in","Female","Right-handed","0","no","left","s","493.849673802","502.728952684","12","red","2"
"98","82","19","514.661192369","1","0","4","399","1","right","0","in","Female","Right-handed","0","no","right","s","652.40153609","374.424880198","12","green","1"
"98","82","19","513.128047868","1","1","4","400","2","right","3","out","Female","Right-handed","0","no","right","s","439.133033958","311.157051563","12","green","2"
"98","82","19","512.766060232","1","1","4","401","0","left","0","in","Female","Right-handed","0","no","left","s","416.71129932","542.939071458","12","red","2"
"98","82","19","513.293097423","1","1","4","402","0","right","0","out","Female","Right-handed","0","no","right","d","564.307261664","559.253776244","12","green","1"
"98","81","19","513.342209301","1","0","4","403","2","right","0","in","Female","Right-handed","0","no","right","d","540.8063255","495.012902311","12","red","1"
"98","82","19","511.834554144","1","1","4","404","3","right","3","in","Female","Right-handed","0","no","right","s","437.76583155","302.464107329","12","green","1"
"98","82","19","511.260379163","1","1","4","405","3","right","2","out","Female","Right-handed","0","no","right","d","442.088731212","471.338780762","12","green","0"
"100","100","19","559.091014052","1","1","5","406","2","left","3","in","Female","Right-handed","0","no","left","d","614.618257716","503.563770388","12","red","0"
"100","100","19","533.430391983","1","1","5","407","2","right","0","in","Female","Right-handed","0","no","right","s","719.332235636","296.207304191","12","green","1"
"100","100","19","525.125725107","1","1","5","408","0","right","0","in","Female","Right-handed","0","no","right","d","665.032844286","351.999938423","12","green","3"
"100","100","19","523.973467678","1","1","5","409","3","right","0","in","Female","Right-handed","0","no","right","d","641.500478185","399.532912601","12","red","2"
"100","100","19","517.924591234","1","1","5","410","3","right","2","out","Female","Right-handed","0","no","right","d","467.174955085","520.283215834","12","green","0"
"100","100","19","515.74736229","1","1","5","411","0","right","0","out","Female","Right-handed","0","no","right","d","481.93034997","527.792085172","12","green","1"
"100","100","19","496.997364009","1","1","5","412","1","right","0","out","Female","Right-handed","0","no","right","d","401.448214683","367.546533951","12","green","3"
"100","87","19","493.308629828","1","0","5","413","2","left","0","in","Female","Right-handed","0","no","left","s","462.943138105","472.031843019","12","red","3"
"100","88","19","488.51704276","1","1","5","414","1","left","2","out","Female","Right-handed","0","no","left","d","444.645781365","455.722911079","12","red","3"
"100","90","19","481.337270201","1","1","5","415","2","right","2","in","Female","Right-handed","0","no","right","d","394.218045533","439.220588791","12","green","3"
"100","81","19","481.11876943","1","0","5","416","3","right","1","out","Female","Right-handed","0","no","right","d","389.979172855","567.888350588","12","red","3"
"100","83","19","478.463328208","1","1","5","417","1","left","0","out","Female","Right-handed","0","no","left","s","522.749183303","375.757766242","12","red","2"
"100","76","19","479.363900439","1","0","5","418","0","right","3","out","Female","Right-handed","0","no","right","d","541.138584869","439.202949539","12","red","0"
"100","78","19","482.039942414","1","1","5","419","0","right","3","out","Female","Right-handed","0","no","right","d","585.805982337","447.85099386","12","red","2"
"100","73","19","477.56342701","1","0","5","420","2","right","3","in","Female","Right-handed","0","no","right","d","430.372419136","399.412003544","12","green","2"
"100","75","19","475.156195579","1","1","5","421","1","left","0","in","Female","Right-handed","0","no","left","s","478.017001673","400.078446566","12","green","1"
"100","76","19","478.420270825","1","1","5","422","3","left","0","in","Female","Right-handed","0","no","left","d","477.736056491","583.554893034","12","green","3"
"100","77","19","480.136411287","1","1","5","423","2","right","0","out","Female","Right-handed","0","no","right","d","635.346303423","383.275294847","12","red","1"
"100","73","19","476.181759852","1","0","5","424","1","right","1","in","Female","Right-handed","0","no","right","d","442.040944874","367.955123176","12","green","0"
"100","75","19","493.799947146","1","1","5","425","0","left","0","in","Female","Right-handed","0","no","left","s","593.601569701","1063.48944179","12","red","2"
"100","76","19","498.342406629","1","1","5","426","0","left","0","out","Female","Right-handed","0","no","left","s","643.137080082","535.246112467","12","green","1"
"100","77","19","494.117469723","1","1","5","427","3","right","1","in","Female","Right-handed","0","no","right","s","458.893807212","351.893782196","12","red","0"
"100","78","19","493.087239782","1","1","5","428","2","right","0","in","Female","Right-handed","0","no","right","d","565.481073723","375.363288418","12","green","1"
"100","79","19","491.630067891","1","1","5","429","2","left","0","out","Female","Right-handed","0","no","left","d","453.038537597","463.191691208","12","red","1"
"100","80","19","488.595909105","1","1","5","430","3","left","0","out","Female","Right-handed","0","no","left","s","487.707686161","343.844510311","12","red","1"
"96","80","19","486.239292419","0","1","5","431","3","right","2","out","Female","Right-handed","0","no","left","s","484.3180633","370.329687247","12","green","1"
"96","81","19","488.715255692","1","1","5","432","0","right","3","out","Female","Right-handed","0","no","right","d","563.025689807","543.154911762","12","green","0"
"96","82","19","486.892477807","1","1","5","433","2","right","0","in","Female","Right-handed","0","no","right","d","475.740896701","399.61405316","12","green","2"
"93","82","19","484.368918536","0","1","5","434","1","left","2","in","Female","Right-handed","0","no","right","d","441.183356499","386.235161379","12","green","0"
"93","80","19","484.266150446","1","0","5","435","2","left","0","out","Female","Right-handed","0","no","left","s","563.833888275","398.737863392","12","red","2"
"93","80","19","491.657047498","1","1","5","436","3","left","3","in","Female","Right-handed","0","no","left","d","827.312682366","599.455235748","12","red","0"
"93","81","19","489.827438202","1","1","5","437","3","left","0","out","Female","Right-handed","0","no","left","s","467.035123922","399.183976118","12","green","2"
"93","81","19","487.49589365","1","1","5","438","0","left","0","in","Female","Right-handed","0","no","left","d","401.816714698","423.956221301","12","red","2"
"94","82","19","491.907290278","1","1","5","439","2","left","2","in","Female","Right-handed","0","no","left","d","835.534177495","439.432580533","12","red","0"
"94","82","19","490.795517449","1","1","5","440","0","left","3","out","Female","Right-handed","0","no","left","d","483.046754282","422.943728219","12","green","1"
"94","83","19","490.428514097","1","1","5","441","3","right","0","in","Female","Right-handed","0","no","right","d","524.448324368","430.718469196","12","green","2"
"94","83","19","488.839107673","1","1","5","442","2","left","0","in","Female","Right-handed","0","no","left","d","424.093166041","439.147786786","12","green","3"
"94","81","19","488.525560897","1","0","5","443","2","right","1","in","Female","Right-handed","0","no","right","s","442.941829595","510.906830752","12","green","3"
"94","82","19","487.795405462","1","1","5","444","3","left","2","in","Female","Right-handed","0","no","left","d","400.501147192","519.597850705","12","red","3"
"95","82","19","492.503337828","1","1","5","445","3","right","0","in","Female","Right-handed","0","no","right","d","889.072194574","463.153205565","12","red","1"
"95","82","19","492.314214047","1","1","5","446","1","right","0","in","Female","Right-handed","0","no","right","s","586.822644695","382.675880984","12","red","2"
"95","83","19","490.448142538","1","1","5","447","3","left","0","out","Female","Right-handed","0","no","left","s","452.423408764","375.455012531","12","green","3"
"95","83","19","488.170815357","1","1","5","448","3","left","0","in","Female","Right-handed","0","no","left","s","433.946452362","351.09969513","12","green","2"
"95","84","19","486.398303326","1","1","5","449","1","right","0","out","Female","Right-handed","0","no","right","s","429.689619716","390.670952258","12","red","2"
"95","82","19","490.118394661","1","0","5","450","1","right","3","out","Female","Right-handed","0","no","right","s","484.312611166","823.292215702","12","red","2"
"95","82","19","490.50472078","1","1","5","451","3","right","0","out","Female","Right-handed","0","no","right","s","544.813642904","470.965149327","12","red","1"
"95","82","19","492.561192954","1","1","5","452","1","right","3","out","Female","Right-handed","0","no","right","d","486.716680895","687.601145075","12","green","0"
"95","83","19","490.915945435","1","1","5","453","0","right","0","in","Female","Right-handed","0","no","right","d","420.099318611","407.079305436","12","red","3"
"95","83","19","494.617616158","1","1","5","454","2","right","2","in","Female","Right-handed","0","no","right","d","537.779109096","806.81651265","12","red","1"
"96","84","19","495.043328418","1","1","5","455","0","right","0","out","Female","Right-handed","0","no","right","d","552.489283351","479.317174923","12","green","2"
"96","84","19","494.131090622","1","1","5","456","0","right","2","out","Female","Right-handed","0","no","right","s","537.944918067","359.093483549","12","green","1"
"96","84","19","495.054376141","1","1","5","457","3","right","1","out","Female","Right-handed","0","no","right","d","509.635842447","574.648032774","12","red","2"
"94","84","19","495.020868718","0","1","5","458","2","left","1","in","Female","Right-handed","0","no","right","s","616.296552391","370.260413092","12","red","0"
"94","83","19","496.296229184","1","0","5","459","2","left","0","out","Female","Right-handed","0","no","left","s","440.919729856","686.860937907","12","red","3"
"94","81","19","495.73623994","1","0","5","460","3","left","0","out","Female","Right-handed","0","no","left","d","443.461385752","487.532255778","12","red","1"
"94","82","19","495.384881498","1","1","5","461","1","left","0","out","Female","Right-handed","0","no","left","s","457.016670054","495.103664282","12","red","1"
"94","82","19","497.839644534","1","1","5","462","0","right","0","in","Female","Right-handed","0","no","right","d","695.783513136","574.829236002","12","red","2"
"94","82","19","498.537976934","1","1","5","463","1","left","2","out","Female","Right-handed","0","no","left","s","429.309894722","647.375952762","12","red","1"
"94","83","19","499.009685086","1","1","5","464","0","left","0","out","Female","Right-handed","0","no","left","s","637.84273869","414.89477705","12","green","1"
"95","83","19","499.638063924","1","1","5","465","1","right","1","in","Female","Right-handed","0","no","right","d","642.710851604","430.713979203","12","green","2"
"95","83","19","499.090098493","1","1","5","466","0","right","1","in","Female","Right-handed","0","no","right","s","486.28275529","446.141589957","12","red","3"
"95","83","19","499.191245456","1","1","5","467","2","left","1","out","Female","Right-handed","0","no","left","s","675.839933087","334.882487301","12","red","0"
"95","84","19","498.25243117","1","1","5","468","0","left","1","in","Female","Right-handed","0","no","left","s","497.464758377","382.627132505","12","green","0"
"95","84","19","498.48659475","1","1","5","469","0","right","2","in","Female","Right-handed","0","no","right","s","579.232955512","447.244845008","12","green","0"
"95","84","19","498.275125363","1","1","5","470","1","right","0","in","Female","Right-handed","0","no","right","d","618.783366249","350.698803033","12","red","3"
"95","84","19","497.482728062","1","1","5","471","0","left","0","in","Female","Right-handed","0","no","left","s","445.542176093","446.411630875","12","green","1"
"95","85","19","496.768711568","1","1","5","472","0","left","2","out","Female","Right-handed","0","no","left","d","436.214218779","463.073027146","12","green","3"
"95","85","19","497.341087882","1","1","5","473","1","right","3","out","Female","Right-handed","0","no","right","d","616.63394318","454.746658645","12","red","0"
"95","85","19","496.291280975","1","1","5","474","0","left","0","out","Female","Right-handed","0","no","left","s","466.453028596","383.355793981","12","green","3"
"95","85","19","495.937435084","1","1","5","475","2","left","3","out","Female","Right-handed","0","no","left","s","527.870660022","415.173477237","12","green","1"
"95","85","19","495.334695574","1","1","5","476","1","left","0","out","Female","Right-handed","0","no","left","d","483.519486242","422.766373557","12","green","1"
"95","86","19","496.403026839","1","1","5","477","0","right","0","out","Female","Right-handed","0","no","right","s","553.297481821","591.211611374","12","green","3"
"95","84","19","496.580306938","1","0","5","478","2","right","1","in","Female","Right-handed","0","no","right","d","555.773712125","462.915236016","12","green","2"
"95","85","19","496.179251278","1","1","5","479","3","left","1","out","Female","Right-handed","0","no","left","d","463.413625071","470.39075113","12","red","0"
"96","85","19","495.065140155","1","1","5","480","2","left","2","in","Female","Right-handed","0","no","left","s","418.085878144","407.155956007","12","red","0"
"96","85","19","493.593946843","1","1","5","481","1","right","1","out","Female","Right-handed","0","no","right","s","431.739621545","334.769275372","12","green","0"
"96","85","19","494.811539938","1","1","5","482","1","left","0","out","Female","Right-handed","0","no","left","s","768.32124991","406.375980341","12","red","1"
"96","85","19","493.794944835","1","1","5","483","3","left","3","in","Female","Right-handed","0","no","left","d","463.958196897","367.076046987","12","green","1"
"96","86","19","492.394898291","1","1","5","484","3","left","3","in","Female","Right-handed","0","no","left","d","407.637347236","358.745188492","12","green","2"
"96","86","19","491.762579433","1","1","5","485","2","left","0","in","Female","Right-handed","0","no","left","d","461.372603228","422.246175971","12","green","3"
"96","86","19","490.846204068","1","1","5","486","1","right","1","out","Female","Right-handed","0","no","right","s","499.979153612","335.093196189","12","red","3"
"96","86","19","489.722114192","1","1","5","487","2","left","3","out","Female","Right-handed","0","no","left","s","454.650765254","342.690903213","12","green","0"
"96","86","19","488.415767864","1","1","5","488","1","right","3","out","Female","Right-handed","0","no","right","s","484.268994107","278.32174381","12","green","1"
"96","86","19","488.956877389","1","1","5","489","3","left","3","in","Female","Right-handed","0","no","left","s","700.868428498","366.869507378","12","red","0"
"95","87","19","488.044986394","0","1","5","490","3","left","0","out","Female","Right-handed","0","no","right","s","485.446334018","337.445951727","12","green","3"
"95","87","19","487.680205473","1","1","5","491","0","left","2","in","Female","Right-handed","0","no","left","d","467.020371092","446.327283176","12","red","0"
"95","87","19","487.843202434","1","1","5","492","2","right","0","in","Female","Right-handed","0","no","right","s","660.912314956","342.809567274","12","red","2"
"95","87","19","486.753326078","1","1","5","493","0","left","1","in","Female","Right-handed","0","no","left","s","497.478228352","286.389937801","12","red","2"
"95","87","19","486.773425595","1","1","5","494","2","left","0","in","Female","Right-handed","0","no","left","s","578.194805337","398.889560962","12","green","2"
"95","87","19","486.796244614","1","1","5","495","1","right","0","out","Female","Right-handed","0","no","right","s","514.870851808","462.783422694","12","red","2"
"95","87","19","490.550286026","1","1","5","496","0","left","1","out","Female","Right-handed","0","no","left","s","1298.34582299","358.482203277","12","green","0"
"95","88","19","490.250211817","1","1","5","497","1","right","0","in","Female","Right-handed","0","no","right","s","606.86692884","319.019988801","12","red","3"
"95","88","19","489.564680428","1","1","5","498","3","right","0","out","Female","Right-handed","0","no","right","s","470.464515278","382.527069838","12","green","3"
"95","88","19","490.391291977","1","1","5","499","1","right","0","out","Female","Right-handed","0","no","right","d","488.209603065","646.322729042","12","red","3"
"95","88","19","489.891337817","1","1","5","500","3","right","2","in","Female","Right-handed","0","no","right","d","486.868699179","398.922594472","12","red","0"
"95","88","19","490.360148632","1","1","5","501","1","left","2","in","Female","Right-handed","0","no","left","d","615.424531901","454.369820072","12","green","0"
dis_reply=Yes
dis_loc=2
