"acc_1","acc_2","age","avg_rt","correct_1","correct_2","count_block_loop","count_trial_sequence","cue_position","detection","dis_position","dis_shape","gender","hand","high_loc","practice","response_keyboard_response_1","response_keyboard_response_2","response_time_keyboard_response_1","response_time_keyboard_response_2","subject_nr","tar_color","tar_position"
"0","100","19","2155.65598263","0","1","0","0","2","right","0","out","Female","Right-handed","3","yes","None","s","3000.05035251","1311.26161275","23","green","1"
"50","50","19","1753.43760152","1","0","0","1","3","right","0","in","Female","Right-handed","3","yes","right","d","1707.81301064","994.625430205","23","red","3"
"33","33","19","2168.97320743","0","0","0","2","3","left","2","out","Female","Right-handed","3","yes","None","None","3000.0388067","3000.05003178","23","red","0"
"25","25","19","2124.0898462","0","0","0","3","0","left","1","out","Female","Right-handed","3","yes","escape","None","978.829813947","3000.04971109","23","green","3"
"40","40","19","1924.09566721","1","1","0","4","2","right","2","in","Female","Right-handed","3","yes","right","s","1438.11948429","810.118418216","23","red","1"
"50","33","19","1920.86802819","1","0","0","5","1","left","0","in","Female","Right-handed","3","yes","left","None","809.421180194","3000.038486","23","red","2"
"57","28","19","1742.30507952","1","0","0","6","0","right","1","out","Female","Right-handed","3","yes","right","d","795.497266372","546.357508632","23","red","3"
"62","37","19","1622.39754466","1","1","0","7","2","left","2","out","Female","Right-handed","3","yes","left","d","708.55643187","857.533169328","23","green","0"
"66","44","19","1526.33060621","1","1","0","8","0","left","0","in","Female","Right-handed","3","yes","left","s","1074.70389031","440.886306926","23","red","1"
"70","50","19","1472.1534873","1","1","0","9","2","right","0","out","Female","Right-handed","3","yes","right","s","999.147855822","969.97097836","23","red","1"
"72","54","19","1483.75185254","1","1","0","10","3","left","1","in","Female","Right-handed","3","yes","left","d","1622.28589517","1577.18511476","23","green","2"
"75","58","19","1405.7647724","1","1","0","11","0","left","3","in","Female","Right-handed","3","yes","left","s","805.52030346","290.293478174","23","red","1"
"76","53","19","1367.81567851","1","0","0","12","0","left","2","out","Female","Right-handed","3","yes","left","s","887.578547525","937.274556229","23","red","3"
"78","50","19","1345.56235124","1","0","0","13","3","left","0","in","Female","Right-handed","3","yes","left","s","1071.76708785","1040.7711055","23","green","1"
"80","53","19","1296.68910293","1","1","0","14","0","right","3","in","Female","Right-handed","3","yes","right","s","789.951433864","434.975819575","23","red","0"
"81","56","19","1263.99481225","1","1","0","15","3","left","1","out","Female","Right-handed","3","yes","left","s","687.256996986","859.903906879","23","green","3"
"82","58","19","1228.60568488","1","1","0","16","1","left","3","out","Female","Right-handed","3","yes","left","s","747.333962558","577.425331547","23","red","1"
"83","61","19","1208.6908745","1","1","0","17","0","right","0","out","Female","Right-handed","3","yes","right","d","817.693425022","922.584771033","23","red","2"
"84","57","19","1190.91277025","1","0","0","18","3","left","0","in","Female","Right-handed","3","yes","left","s","1163.98307","577.830717404","23","green","1"
"85","55","19","1171.47350383","1","0","0","19","1","right","1","out","Female","Right-handed","3","yes","right","s","971.101504576","633.153379196","23","red","0"
"85","57","19","1146.44351873","1","1","0","20","0","left","0","out","Female","Right-handed","3","yes","left","s","785.439591884","506.248041638","23","red","3"
"86","59","19","1122.19227506","1","1","0","21","1","left","1","out","Female","Right-handed","3","yes","left","d","592.518578313","633.313737548","23","green","3"
"100","100","19","523.478544215","1","1","1","22","2","right","1","in","Female","Right-handed","3","no","right","d","500.610804884","546.346283547","23","green","3"
"100","100","19","596.88641852","1","1","1","23","3","left","3","in","Female","Right-handed","3","no","left","d","658.866196056","681.722389592","23","green","1"
"100","100","19","606.401012784","1","1","1","24","1","right","2","in","Female","Right-handed","3","no","right","d","410.050041421","840.810361202","23","green","3"
"100","75","19","607.455716246","1","0","1","25","0","left","3","out","Female","Right-handed","3","no","left","s","667.006626318","554.233026953","23","red","0"
"100","80","19","567.731927059","1","1","1","26","3","right","0","in","Female","Right-handed","3","no","right","s","456.360244367","361.313296249","23","red","3"
"100","83","19","582.978273264","1","1","1","27","0","right","1","in","Female","Right-handed","3","no","right","d","725.616633892","592.80337469","23","green","2"
"100","71","19","596.547604272","1","0","1","28","1","right","0","out","Female","Right-handed","3","no","right","s","929.965744261","425.961436384","23","green","1"
"100","75","19","595.239819091","1","1","1","29","0","left","3","in","Female","Right-handed","3","no","left","s","579.110056162","593.060589483","23","red","2"
"100","77","19","621.158095033","1","1","1","30","3","left","3","in","Female","Right-handed","3","no","left","d","870.629313431","786.379291705","23","green","0"
"100","80","19","614.094005902","1","1","1","31","1","left","3","out","Female","Right-handed","3","no","left","d","507.477348583","593.557058863","23","red","2"
"100","81","19","597.844267978","1","1","1","32","1","left","1","out","Female","Right-handed","3","no","left","d","389.796142874","480.89763461","23","red","2"
"100","83","19","601.024385049","1","1","1","33","1","right","1","out","Female","Right-handed","3","no","right","d","454.010032641","818.001313019","23","green","3"
"100","84","19","599.668931592","1","1","1","34","1","right","2","out","Female","Right-handed","3","no","right","s","861.486002163","305.320978048","23","green","1"
"100","78","19","620.832521806","1","0","1","35","0","left","3","in","Female","Right-handed","3","no","left","d","1143.43218785","648.486201331","23","green","0"
"100","80","19","612.196598031","1","1","1","36","2","right","1","in","Female","Right-handed","3","no","right","s","628.7659753","353.821355064","23","red","3"
"100","81","19","610.811625226","1","1","1","37","3","right","2","in","Female","Right-handed","3","no","right","d","619.106951635","560.967114667","23","red","3"
"100","82","19","612.432734162","1","1","1","38","3","right","1","out","Female","Right-handed","3","no","right","d","580.251486739","696.489467518","23","red","2"
"100","83","19","612.442263429","1","1","1","39","0","left","2","in","Female","Right-handed","3","no","left","s","799.627455504","425.581066433","23","green","0"
"100","78","19","618.66618566","1","0","1","40","0","right","3","in","Female","Right-handed","3","no","right","s","756.724867126","704.668704508","23","red","0"
"100","75","19","624.291929774","1","0","1","41","0","left","3","in","Female","Right-handed","3","no","left","s","572.410926543","889.951209363","23","red","1"
"100","76","19","624.21825123","1","1","1","42","1","left","1","out","Female","Right-handed","3","no","left","s","652.160331374","593.329029303","23","green","3"
"100","77","19","616.117967109","1","1","1","43","1","left","2","out","Female","Right-handed","3","no","left","d","507.581581507","384.442419658","23","red","3"
"100","78","19","613.972807772","1","1","1","44","2","left","2","out","Female","Right-handed","3","no","left","d","723.692654632","409.86595006","23","green","0"
"100","75","19","611.452714444","1","0","1","45","2","left","2","out","Female","Right-handed","3","no","left","d","546.039357723","560.941778065","23","red","1"
"100","76","19","606.621702191","1","1","1","46","0","left","3","in","Female","Right-handed","3","no","left","d","557.286891009","424.067925225","23","red","2"
"100","76","19","600.234392071","1","1","1","47","0","left","3","out","Female","Right-handed","3","no","left","s","543.515638303","337.587639835","23","red","1"
"100","77","19","606.847034628","1","1","1","48","2","right","0","in","Female","Right-handed","3","no","right","s","892.785703239","664.765779016","23","red","3"
"100","78","19","603.288845122","1","1","1","49","2","right","3","out","Female","Right-handed","3","no","right","s","550.136833772","464.298623119","23","green","2"
"100","79","19","609.978199782","1","1","1","50","3","right","3","out","Female","Right-handed","3","no","right","d","897.368423583","697.191836982","23","red","1"
"100","80","19","612.992386934","1","1","1","51","3","right","3","out","Female","Right-handed","3","no","right","d","632.436898188","768.370730482","23","green","1"
"100","80","19","611.037084187","1","1","1","52","2","left","3","out","Female","Right-handed","3","no","left","d","622.056262044","482.699741522","23","red","1"
"100","81","19","610.315737133","1","1","1","53","2","left","3","out","Female","Right-handed","3","no","left","d","574.943626038","600.964330835","23","green","1"
"100","81","19","611.267829792","1","1","1","54","3","left","2","in","Female","Right-handed","3","no","left","d","715.192700998","568.276888807","23","green","3"
"100","82","19","612.219000088","1","1","1","55","2","right","3","out","Female","Right-handed","3","no","right","d","797.522912791","489.692326897","23","red","0"
"100","82","19","610.646171222","1","1","1","56","2","right","3","in","Female","Right-handed","3","no","right","s","737.693861185","376.646118355","23","red","0"
"100","83","19","608.238131265","1","1","1","57","2","right","0","out","Female","Right-handed","3","no","right","s","488.0175445","559.895921033","23","red","3"
"100","83","19","614.822718795","1","1","1","58","2","left","3","in","Female","Right-handed","3","no","left","d","726.395333972","977.340405778","23","red","0"
"100","84","19","613.394603888","1","1","1","59","2","left","3","out","Female","Right-handed","3","no","left","s","800.580625451","320.528079203","23","green","2"
"100","84","19","617.213588488","1","1","1","60","1","right","0","out","Female","Right-handed","3","no","right","d","556.679774367","967.990232253","23","red","3"
"100","85","19","620.371240759","1","1","1","61","0","left","3","in","Female","Right-handed","3","no","left","d","773.086227564","713.953131111","23","green","2"
"100","85","19","622.802464108","1","1","1","62","3","right","3","out","Female","Right-handed","3","no","right","d","663.186249469","776.916546631","23","red","2"
"100","85","19","625.376763806","1","1","1","63","1","left","1","out","Female","Right-handed","3","no","left","s","835.608336958","626.237765886","23","red","0"
"100","86","19","624.345593503","1","1","1","64","0","right","2","out","Female","Right-handed","3","no","right","d","769.74820855","392.324673041","23","red","1"
"100","86","19","622.675489378","1","1","1","65","3","left","1","in","Female","Right-handed","3","no","left","s","628.911259933","472.81076404","23","red","3"
"100","84","19","622.385880371","1","0","1","66","0","left","1","in","Female","Right-handed","3","no","left","d","497.148347815","722.137820296","23","green","3"
"100","84","19","621.820810694","1","1","1","67","0","right","3","out","Female","Right-handed","3","no","right","s","519.483697484","673.301652947","23","red","2"
"100","85","19","620.721128819","1","1","1","68","1","left","0","out","Female","Right-handed","3","no","left","s","579.6533502","560.618174961","23","green","2"
"100","85","19","621.287086606","1","1","1","69","0","right","1","out","Female","Right-handed","3","no","right","s","933.982720424","361.791484785","23","green","0"
"100","85","19","618.03777719","1","1","1","70","3","left","3","out","Female","Right-handed","3","no","left","s","483.134312613","441.007537825","23","red","2"
"100","86","19","616.487870336","1","1","1","71","1","left","3","out","Female","Right-handed","3","no","left","s","664.407538512","416.677330504","23","green","1"
"100","86","19","613.844255349","1","1","1","72","3","left","0","out","Female","Right-handed","3","no","left","d","633.714633383","329.612378613","23","green","1"
"100","84","19","612.853377644","1","0","1","73","0","right","0","in","Female","Right-handed","3","no","right","s","755.910888227","368.726341141","23","red","1"
"100","83","19","614.445643582","1","0","1","74","0","right","3","in","Female","Right-handed","3","no","right","s","896.337640239","498.149304505","23","red","1"
"100","83","19","624.369534892","1","1","1","75","3","right","2","out","Female","Right-handed","3","no","right","d","963.425472","1337.24607658","23","red","0"
"100","83","19","622.216987738","1","1","1","76","3","left","3","in","Female","Right-handed","3","no","left","s","451.344556495","560.614326358","23","green","1"
"100","83","19","620.014072933","1","1","1","77","1","left","3","out","Female","Right-handed","3","no","left","s","451.836215128","545.871302165","23","green","2"
"100","84","19","617.084959684","1","1","1","78","0","left","3","in","Female","Right-handed","3","no","left","d","529.160681297","376.948554185","23","red","1"
"100","84","19","613.380682836","1","1","1","79","2","left","0","in","Female","Right-handed","3","no","left","s","436.30903872","368.16476626","23","red","2"
"100","84","19","611.367419894","1","1","1","80","3","left","2","in","Female","Right-handed","3","no","left","d","579.597545497","409.598793078","23","red","1"
"100","85","19","610.848946622","1","1","1","81","3","right","3","out","Female","Right-handed","3","no","right","s","815.907033219","344.611013978","23","green","0"
"100","83","19","617.050860778","1","0","1","82","1","left","3","out","Female","Right-handed","3","no","left","s","882.057410199","1096.27401005","23","green","2"
"100","83","19","616.330344554","1","1","1","83","2","right","2","out","Female","Right-handed","3","no","right","d","711.456672609","433.301037177","23","red","3"
"100","84","19","615.516655883","1","1","1","84","3","right","0","out","Female","Right-handed","3","no","right","s","473.632760812","656.503155682","23","green","2"
"100","84","19","614.203938052","1","1","1","85","1","right","3","in","Female","Right-handed","3","no","right","d","709.201393067","353.804036364","23","green","1"
"100","84","19","613.370625773","1","1","1","86","0","right","3","out","Female","Right-handed","3","no","right","s","615.055017348","505.022262543","23","green","0"
"100","84","19","610.931478196","1","1","1","87","2","left","2","out","Female","Right-handed","3","no","left","s","512.39233141","392.381439888","23","green","3"
"100","85","19","608.107779888","1","1","1","88","2","right","3","in","Female","Right-handed","3","no","right","d","537.72766472","305.759718438","23","green","0"
"100","85","19","607.238213753","1","1","1","89","3","right","3","in","Female","Right-handed","3","no","right","s","680.978968361","416.975596978","23","green","0"
"100","85","19","606.170243199","1","1","1","90","2","right","3","out","Female","Right-handed","3","no","right","d","628.156613646","438.939877495","23","green","2"
"100","85","19","603.846029613","1","1","1","91","0","right","1","out","Female","Right-handed","3","no","right","s","557.531277096","329.419307207","23","green","3"
"100","85","19","602.970402275","1","1","1","92","1","right","2","out","Female","Right-handed","3","no","right","d","626.661753282","456.691223953","23","green","0"
"100","86","19","603.672660558","1","1","1","93","1","left","3","in","Female","Right-handed","3","no","left","s","826.940007042","480.125990318","23","green","0"
"100","86","19","600.810055158","1","1","1","94","0","right","2","in","Female","Right-handed","3","no","right","d","420.274809294","369.130123407","23","green","3"
"100","85","19","598.318910315","1","0","1","95","3","left","0","in","Female","Right-handed","3","no","left","d","408.427856542","424.502817012","23","green","3"
"100","85","19","597.847076096","1","1","1","96","1","right","0","out","Female","Right-handed","3","no","right","s","548.075908504","577.786779206","23","red","3"
"100","85","19","598.000687363","1","1","1","97","1","right","3","out","Female","Right-handed","3","no","right","s","586.064796953","632.978267939","23","red","0"
"100","85","19","601.236438116","1","1","1","98","0","left","0","in","Female","Right-handed","3","no","left","s","774.19943508","920.107555517","23","green","2"
"100","85","19","599.694630043","1","1","1","99","3","right","3","in","Female","Right-handed","3","no","right","d","584.403484652","377.547332173","23","green","2"
"100","84","19","603.612297516","1","0","1","100","2","right","3","in","Female","Right-handed","3","no","right","s","1137.72086552","680.659855279","23","green","2"
"100","85","19","601.952875818","1","1","1","101","3","left","3","out","Female","Right-handed","3","no","left","s","605.990281649","335.72684176","23","green","0"
"100","85","19","601.142053419","1","1","1","102","0","right","0","in","Female","Right-handed","3","no","right","s","423.244324833","649.308198103","23","green","3"
"100","85","19","601.536194083","1","1","1","103","1","left","3","out","Female","Right-handed","3","no","left","d","554.43058844","712.492587423","23","red","0"
"100","85","19","600.898670881","1","1","1","104","1","right","3","in","Female","Right-handed","3","no","right","s","673.633915401","423.609621124","23","red","1"
"100","85","19","602.048001907","1","1","1","105","1","left","3","in","Female","Right-handed","3","no","left","d","865.997523448","528.887430701","23","red","0"
"100","84","19","600.684786667","1","0","1","106","0","right","2","in","Female","Right-handed","3","no","right","d","508.279781672","464.069631445","23","green","3"
"100","84","19","599.817655051","1","1","1","107","3","left","1","in","Female","Right-handed","3","no","left","s","554.798450408","497.424484871","23","red","3"
"100","85","19","598.914151445","1","1","1","108","3","right","3","in","Female","Right-handed","3","no","right","d","673.749694106","368.675988604","23","red","2"
"100","84","19","598.317813416","1","0","1","109","1","left","3","in","Female","Right-handed","3","no","left","d","476.887393481","615.985416371","23","green","2"
"100","84","19","597.282503591","1","1","1","110","1","right","3","in","Female","Right-handed","3","no","right","s","715.229583409","297.12089448","23","green","1"
"100","84","19","599.377551323","1","1","1","111","2","left","1","in","Female","Right-handed","3","no","left","d","1091.40488971","480.268709274","23","red","0"
"100","83","19","599.26954243","1","0","1","112","2","right","1","in","Female","Right-handed","3","no","right","d","475.550646457","703.546837642","23","red","2"
"100","82","19","599.879398683","1","0","1","113","0","left","0","out","Female","Right-handed","3","no","left","d","485.940904124","824.811731291","23","red","3"
"100","82","19","603.85927462","1","1","1","114","2","right","3","in","Female","Right-handed","3","no","right","s","1292.116111","647.899610572","23","red","1"
"100","82","19","603.152287209","1","1","1","115","2","left","0","out","Female","Right-handed","3","no","left","s","627.212103078","447.592812998","23","green","1"
"100","82","19","605.051501779","1","0","1","116","3","left","1","out","Female","Right-handed","3","no","left","d","958.539032959","608.616309648","23","red","0"
"100","82","19","605.079277617","1","1","1","117","2","left","3","in","Female","Right-handed","3","no","left","d","719.81583169","495.620132919","23","red","1"
"100","0","19","872.33488464","1","0","2","118","3","left","1","in","Female","Right-handed","3","no","left","d","1150.25735908","594.412410195","23","red","0"
"100","50","19","735.684571315","1","1","2","119","0","right","2","in","Female","Right-handed","3","no","right","d","708.601652907","489.466863073","23","red","0"
"100","66","19","736.362138719","1","1","2","120","1","left","0","in","Female","Right-handed","3","no","left","s","794.708944828","680.725602229","23","green","1"
"100","50","19","691.051916976","1","0","2","121","1","left","2","in","Female","Right-handed","3","no","left","d","652.18823374","458.054269751","23","red","0"
"100","60","19","689.553552793","1","1","2","122","2","right","2","out","Female","Right-handed","3","no","right","s","606.228253426","760.891938698","23","green","3"
"100","66","19","689.550949644","1","1","2","123","2","left","3","in","Female","Right-handed","3","no","left","d","779.353672551","599.722195242","23","red","0"
"100","71","19","664.927282772","1","1","2","124","0","left","0","out","Female","Right-handed","3","no","left","s","520.668424841","513.70213824","23","red","3"
"100","75","19","698.233224039","1","1","2","125","1","right","3","out","Female","Right-handed","3","no","right","s","1509.86797057","352.881655243","23","green","1"
"100","77","19","666.261013549","1","1","2","126","2","left","3","out","Female","Right-handed","3","no","left","d","474.645584036","346.321075223","23","red","1"
"100","80","19","657.122924608","1","1","2","127","3","right","1","out","Female","Right-handed","3","no","right","s","540.377746511","609.382501774","23","red","2"
"100","72","19","644.675168987","1","0","2","128","2","right","1","in","Female","Right-handed","3","no","right","d","519.680938218","520.714287326","23","green","0"
"100","75","19","628.029970655","1","1","2","129","2","left","1","in","Female","Right-handed","3","no","left","d","463.925950375","425.939627632","23","red","3"
"100","69","19","616.428757816","1","0","2","130","1","right","3","out","Female","Right-handed","3","no","right","s","442.279179348","512.149228161","23","green","2"
"100","71","19","608.14116793","1","1","2","131","1","right","1","in","Female","Right-handed","3","no","right","s","440.392403252","560.412595572","23","green","2"
"100","73","19","599.086053734","1","1","2","132","0","left","3","out","Female","Right-handed","3","no","left","d","478.847934428","465.780975559","23","red","0"
"100","75","19","589.207659871","1","1","2","133","2","left","1","out","Female","Right-handed","3","no","left","d","377.078123711","504.985380132","23","red","3"
"100","76","19","617.249200376","1","1","2","134","3","right","3","out","Female","Right-handed","3","no","right","d","1699.18605319","432.641643711","23","red","2"
"100","72","19","625.011576983","1","0","2","135","2","left","2","out","Female","Right-handed","3","no","left","s","896.581384906","617.362573714","23","green","0"
"100","73","19","622.588795179","1","1","2","136","1","left","3","in","Female","Right-handed","3","no","left","s","717.532008333","440.42543706","23","red","0"
"100","70","19","616.535605806","1","0","2","137","3","right","3","in","Female","Right-handed","3","no","right","s","521.076376433","481.97363902","23","green","2"
"100","71","19","619.109051563","1","1","2","138","3","right","1","in","Female","Right-handed","3","no","right","d","468.049083778","873.106849642","23","green","3"
"100","72","19","615.386762283","1","1","2","139","0","right","0","out","Female","Right-handed","3","no","right","d","394.318568491","680.118806282","23","red","3"
"100","73","19","611.055485365","1","1","2","140","3","right","2","in","Female","Right-handed","3","no","right","s","501.691940735","529.842845601","23","green","3"
"100","75","19","614.465727203","1","1","2","141","1","left","3","in","Female","Right-handed","3","no","left","d","536.882897053","848.919681943","23","red","1"
"100","76","19","617.669313543","1","1","2","142","1","left","3","in","Female","Right-handed","3","no","left","d","509.02801365","880.082757736","23","green","1"
"100","76","19","608.568097314","1","1","2","143","0","left","2","in","Female","Right-handed","3","no","left","s","456.585708162","305.489674996","23","red","3"
"100","74","19","611.977075793","1","0","2","144","0","right","2","in","Female","Right-handed","3","no","right","s","416.695611348","984.52542114","23","red","3"
"100","71","19","606.338339402","1","0","2","145","3","left","2","out","Female","Right-handed","3","no","left","d","419.936132501","488.248781214","23","red","3"
"100","72","19","610.951884507","1","1","2","146","2","left","3","in","Female","Right-handed","3","no","left","d","543.171188619","937.091106287","23","green","1"
"100","70","19","615.326552102","1","0","2","147","0","right","3","out","Female","Right-handed","3","no","right","d","684.357397666","800.026427052","23","green","1"
"100","70","19","612.875778669","1","1","2","148","1","left","2","in","Female","Right-handed","3","no","left","s","669.063702982","409.641448379","23","green","1"
"100","71","19","614.0894397","1","1","2","149","2","right","3","in","Female","Right-handed","3","no","right","d","774.704884563","528.720978764","23","red","1"
"100","72","19","610.598722514","1","1","2","150","2","right","3","in","Female","Right-handed","3","no","right","d","445.956516603","551.835028484","23","green","0"
"100","73","19","606.547753232","1","1","2","151","2","left","0","in","Female","Right-handed","3","no","left","s","456.462873699","489.268660196","23","red","2"
"97","74","19","608.144837845","0","1","2","152","1","left","3","in","Female","Right-handed","3","no","right","s","588.489414891","736.402014474","23","red","0"
"97","75","19","612.073929255","1","1","2","153","3","right","2","in","Female","Right-handed","3","no","right","s","515.630607522","983.553649654","23","green","0"
"97","75","19","610.006352012","1","1","2","154","1","left","3","in","Female","Right-handed","3","no","left","d","630.120682472","441.026460088","23","red","2"
"97","73","19","620.881316556","1","0","2","155","2","left","3","out","Female","Right-handed","3","no","left","s","518.345794757","1528.16421463","23","green","2"
"97","74","19","622.732694597","1","1","2","156","3","left","3","out","Female","Right-handed","3","no","left","d","602.327376662","783.842743636","23","green","1"
"97","75","19","622.45430349","1","1","2","157","3","right","3","out","Female","Right-handed","3","no","right","s","790.622693836","432.571406767","23","green","0"
"97","75","19","635.487042708","1","1","2","158","0","right","3","out","Female","Right-handed","3","no","right","d","969.923512283","1343.66971059","23","red","1"
"97","76","19","642.793663868","1","1","2","159","3","left","3","out","Female","Right-handed","3","no","left","d","603.62403412","1281.10622874","23","red","0"
"97","76","19","643.794235919","1","1","2","160","1","right","3","in","Female","Right-handed","3","no","right","d","611.36453072","760.271993408","23","red","0"
"97","75","19","646.663696103","1","0","2","161","1","right","3","in","Female","Right-handed","3","no","right","d","612.582612608","927.518355427","23","red","1"
"97","75","19","648.869072877","1","1","2","162","0","left","3","out","Female","Right-handed","3","no","left","d","571.046277182","920.765024697","23","green","1"
"97","76","19","653.287437805","1","1","2","163","0","left","0","in","Female","Right-handed","3","no","left","d","560.162757291","1144.06496179","23","green","1"
"97","76","19","651.743396321","1","1","2","164","2","right","2","in","Female","Right-handed","3","no","right","d","514.226509986","647.208466165","23","green","3"
"97","77","19","648.260610565","1","1","2","165","1","right","3","out","Female","Right-handed","3","no","right","d","495.664712536","473.474647501","23","red","2"
"97","77","19","645.502292789","1","1","2","166","2","left","2","in","Female","Right-handed","3","no","left","s","602.571442054","423.634637002","23","green","1"
"98","78","19","643.665089063","1","1","2","167","2","left","3","out","Female","Right-handed","3","no","left","s","539.897954382","567.386258626","23","green","2"
"98","78","19","640.864583699","1","1","2","168","0","left","3","out","Female","Right-handed","3","no","left","d","377.393708884","624.284922116","23","red","2"
"98","78","19","643.839316045","1","1","2","169","0","right","3","in","Female","Right-handed","3","no","right","s","511.606254877","1079.49507653","23","red","0"
"98","79","19","647.087250382","1","1","2","170","3","right","3","in","Female","Right-handed","3","no","right","s","846.268638037","785.691033758","23","green","1"
"98","79","19","645.21540216","1","1","2","171","1","right","1","out","Female","Right-handed","3","no","right","s","468.06576103","623.949131783","23","red","3"
"98","80","19","642.468381785","1","1","2","172","0","left","3","in","Female","Right-handed","3","no","left","s","533.165790926","455.092772085","23","green","2"
"98","80","19","641.801495379","1","1","2","173","0","left","3","in","Female","Right-handed","3","no","left","d","472.58626236","737.659223785","23","red","2"
"98","80","19","642.352405167","1","1","2","174","1","right","0","in","Female","Right-handed","3","no","right","s","393.780726678","952.625979902","23","red","3"
"98","81","19","641.352508939","1","1","2","175","3","right","3","out","Female","Right-handed","3","no","right","s","689.964807767","478.752040159","23","green","0"
"98","81","19","642.259245465","1","1","2","176","0","right","2","in","Female","Right-handed","3","no","right","s","1005.47110551","384.228822368","23","red","1"
"98","81","19","646.128613155","1","1","2","177","1","left","3","in","Female","Right-handed","3","no","left","s","685.493055353","1063.34955839","23","green","0"
"98","81","19","653.049902141","1","1","2","178","1","left","0","out","Female","Right-handed","3","no","left","d","369.579447462","1767.0750352","23","green","2"
"98","80","19","655.926739915","1","0","2","179","0","left","3","out","Female","Right-handed","3","no","left","d","750.037924736","912.789763504","23","red","2"
"98","80","19","654.435581924","1","1","2","180","1","right","2","in","Female","Right-handed","3","no","right","d","444.107585034","679.859987955","23","red","3"
"98","81","19","654.563463835","1","1","2","181","3","right","3","out","Female","Right-handed","3","no","right","s","723.796246137","601.443802268","23","green","1"
"98","81","19","655.320177488","1","1","2","182","2","left","3","in","Female","Right-handed","3","no","left","s","982.767252368","424.732450163","23","red","0"
"98","81","19","654.230584162","1","1","2","183","2","left","0","out","Female","Right-handed","3","no","left","d","686.937883904","479.876152065","23","green","1"
"98","82","19","652.260385416","1","1","2","184","3","right","3","out","Female","Right-handed","3","no","right","d","571.297719027","473.156817287","23","green","1"
"98","82","19","651.460518205","1","1","2","185","3","right","3","out","Female","Right-handed","3","no","right","d","531.393189973","664.345640194","23","red","2"
"98","82","19","652.179358256","1","1","2","186","1","left","3","in","Female","Right-handed","3","no","left","d","370.595157117","1031.52580629","23","green","2"
"98","82","19","653.296154026","1","1","2","187","2","left","3","in","Female","Right-handed","3","no","left","d","563.95715609","896.752968314","23","green","1"
"98","83","19","652.720912494","1","1","2","188","2","right","1","out","Female","Right-handed","3","no","right","s","409.017654485","815.890355967","23","green","2"
"98","83","19","648.640987205","1","1","2","189","2","right","3","out","Female","Right-handed","3","no","right","s","366.276386543","351.656196872","23","red","2"
"98","83","19","647.847162397","1","1","2","190","1","left","1","out","Female","Right-handed","3","no","left","s","780.750393606","400.633158832","23","green","0"
"98","83","19","646.996238402","1","1","2","191","0","left","0","out","Female","Right-handed","3","no","left","s","738.85677979","430.900793697","23","green","2"
"98","82","19","649.520814031","1","0","2","192","3","right","0","in","Female","Right-handed","3","no","right","d","479.451843916","1193.22697728","23","red","2"
"98","82","19","646.597467153","1","1","2","193","0","right","3","out","Female","Right-handed","3","no","right","s","510.303503776","344.389398786","23","red","0"
"98","83","19","643.757913086","1","1","2","194","0","right","1","in","Female","Right-handed","3","no","right","d","456.486285984","399.417321954","23","green","3"
"98","83","19","644.171604203","1","1","2","195","2","right","0","in","Female","Right-handed","3","no","right","s","519.042070635","833.009569877","23","red","3"
"98","83","19","649.53091352","1","1","2","196","0","right","3","out","Female","Right-handed","3","no","right","s","935.085985751","1200.02809478","23","green","1"
"98","83","19","647.195080239","1","1","2","197","3","left","0","out","Female","Right-handed","3","no","left","d","494.049583445","431.278918608","23","red","3"
"98","83","19","646.922646234","1","1","2","198","1","right","0","out","Female","Right-handed","3","no","right","s","393.737109174","856.518742541","23","red","3"
"98","84","19","644.719665753","1","1","2","199","0","left","1","out","Female","Right-handed","3","no","left","d","436.85682278","495.699670661","23","green","3"
"98","84","19","648.442734559","1","1","2","200","3","left","0","out","Female","Right-handed","3","no","left","d","692.044976022","1215.42377738","23","green","1"
"98","84","19","650.917539059","1","1","2","201","0","right","3","in","Female","Right-handed","3","no","right","d","608.393411589","1104.25921346","23","green","0"
"98","84","19","648.463849262","1","1","2","202","3","right","3","in","Female","Right-handed","3","no","right","s","589.348935551","295.358877134","23","green","2"
"98","83","19","649.388571215","1","0","2","203","2","left","3","in","Female","Right-handed","3","no","left","d","711.246282503","744.733591884","23","green","2"
"98","82","19","650.884913116","1","0","2","204","3","left","1","out","Female","Right-handed","3","no","left","s","951.124384505","608.016248792","23","red","3"
"98","82","19","649.313768758","1","1","2","205","2","right","0","in","Female","Right-handed","3","no","right","s","434.160557837","591.087861307","23","red","3"
"98","83","19","649.35659211","1","1","2","206","3","right","2","out","Female","Right-handed","3","no","right","s","553.619175247","752.630918956","23","red","1"
"98","82","19","646.621665131","1","0","2","207","0","left","1","out","Female","Right-handed","3","no","left","s","446.806736465","359.61959156","23","green","2"
"98","82","19","644.167827266","1","1","2","208","1","right","2","out","Female","Right-handed","3","no","right","d","407.941008685","438.703830034","23","red","3"
"98","82","19","641.98440659","1","1","2","209","3","right","0","out","Female","Right-handed","3","no","right","d","398.32880965","488.257440564","23","green","3"
"98","82","19","642.269300257","1","1","2","210","3","right","3","out","Female","Right-handed","3","no","right","s","609.541897953","727.417137241","23","green","0"
"98","81","19","654.482135773","1","0","2","211","1","left","1","in","Female","Right-handed","3","no","left","None","580.504852929","3000.04682466","23","green","3"
"98","82","19","656.323123928","1","1","2","212","0","left","1","out","Female","Right-handed","3","no","left","d","818.913431198","839.838589716","23","red","0"
"98","81","19","657.392962353","1","0","2","213","2","left","3","out","Female","Right-handed","3","no","left","d","623.074537463","894.980688056","23","red","0"
"100","100","19","582.898040651","1","1","3","214","3","left","1","in","Female","Right-handed","3","no","left","d","660.907878308","504.888202995","23","red","3"
"100","100","19","493.772003174","1","1","3","215","1","right","3","out","Female","Right-handed","3","no","right","d","401.177415013","408.11451638","23","green","0"
"100","100","19","591.094756708","1","1","3","216","3","right","3","in","Female","Right-handed","3","no","right","s","924.286493653","647.194033896","23","red","1"
"100","100","19","574.468003229","1","1","3","217","1","right","3","out","Female","Right-handed","3","no","right","s","480.579483701","568.596001889","23","red","2"
"100","100","19","564.72026933","1","1","3","218","2","right","1","in","Female","Right-handed","3","no","right","s","450.74802349","600.710643979","23","green","3"
"100","83","19","572.241855431","1","0","3","219","3","left","0","in","Female","Right-handed","3","no","left","d","524.055192771","695.644379099","23","red","3"
"100","71","19","572.961871972","1","0","3","220","0","left","3","out","Female","Right-handed","3","no","left","d","825.38549343","329.178448999","23","green","0"
"100","62","19","565.82200322","1","0","3","221","1","left","3","in","Female","Right-handed","3","no","left","s","696.541102894","335.144741024","23","green","2"
"100","55","19","569.222985141","1","0","3","222","0","left","3","in","Female","Right-handed","3","no","left","d","551.10443593","641.757245088","23","green","1"
"100","60","19","580.397493026","1","1","3","223","2","left","3","out","Female","Right-handed","3","no","left","d","457.02797643","904.90815154","23","green","2"
"100","63","19","571.915929554","1","1","3","224","1","right","0","in","Female","Right-handed","3","no","right","d","526.238952501","447.961637168","23","red","3"
"100","66","19","571.469703342","1","1","3","225","2","left","2","in","Female","Right-handed","3","no","left","s","611.648685677","521.47374436","23","red","3"
"100","69","19","563.832002596","1","1","3","226","3","right","3","in","Female","Right-handed","3","no","right","s","503.792634874","440.566552395","23","green","2"
"100","64","19","571.583489031","1","0","3","227","0","right","3","in","Female","Right-handed","3","no","right","d","801.840721193","542.864904186","23","red","1"
"100","66","19","580.095276368","1","1","3","228","1","left","0","out","Female","Right-handed","3","no","left","d","678.327603731","720.192994457","23","red","2"
"100","68","19","570.928734513","1","1","3","229","1","right","2","in","Female","Right-handed","3","no","right","d","394.495604094","472.365609283","23","green","0"
"100","70","19","567.745291508","1","1","3","230","1","right","3","out","Female","Right-handed","3","no","right","d","426.448284299","607.172122545","23","green","0"
"100","66","19","560.538236323","1","0","3","231","2","right","3","in","Female","Right-handed","3","no","right","s","507.086074271","368.950522068","23","green","2"
"100","68","19","558.968475967","1","1","3","232","3","left","3","in","Female","Right-handed","3","no","left","d","582.275208872","479.150370258","23","red","0"
"100","70","19","564.209912904","1","1","3","233","2","left","1","in","Female","Right-handed","3","no","left","d","678.07487899","649.51955041","23","red","3"
"100","66","19","563.478318493","1","0","3","234","3","right","3","out","Female","Right-handed","3","no","right","d","536.897329293","560.795531259","23","green","0"
"100","63","19","558.383654506","1","0","3","235","3","left","3","in","Female","Right-handed","3","no","left","s","462.931728718","439.859692851","23","green","0"
"100","65","19","555.711684144","1","1","3","236","1","left","3","out","Female","Right-handed","3","no","left","d","512.52222163","481.334450713","23","red","1"
"100","66","19","556.32498155","1","1","3","237","1","right","1","out","Female","Right-handed","3","no","right","d","492.429964303","648.431679496","23","green","3"
"100","68","19","550.835168633","1","1","3","238","0","right","3","out","Female","Right-handed","3","no","right","d","454.566476052","383.592841215","23","green","1"
"100","65","19","544.862740793","1","0","3","239","0","left","2","out","Female","Right-handed","3","no","left","d","430.109264969","360.994824587","23","red","1"
"100","62","19","545.93150782","1","0","3","240","1","right","1","out","Female","Right-handed","3","no","right","d","459.278445254","688.160455815","23","green","3"
"100","64","19","543.065191754","1","1","3","241","3","left","3","out","Female","Right-handed","3","no","left","d","467.372050887","463.977265026","23","green","2"
"100","62","19","551.037959105","1","0","3","242","3","left","1","out","Female","Right-handed","3","no","left","s","507.898770273","1040.65211961","23","red","3"
"100","60","19","556.866827003","1","0","3","243","1","left","3","in","Female","Right-handed","3","no","left","d","476.880979171","974.927012925","23","red","2"
"100","61","19","559.725584272","1","1","3","244","0","left","0","in","Female","Right-handed","3","no","left","s","417.814591783","873.162012897","23","red","3"
"100","62","19","558.121531048","1","1","3","245","0","right","1","in","Female","Right-handed","3","no","right","d","632.370509848","384.421252355","23","red","3"
"100","63","19","570.846300612","1","1","3","246","3","right","2","out","Female","Right-handed","3","no","right","d","788.575559389","1167.50229392","23","green","0"
"100","61","19","568.897725513","1","0","3","247","3","left","1","out","Female","Right-handed","3","no","left","d","512.138003105","497.051491402","23","green","2"
"100","60","19","563.932836616","1","0","3","248","0","right","1","out","Female","Right-handed","3","no","right","s","422.203599272","368.049628974","23","green","3"
"100","61","19","563.48315915","1","1","3","249","3","left","2","out","Female","Right-handed","3","no","left","d","456.330738409","639.158157253","23","green","3"
"100","59","19","571.990549364","1","0","3","250","1","left","3","in","Female","Right-handed","3","no","left","s","643.828433269","1112.68476085","23","green","0"
"100","60","19","572.192197797","1","1","3","251","0","left","3","out","Female","Right-handed","3","no","left","d","535.725751339","623.580628337","23","red","1"
"100","61","19","575.490431488","1","1","3","252","2","left","3","out","Female","Right-handed","3","no","left","s","489.92195999","911.724663514","23","green","1"
"100","62","19","571.813816281","1","1","3","253","2","right","2","out","Female","Right-handed","3","no","right","d","384.479943488","472.371702897","23","red","3"
"100","63","19","572.491430352","1","1","3","254","3","right","0","in","Female","Right-handed","3","no","right","s","815.660722787","383.531263622","23","green","1"
"100","61","19","571.369574835","1","0","3","255","2","left","1","out","Female","Right-handed","3","no","left","s","465.623182943","585.123814293","23","green","2"
"100","62","19","574.200421107","1","1","3","256","3","right","0","out","Female","Right-handed","3","no","right","s","994.03402867","392.15790038","23","red","3"
"100","63","19","574.769870489","1","1","3","257","0","right","2","out","Female","Right-handed","3","no","right","d","527.159730031","671.352657781","23","red","3"
"100","64","19","572.698228108","1","1","3","258","1","left","1","out","Female","Right-handed","3","no","left","d","466.636006196","496.455920511","23","red","2"
"100","65","19","571.237141928","1","1","3","259","0","left","0","out","Female","Right-handed","3","no","left","s","659.00570777","351.970819931","23","green","1"
"97","63","19","575.539541467","0","0","3","260","0","left","3","in","Female","Right-handed","3","no","right","s","512.965131318","1033.93470915","23","red","0"
"97","64","19","576.786968421","1","1","3","261","2","left","3","in","Female","Right-handed","3","no","left","d","462.430448621","808.401621936","23","green","1"
"97","65","19","583.403431196","1","1","3","262","3","left","3","in","Female","Right-handed","3","no","left","d","410.548114392","1391.43917436","23","red","1"
"98","66","19","581.384514581","1","1","3","263","2","left","3","in","Female","Right-handed","3","no","left","d","549.680774682","415.234426211","23","red","2"
"98","66","19","582.142765487","1","1","3","264","2","left","3","out","Female","Right-handed","3","no","left","d","479.95440691","760.156214645","23","red","1"
"98","65","19","584.789069339","1","0","3","265","3","right","3","in","Female","Right-handed","3","no","right","d","576.333612029","863.167519623","23","red","1"
"98","66","19","581.97109083","1","1","3","266","1","right","3","out","Female","Right-handed","3","no","right","d","470.240219962","400.632196688","23","red","1"
"98","64","19","578.587261284","1","0","3","267","0","right","3","in","Female","Right-handed","3","no","right","s","478.870384628","319.618206064","23","red","2"
"98","65","19","580.557444625","1","1","3","268","2","left","1","out","Female","Right-handed","3","no","left","d","895.020456926","478.874233202","23","red","0"
"98","66","19","577.171438495","1","1","3","269","2","right","3","in","Female","Right-handed","3","no","right","s","405.433325097","376.448877563","23","red","0"
"98","66","19","581.941432873","1","1","3","270","1","right","0","in","Female","Right-handed","3","no","right","d","482.56696487","1215.55527119","23","green","1"
"98","65","19","578.979886674","1","0","3","271","0","left","3","in","Female","Right-handed","3","no","left","s","501.698355074","318.645151681","23","green","0"
"98","66","19","580.593196773","1","1","3","272","0","left","3","out","Female","Right-handed","3","no","left","s","444.283658464","904.046706565","23","red","2"
"98","66","19","582.870849217","1","1","3","273","2","right","0","out","Female","Right-handed","3","no","right","s","395.321449498","1039.1832373","23","red","3"
"98","67","19","581.376878894","1","1","3","274","0","left","3","in","Female","Right-handed","3","no","left","d","376.328288171","607.149030897","23","green","2"
"98","67","19","581.529997864","1","1","3","275","2","right","3","out","Female","Right-handed","3","no","right","s","461.920509057","719.820000987","23","red","0"
"98","68","19","585.474423758","1","1","3","276","2","right","3","in","Female","Right-handed","3","no","right","d","557.105365326","1102.95229306","23","green","2"
"96","68","19","594.031230925","0","1","3","277","2","right","3","in","Female","Right-handed","3","no","left","s","510.783937352","1755.43622754","23","green","1"
"96","67","19","591.652359618","1","0","3","278","1","left","3","in","Female","Right-handed","3","no","left","s","479.374551156","399.434640713","23","green","1"
"96","68","19","590.728240726","1","1","3","279","1","left","3","in","Female","Right-handed","3","no","left","s","542.560864822","518.760160717","23","green","2"
"97","68","19","593.457220242","1","1","3","280","1","left","2","in","Female","Right-handed","3","no","left","s","858.094102762","689.045633829","23","red","1"
"97","67","19","592.416458355","1","0","3","281","3","right","2","out","Female","Right-handed","3","no","right","d","470.167738036","575.203085784","23","red","1"
"97","68","19","591.096513667","1","1","3","282","3","right","1","in","Female","Right-handed","3","no","right","s","452.436276013","550.244273792","23","red","0"
"97","67","19","593.1121126","1","0","3","283","0","left","2","in","Female","Right-handed","3","no","left","s","696.785168257","767.591709737","23","red","3"
"97","67","19","592.69192115","1","1","3","284","3","left","3","out","Female","Right-handed","3","no","left","d","615.837245248","510.719794024","23","green","0"
"97","68","19","592.895462706","1","1","3","285","2","right","0","in","Female","Right-handed","3","no","right","s","544.017559907","670.676266368","23","red","2"
"97","68","19","592.683885784","1","1","3","286","2","right","3","in","Female","Right-handed","3","no","right","s","611.475177924","543.425516924","23","green","0"
"97","68","19","595.161673657","1","1","3","287","0","left","1","in","Female","Right-handed","3","no","left","d","697.557774722","854.522601992","23","green","0"
"97","69","19","594.50967928","1","1","3","288","1","right","3","in","Female","Right-handed","3","no","right","s","451.44301647","641.08117437","23","green","0"
"97","69","19","595.834229439","1","1","3","289","0","right","0","in","Female","Right-handed","3","no","right","s","766.237643954","624.113338708","23","red","2"
"97","70","19","594.203886052","1","1","3","290","2","right","3","out","Female","Right-handed","3","no","right","d","606.299773266","334.29580403","23","green","0"
"97","70","19","595.223734942","1","1","3","291","1","right","1","out","Female","Right-handed","3","no","right","s","427.831535228","919.672663732","23","green","0"
"97","69","19","598.548386458","1","0","3","292","0","left","2","out","Female","Right-handed","3","no","left","d","507.953933557","1207.78847585","23","green","0"
"97","70","19","601.153607804","1","1","3","293","2","right","0","in","Female","Right-handed","3","no","right","d","1048.06997522","565.862213087","23","red","1"
"97","70","19","605.88062624","1","1","3","294","1","right","2","out","Female","Right-handed","3","no","right","s","481.462416647","1486.62178556","23","red","3"
"97","70","19","605.082743449","1","1","3","295","3","left","2","out","Female","Right-handed","3","no","left","s","481.454077992","599.454396811","23","red","3"
"97","71","19","602.74242266","1","1","3","296","1","right","2","in","Female","Right-handed","3","no","right","s","415.525316261","406.146919704","23","green","3"
"97","71","19","601.787579977","1","1","3","297","0","right","3","out","Female","Right-handed","3","no","right","s","501.137100916","543.934173533","23","green","0"
"97","70","19","599.501361054","1","0","3","298","1","right","0","in","Female","Right-handed","3","no","right","d","399.988518387","414.929424704","23","red","3"
"97","70","19","598.8293909","1","1","3","299","2","left","2","out","Female","Right-handed","3","no","left","s","490.927086037","592.496769619","23","red","0"
"97","71","19","603.362714554","1","1","3","300","0","left","3","out","Female","Right-handed","3","no","left","s","555.791709921","1430.66538766","23","green","2"
"97","71","19","607.31068489","1","1","3","301","3","left","3","out","Female","Right-handed","3","no","left","s","519.786774763","1381.78143353","23","red","1"
"97","71","19","605.439173304","1","1","3","302","1","right","3","out","Female","Right-handed","3","no","right","d","513.220742578","368.27156489","23","green","1"
"97","72","19","604.071774178","1","1","3","303","2","right","0","out","Female","Right-handed","3","no","right","d","477.40406805","487.342435924","23","red","3"
"97","71","19","604.333219718","1","0","3","304","3","left","0","out","Female","Right-handed","3","no","left","d","474.572139966","781.154496595","23","green","2"
"97","71","19","603.144311718","1","1","3","305","0","left","1","in","Female","Right-handed","3","no","left","d","421.999944199","567.907423188","23","green","2"
"97","72","19","601.719390985","1","1","3","306","3","left","3","in","Female","Right-handed","3","no","left","s","406.159748323","535.09361879","23","green","2"
"97","72","19","600.404084909","1","1","3","307","3","right","3","out","Female","Right-handed","3","no","right","s","526.283211424","429.878028284","23","red","2"
"97","71","19","600.660004504","1","0","3","308","0","right","0","out","Female","Right-handed","3","no","right","d","449.810889433","799.622003338","23","red","3"
"97","70","19","600.147153156","1","0","3","309","2","right","2","in","Female","Right-handed","3","no","right","d","600.000898005","502.851652214","23","green","1"
"100","100","19","412.203493441","1","1","4","310","2","left","1","out","Female","Right-handed","3","no","left","s","479.22766296","345.179323922","23","green","3"
"100","100","19","474.277160771","1","1","4","311","3","right","3","in","Female","Right-handed","3","no","right","s","601.490626869","471.211029333","23","green","0"
"100","100","19","447.003923745","1","1","4","312","1","left","3","in","Female","Right-handed","3","no","left","s","434.423545434","350.491353951","23","red","2"
"100","100","19","442.118780935","1","1","4","313","2","left","3","in","Female","Right-handed","3","no","left","d","382.012349495","472.914355516","23","green","2"
"100","100","19","429.710421717","1","1","4","314","1","right","1","in","Female","Right-handed","3","no","right","s","385.110472503","375.043497188","23","red","2"
"100","100","19","443.438703723","1","1","4","315","2","right","3","out","Female","Right-handed","3","no","right","s","425.080748449","599.079479056","23","red","2"
"100","100","19","451.980400182","1","1","4","316","1","right","3","in","Female","Right-handed","3","no","right","d","549.756143126","456.705014745","23","green","1"
"100","100","19","454.661328018","1","1","4","317","3","left","0","out","Female","Right-handed","3","no","left","d","548.026838863","398.82880688","23","red","3"
"100","100","19","474.554179789","1","1","4","318","2","left","0","out","Female","Right-handed","3","no","left","d","482.026877987","785.367109929","23","green","3"
"100","100","19","491.629359298","1","1","4","319","1","left","3","out","Female","Right-handed","3","no","left","d","603.25007845","687.3618713","23","red","1"
"100","90","19","496.401617375","1","0","4","320","1","right","0","out","Female","Right-handed","3","no","right","d","353.670618206","734.577778086","23","green","3"
"100","91","19","517.418001565","1","1","4","321","3","right","2","out","Female","Right-handed","3","no","right","d","993.146284949","504.050170362","23","red","1"
"100","92","19","528.595923921","1","1","4","322","0","right","1","in","Female","Right-handed","3","no","right","s","437.277923804","888.184060575","23","red","3"
"100","92","19","520.001288364","1","1","4","323","1","left","0","in","Female","Right-handed","3","no","left","s","418.290214613","398.251837644","23","red","2"
"100","86","19","512.590855021","1","0","4","324","2","left","0","out","Female","Right-handed","3","no","left","s","384.889819369","432.799757051","23","green","2"
"100","87","19","517.200996657","1","1","4","325","1","left","2","out","Female","Right-handed","3","no","left","s","525.976606237","646.72963618","23","green","1"
"100","88","19","518.185926954","1","1","4","326","0","left","0","out","Female","Right-handed","3","no","left","s","573.075451481","494.814171921","23","red","2"
"100","83","19","520.12105949","1","0","4","327","0","left","1","out","Female","Right-handed","3","no","left","d","578.630584758","527.406040463","23","red","3"
"100","84","19","535.046574724","1","1","4","328","1","left","3","in","Female","Right-handed","3","no","left","s","512.734536082","1094.67716177","23","green","2"
"100","85","19","529.29244773","1","1","4","329","0","left","3","in","Female","Right-handed","3","no","left","s","398.780057964","441.148011712","23","green","2"
"100","80","19","534.910512489","1","0","4","330","3","left","2","out","Female","Right-handed","3","no","left","s","422.256196791","872.287418577","23","green","3"
"100","81","19","535.924777889","1","1","4","331","0","left","2","out","Female","Right-handed","3","no","left","d","587.379414588","527.069287957","23","green","1"
"100","78","19","538.6632022","1","0","4","332","3","left","3","in","Female","Right-handed","3","no","left","d","428.983228747","768.833845329","23","green","2"
"95","79","19","543.713694203","0","1","4","333","1","right","3","in","Female","Right-handed","3","no","left","d","484.96560473","834.784415841","23","green","1"
"96","76","19","568.619266667","1","0","4","334","0","left","3","in","Female","Right-handed","3","no","left","d","1373.81868029","958.887331304","23","red","1"
"96","73","19","573.785234454","1","0","4","335","1","left","3","out","Female","Right-handed","3","no","left","d","669.522007055","736.346851219","23","red","0"
"96","70","19","573.683197673","1","0","4","336","2","left","1","out","Female","Right-handed","3","no","left","d","558.545062493","583.515420207","23","green","2"
"96","71","19","577.195154345","1","1","4","337","2","left","3","out","Female","Right-handed","3","no","left","d","816.540127911","527.495841089","23","red","0"
"96","72","19","578.140059684","1","1","4","338","3","right","3","out","Female","Right-handed","3","no","right","d","601.167665212","608.027153124","23","red","0"
"96","73","19","572.671872324","1","1","4","339","1","right","2","out","Female","Right-handed","3","no","right","s","381.150263129","447.038614657","23","red","3"
"96","74","19","569.262978732","1","1","4","340","1","left","1","out","Female","Right-handed","3","no","left","d","509.30447143","424.687870487","23","green","3"
"96","75","19","563.983269453","1","1","4","341","2","right","1","out","Female","Right-handed","3","no","right","d","400.80121439","399.82334926","23","green","3"
"96","75","19","562.725492359","1","1","4","342","3","left","3","out","Female","Right-handed","3","no","left","d","630.104005163","414.849245514","23","red","0"
"97","76","19","561.765883098","1","1","4","343","2","right","3","in","Female","Right-handed","3","no","right","d","531.737639626","528.459915368","23","green","0"
"97","77","19","562.761409847","1","1","4","344","3","right","3","out","Female","Right-handed","3","no","right","d","673.60120226","519.617436337","23","red","1"
"97","77","19","560.776007633","1","1","4","345","0","left","1","in","Female","Right-handed","3","no","left","s","689.841652581","292.732207687","23","red","2"
"97","75","19","562.206831923","1","0","4","346","3","right","3","in","Female","Right-handed","3","no","right","d","539.244333806","688.188678934","23","red","1"
"97","76","19","560.396791832","1","1","4","347","1","right","3","in","Female","Right-handed","3","no","right","d","451.591187622","535.259429307","23","red","0"
"97","76","19","559.652365505","1","1","4","348","0","right","3","out","Female","Right-handed","3","no","right","d","504.388205707","558.340124494","23","red","1"
"97","77","19","561.509775281","1","1","4","349","2","right","2","out","Female","Right-handed","3","no","right","s","467.924645694","799.97286736","23","red","3"
"97","78","19","556.900591685","1","1","4","350","0","left","3","in","Female","Right-handed","3","no","left","s","434.075247147","310.991248582","23","red","1"
"97","76","19","559.92328503","1","0","4","351","1","left","1","in","Female","Right-handed","3","no","left","d","575.175183476","792.532240856","23","green","3"
"97","76","19","564.9411894","1","1","4","352","1","left","3","in","Female","Right-handed","3","no","left","d","695.798643807","855.587702069","23","green","2"
"97","77","19","562.322984446","1","1","4","353","0","right","2","in","Female","Right-handed","3","no","right","s","540.833484906","358.646857901","23","green","3"
"97","77","19","575.974608931","1","1","4","354","2","left","1","in","Female","Right-handed","3","no","left","d","985.223621304","1368.06855124","23","red","0"
"97","78","19","579.08105571","1","1","4","355","2","right","3","in","Female","Right-handed","3","no","right","d","542.556695524","895.185625996","23","red","2"
"97","78","19","581.441021443","1","1","4","356","3","left","1","out","Female","Right-handed","3","no","left","s","429.566933075","950.431957259","23","green","3"
"97","77","19","583.283258102","1","0","4","357","0","right","2","out","Female","Right-handed","3","no","right","d","475.931978552","863.804783614","23","red","0"
"97","77","19","582.129639524","1","1","4","358","0","left","0","in","Female","Right-handed","3","no","left","d","542.746880441","510.765015089","23","green","1"
"98","78","19","586.027580989","1","1","4","359","0","left","3","out","Female","Right-handed","3","no","left","d","971.071357199","582.982068416","23","green","0"
"98","78","19","584.841806851","1","1","4","360","1","right","3","out","Female","Right-handed","3","no","right","s","595.509902574","455.596297281","23","green","2"
"98","78","19","586.125051593","1","1","4","361","3","left","0","in","Female","Right-handed","3","no","left","s","536.671544774","766.469522147","23","green","1"
"98","79","19","585.017402901","1","1","4","362","0","right","1","out","Female","Right-handed","3","no","right","s","518.784214451","536.055127392","23","green","0"
"98","79","19","583.54572794","1","1","4","363","0","left","3","out","Female","Right-handed","3","no","left","d","388.139320595","622.954589431","23","red","2"
"98","80","19","585.987125207","1","1","4","364","0","right","2","out","Female","Right-handed","3","no","right","s","405.371747504","1030.27340776","23","red","3"
"98","80","19","583.797842735","1","1","4","365","1","right","3","in","Female","Right-handed","3","no","right","d","406.979820807","519.794792693","23","red","0"
"98","80","19","582.597675425","1","1","4","366","3","left","2","in","Female","Right-handed","3","no","left","d","511.88431622","518.892295949","23","green","3"
"98","79","19","584.063301041","1","0","4","367","0","left","3","out","Female","Right-handed","3","no","left","d","761.237029801","573.970892408","23","red","0"
"98","79","19","582.708241612","1","1","4","368","3","right","1","in","Female","Right-handed","3","no","right","d","552.677230444","455.552359053","23","green","2"
"98","78","19","583.007461151","1","0","4","369","0","right","3","in","Female","Right-handed","3","no","right","d","466.693735158","734.629092797","23","green","2"
"98","78","19","580.986863776","1","1","4","370","0","left","0","in","Female","Right-handed","3","no","left","s","504.787818704","414.714223822","23","red","3"
"98","77","19","578.258387901","1","0","4","371","0","left","0","out","Female","Right-handed","3","no","left","s","376.413278049","447.229441023","23","green","3"
"98","77","19","578.051151568","1","1","4","372","2","right","2","in","Female","Right-handed","3","no","right","s","404.406390328","725.998607464","23","green","3"
"98","78","19","576.838322341","1","1","4","373","2","right","3","out","Female","Right-handed","3","no","right","d","617.298751138","383.561410999","23","green","0"
"98","76","19","577.379054602","1","0","4","374","1","left","1","in","Female","Right-handed","3","no","left","s","488.954678585","735.017159954","23","red","0"
"98","75","19","577.645987041","1","0","4","375","1","left","0","out","Female","Right-handed","3","no","left","s","807.99559463","381.997596531","23","red","1"
"98","76","19","575.749338083","1","1","4","376","2","right","3","out","Female","Right-handed","3","no","right","d","533.630188671","367.510825046","23","green","0"
"98","76","19","576.549235035","1","1","4","377","2","right","3","in","Female","Right-handed","3","no","right","d","661.7314787","598.553183023","23","green","1"
"98","76","19","579.030323217","1","1","4","378","2","left","3","in","Female","Right-handed","3","no","left","d","497.878619645","997.610019461","23","red","1"
"98","77","19","580.88518394","1","1","4","379","3","right","3","in","Female","Right-handed","3","no","right","d","482.349518919","935.391628708","23","green","2"
"98","77","19","579.911953972","1","1","4","380","2","right","0","in","Female","Right-handed","3","no","right","d","529.445477703","494.126234728","23","red","1"
"98","77","19","579.968864114","1","1","4","381","0","right","3","in","Female","Right-handed","3","no","right","s","401.527958282","766.491010145","23","red","2"
"98","78","19","580.31263381","1","1","4","382","3","right","3","out","Female","Right-handed","3","no","right","s","691.144403652","518.983700196","23","green","1"
"98","78","19","579.345457862","1","1","4","383","3","right","3","out","Female","Right-handed","3","no","right","d","475.30112887","542.182098433","23","red","2"
"98","77","19","585.67286195","1","0","4","384","0","right","3","out","Female","Right-handed","3","no","right","s","836.26163681","1271.53989219","23","green","1"
"98","77","19","584.430230732","1","1","4","385","3","left","1","in","Female","Right-handed","3","no","left","s","495.7580411","486.707737612","23","red","3"
"98","77","19","583.832696463","1","1","4","386","2","left","3","in","Female","Right-handed","3","no","left","d","470.9445138","605.895670247","23","red","1"
"98","78","19","588.114293599","1","1","4","387","3","right","0","out","Female","Right-handed","3","no","right","s","804.362195603","1031.23235056","23","green","2"
"98","78","19","591.256231449","1","1","4","388","0","left","3","in","Female","Right-handed","3","no","left","s","730.408461532","942.24630593","23","green","0"
"98","77","19","594.328031647","1","0","4","389","1","right","2","out","Female","Right-handed","3","no","right","d","420.549984148","1253.45051038","23","green","0"
"98","77","19","595.409359915","1","1","4","390","2","right","2","in","Female","Right-handed","3","no","right","d","427.951483231","935.87975949","23","green","0"
"98","76","19","595.740100903","1","0","4","391","1","right","3","in","Female","Right-handed","3","no","right","d","414.047453902","831.012787938","23","green","0"
"98","77","19","594.599366756","1","1","4","392","2","right","3","in","Female","Right-handed","3","no","right","d","507.100185786","495.018147747","23","red","1"
"98","77","19","591.73701663","1","1","4","393","3","right","0","out","Female","Right-handed","3","no","right","s","364.738870878","343.585041409","23","green","3"
"98","76","19","591.273422292","1","0","4","394","1","left","3","in","Female","Right-handed","3","no","left","d","385.876985267","718.78601046","23","red","1"
"98","76","19","588.432858762","1","1","4","395","1","right","2","in","Female","Right-handed","3","no","right","d","349.837733433","344.132184051","23","red","3"
"98","77","19","585.960602746","1","1","4","396","3","right","2","out","Female","Right-handed","3","no","right","d","371.423568227","375.269602461","23","red","0"
"98","77","19","585.308275552","1","1","4","397","3","left","3","in","Female","Right-handed","3","no","left","s","315.542859433","741.568759899","23","green","1"
"98","77","19","583.541084758","1","1","4","398","1","right","0","in","Female","Right-handed","3","no","right","s","464.034031902","392.022557906","23","red","3"
"98","77","19","584.840908323","1","1","4","399","3","left","3","out","Female","Right-handed","3","no","left","s","482.158371829","918.892039394","23","red","0"
"98","76","19","587.401031201","1","0","4","400","3","right","1","out","Female","Right-handed","3","no","right","s","574.382371909","1061.24180846","23","red","0"
"98","77","19","588.973864395","1","1","4","401","0","right","3","out","Female","Right-handed","3","no","right","s","592.653279309","871.55009096","23","green","0"
"98","77","19","591.095637809","1","1","4","402","2","left","2","in","Female","Right-handed","3","no","left","d","693.822387722","878.775195917","23","green","1"
"98","77","19","593.453117663","1","1","4","403","3","left","3","out","Female","Right-handed","3","no","left","s","442.762820109","1182.63466808","23","green","2"
"98","77","19","595.839963939","1","1","4","404","2","left","0","out","Female","Right-handed","3","no","left","d","697.219418595","943.187609315","23","red","3"
"98","78","19","600.273607392","1","1","4","405","2","right","3","in","Female","Right-handed","3","no","right","d","484.496396268","1558.44307452","23","red","2"
"100","100","19","495.033702493","1","1","5","406","2","left","2","out","Female","Right-handed","3","no","left","s","485.95277057","504.114634416","23","green","3"
"100","100","19","594.591770991","1","1","5","407","1","right","3","in","Female","Right-handed","3","no","right","d","629.231655912","759.068023064","23","green","2"
"100","100","19","546.656042396","1","1","5","408","2","left","3","in","Female","Right-handed","3","no","left","s","415.341224871","486.227945541","23","red","1"
"100","100","19","596.900610231","1","1","5","409","0","left","0","out","Female","Right-handed","3","no","left","d","591.748537612","903.520089865","23","green","3"
"100","100","19","603.750909644","1","1","5","410","3","right","2","out","Female","Right-handed","3","no","right","s","887.772581132","374.531633453","23","red","0"
"100","83","19","597.873664582","1","0","5","411","1","left","3","in","Female","Right-handed","3","no","left","d","481.927776535","655.047102016","23","green","0"
"100","71","19","610.51355489","1","0","5","412","1","right","0","in","Female","Right-handed","3","no","right","d","493.481594254","879.22419922","23","red","2"
"100","75","19","591.385305954","1","1","5","413","0","right","2","out","Female","Right-handed","3","no","right","s","548.570453597","366.404673201","23","green","1"
"100","77","19","590.329419844","1","1","5","414","1","right","3","in","Female","Right-handed","3","no","right","d","707.75175374","456.012908194","23","green","1"
"100","80","19","590.246990317","1","1","5","415","0","right","1","in","Female","Right-handed","3","no","right","d","716.020149994","462.990099156","23","green","3"
"100","81","19","586.925294335","1","1","5","416","2","left","2","out","Female","Right-handed","3","no","left","d","485.31999666","622.096672363","23","green","1"
"100","75","19","607.495378208","1","0","5","417","1","left","3","out","Female","Right-handed","3","no","left","d","602.854314144","1064.67828748","23","red","0"
"100","76","19","593.859938746","1","1","5","418","3","left","3","in","Female","Right-handed","3","no","left","d","460.724235978","399.745094416","23","green","2"
"100","78","19","593.506064917","1","1","5","419","0","right","3","out","Female","Right-handed","3","no","right","s","435.879599129","741.931811149","23","green","0"
"100","73","19","601.534190912","1","0","5","420","1","right","3","out","Female","Right-handed","3","no","right","d","579.46348592","848.392423766","23","green","2"
"100","68","19","605.309169661","1","0","5","421","0","left","0","in","Female","Right-handed","3","no","left","s","692.491092894","631.376608915","23","green","1"
"100","70","19","596.008145375","1","1","5","422","2","right","0","out","Female","Right-handed","3","no","right","d","399.676140281","494.70737332","23","green","2"
"100","72","19","599.84075349","1","1","5","423","2","right","0","in","Female","Right-handed","3","no","right","s","450.028335326","879.96184756","23","red","3"
"100","73","19","603.883443262","1","1","5","424","3","right","0","out","Female","Right-handed","3","no","right","d","627.178107098","726.125611225","23","green","3"
"100","75","19","601.865873409","1","1","5","425","0","left","3","in","Female","Right-handed","3","no","left","d","526.510599535","600.553492841","23","red","1"
"100","71","19","609.645367249","1","0","5","426","2","right","3","in","Female","Right-handed","3","no","right","s","730.795245793","799.675242335","23","red","0"
"100","72","19","609.194160907","1","1","5","427","2","left","3","out","Female","Right-handed","3","no","left","d","497.803571983","701.634083467","23","red","1"
"100","73","19","603.156645367","1","1","5","428","0","right","3","in","Female","Right-handed","3","no","right","s","564.357089752","376.305517216","23","green","2"
"95","75","19","602.543005167","0","1","5","429","1","left","2","out","Female","Right-handed","3","no","right","s","409.498088062","767.360473052","23","red","3"
"96","72","19","610.822577301","1","0","5","430","2","left","3","out","Female","Right-handed","3","no","left","s","660.624364798","958.440252231","23","red","0"
"96","73","19","618.326462969","1","1","5","431","2","left","3","out","Female","Right-handed","3","no","left","s","971.984758275","639.862451063","23","green","2"
"96","74","19","607.929287063","1","1","5","432","2","left","3","in","Female","Right-handed","3","no","left","s","357.134358143","318.071068904","23","red","2"
"92","75","19","637.476674166","0","1","5","433","0","left","3","in","Female","Right-handed","3","no","right","d","734.383744537","2136.12850732","23","red","0"
"93","75","19","639.100201542","1","1","5","434","3","left","3","in","Female","Right-handed","3","no","left","d","481.608984177","887.508952","23","green","2"
"93","76","19","632.93060408","1","1","5","435","3","right","3","out","Female","Right-handed","3","no","right","s","493.416168087","414.608387277","23","green","2"
"93","77","19","647.647413459","1","1","5","436","1","left","3","out","Female","Right-handed","3","no","left","d","530.039124249","1648.26426539","23","red","2"
"93","78","19","642.982322583","1","1","5","437","3","right","3","in","Female","Right-handed","3","no","right","s","453.504583216","543.224427616","23","red","0"
"93","78","19","643.979111786","1","1","5","438","1","left","2","in","Female","Right-handed","3","no","left","s","569.473482668","782.279249921","23","green","0"
"94","79","19","638.490849646","1","1","5","439","0","right","3","out","Female","Right-handed","3","no","right","s","490.839530365","423.916867701","23","red","1"
"94","80","19","651.815501423","1","1","5","440","3","left","3","in","Female","Right-handed","3","no","left","d","1562.92605208","646.781271556","23","red","0"
"94","80","19","654.30543587","1","1","5","441","3","right","0","in","Female","Right-handed","3","no","right","d","789.034825692","693.871457363","23","red","1"
"94","81","19","655.12254415","1","1","5","442","1","right","2","in","Female","Right-handed","3","no","right","s","465.538834454","903.538050014","23","red","1"
"94","81","19","656.780613586","1","1","5","443","1","left","1","in","Female","Right-handed","3","no","left","d","925.662688795","510.595676664","23","green","0"
"94","82","19","659.189486669","1","1","5","444","2","left","3","in","Female","Right-handed","3","no","left","s","446.800001431","1054.65332617","23","red","1"
"95","82","19","653.712952819","1","1","5","445","1","left","1","out","Female","Right-handed","3","no","left","d","401.091462933","479.164802469","23","green","2"
"95","80","19","657.092585983","1","0","5","446","2","left","1","in","Female","Right-handed","3","no","left","d","522.397408321","1062.15841672","23","red","3"
"95","80","19","651.604067435","1","1","5","447","0","left","3","out","Female","Right-handed","3","no","left","d","429.489640344","423.659973604","23","green","0"
"95","81","19","657.935714973","1","1","5","448","3","right","3","out","Female","Right-handed","3","no","right","d","512.907402357","1334.82242079","23","green","1"
"95","81","19","656.832805042","1","1","5","449","2","right","3","out","Female","Right-handed","3","no","right","s","388.948488689","829.866867337","23","red","2"
"95","82","19","654.734538724","1","1","5","450","3","left","1","out","Female","Right-handed","3","no","left","s","429.396632534","695.425008889","23","green","0"
"93","80","19","653.97974655","0","0","5","451","1","right","3","in","Female","Right-handed","3","no","left","s","399.644389342","840.38380807","23","red","1"
"93","80","19","657.12290311","1","1","5","452","3","right","3","out","Female","Right-handed","3","no","right","s","445.714054804","1157.70215495","23","red","0"
"93","81","19","658.787760781","1","1","5","453","3","left","1","in","Female","Right-handed","3","no","left","d","499.096701561","974.975441117","23","red","3"
"93","81","19","656.538421437","1","1","5","454","2","right","0","out","Female","Right-handed","3","no","right","s","619.165001378","477.975264424","23","red","1"
"94","82","19","654.712876808","1","1","5","455","3","right","2","out","Female","Right-handed","3","no","right","d","748.162373725","382.360006333","23","green","1"
"94","80","19","651.71280588","1","0","5","456","3","right","3","out","Female","Right-handed","3","no","right","s","452.671681996","550.746836875","23","red","0"
"94","80","19","655.03287642","1","1","5","457","2","left","2","out","Female","Right-handed","3","no","left","s","547.912022273","1100.80092569","23","red","3"
"94","81","19","657.075619804","1","1","5","458","3","left","1","out","Female","Right-handed","3","no","left","d","510.259565607","1016.33698598","23","green","2"
"94","81","19","655.195148428","1","1","5","459","0","left","0","in","Female","Right-handed","3","no","left","d","536.647811706","574.412519229","23","red","3"
"94","81","19","676.94373175","1","1","5","460","3","left","3","out","Female","Right-handed","3","no","left","s","977.488256176","2725.24620616","23","red","1"
"94","82","19","681.451240829","1","1","5","461","0","right","2","out","Female","Right-handed","3","no","right","d","594.982965151","1263.7455152","23","red","3"
"94","82","19","676.450868299","1","1","5","462","1","right","0","in","Female","Right-handed","3","no","right","s","433.830219612","359.029793588","23","green","3"
"94","81","19","673.765146578","1","0","5","463","2","left","3","out","Female","Right-handed","3","no","left","d","636.175812979","405.182203976","23","green","0"
"94","81","19","669.74430723","1","1","5","464","1","right","2","out","Female","Right-handed","3","no","right","s","465.494896227","407.576353814","23","red","3"
"95","80","19","673.557806666","1","0","5","465","0","right","1","in","Female","Right-handed","3","no","right","d","847.741689649","949.366857239","23","red","3"
"95","78","19","673.397725984","1","0","5","466","2","right","3","in","Female","Right-handed","3","no","right","s","489.706438442","837.879331666","23","green","2"
"95","79","19","673.242597108","1","1","5","467","3","left","2","out","Female","Right-handed","3","no","left","s","512.269496918","815.289974387","23","green","3"
"95","77","19","675.831325966","1","0","5","468","3","left","3","out","Female","Right-handed","3","no","left","d","538.416243391","1134.24878696","23","red","2"
"95","78","19","676.218340456","1","1","5","469","1","right","3","out","Female","Right-handed","3","no","right","d","457.547216734","943.653289869","23","red","0"
"95","78","19","681.344671705","1","1","5","470","3","right","3","in","Female","Right-handed","3","no","right","d","636.074787296","1382.78495596","23","green","1"
"95","77","19","683.400289254","1","0","5","471","2","left","0","in","Female","Right-handed","3","no","left","d","644.021825399","990.009034576","23","red","3"
"95","77","19","692.676526963","1","1","5","472","2","left","1","out","Female","Right-handed","3","no","left","d","642.418242118","1967.3981893","23","red","0"
"95","77","19","688.571180677","1","1","5","473","2","left","3","out","Female","Right-handed","3","no","left","s","428.535187617","398.490771535","23","green","1"
"95","78","19","684.990924626","1","1","5","474","3","left","1","out","Female","Right-handed","3","no","left","s","437.673046661","445.393979608","23","red","3"
"95","78","19","685.885234568","1","1","5","475","3","right","3","out","Female","Right-handed","3","no","right","s","512.157887511","983.027353592","23","red","1"
"95","78","19","687.178441741","1","1","5","476","1","right","1","out","Female","Right-handed","3","no","right","d","421.373584541","1134.03230323","23","red","3"
"95","79","19","686.146831821","1","1","5","477","0","right","1","out","Female","Right-handed","3","no","right","d","547.344353806","678.460701136","23","red","2"
"95","78","19","688.462190897","1","0","5","478","1","left","3","in","Female","Right-handed","3","no","left","s","615.597349242","1094.73873943","23","red","0"
"95","78","19","689.601847517","1","1","5","479","1","right","0","in","Female","Right-handed","3","no","right","d","499.796184595","1045.79737701","23","green","3"
"96","77","19","692.009772024","1","0","5","480","0","right","2","in","Female","Right-handed","3","no","right","d","525.094314711","1215.29805643","23","red","0"
"96","77","19","699.257324027","1","1","5","481","1","left","3","out","Female","Right-handed","3","no","left","d","711.432618904","1774.21482949","23","red","1"
"96","77","19","705.458873299","1","1","5","482","0","left","0","out","Female","Right-handed","3","no","left","d","700.344802462","1653.20843348","23","green","2"
"96","76","19","708.957716249","1","0","5","483","0","right","2","in","Female","Right-handed","3","no","right","d","717.878382362","1238.85886447","23","green","3"
"96","77","19","706.740873115","1","1","5","484","0","right","3","out","Female","Right-handed","3","no","right","s","693.915074866","373.739142553","23","green","1"
"96","77","19","708.261338458","1","1","5","485","0","left","1","in","Female","Right-handed","3","no","left","d","491.853315732","1164.90288539","23","green","0"
"96","76","19","708.380346537","1","0","5","486","2","right","1","in","Female","Right-handed","3","no","right","d","452.28810492","983.513880754","23","red","3"
"96","76","19","704.864345576","1","1","5","487","1","left","3","in","Female","Right-handed","3","no","left","d","417.579506466","422.557029058","23","green","2"
"96","77","19","701.610205524","1","1","5","488","2","left","1","in","Female","Right-handed","3","no","left","s","431.763521453","437.777921034","23","red","2"
"96","76","19","700.776922367","1","0","5","489","2","right","2","out","Female","Right-handed","3","no","right","d","656.119257852","607.109582808","23","green","0"
"96","76","19","697.570916539","1","1","5","490","2","right","3","in","Female","Right-handed","3","no","right","d","443.279173865","413.253680104","23","red","0"
"96","75","19","700.153502454","1","0","5","491","0","left","3","out","Female","Right-handed","3","no","left","s","447.624884662","1391.7217257","23","red","1"
"96","75","19","697.317226148","1","1","5","492","1","left","3","in","Female","Right-handed","3","no","left","d","491.914893384","414.88003434","23","green","1"
"96","75","19","700.880913182","1","0","5","493","0","right","3","in","Female","Right-handed","3","no","right","s","433.026824437","1588.8165459","23","green","0"
"96","75","19","700.116407177","1","1","5","494","0","right","3","in","Female","Right-handed","3","no","right","s","658.351125079","607.328632264","23","green","2"
"96","75","19","701.492911112","1","1","5","495","1","right","0","in","Female","Right-handed","3","no","right","d","665.559873451","982.443649263","23","green","1"
"96","74","19","703.169521521","1","0","5","496","1","right","1","in","Female","Right-handed","3","no","right","d","590.603579185","1117.52533744","23","red","3"
"96","73","19","705.194707713","1","0","5","497","3","right","0","out","Female","Right-handed","3","no","right","s","460.009999922","1318.96330259","23","green","2"
"96","74","19","704.520109231","1","1","5","498","0","left","3","in","Female","Right-handed","3","no","left","s","430.918433121","853.995664511","23","green","2"
"96","74","19","704.03717416","1","1","5","499","3","right","0","out","Female","Right-handed","3","no","right","s","408.132476499","910.115948703","23","green","3"
"96","73","19","705.495692667","1","0","5","500","0","left","3","in","Female","Right-handed","3","no","left","d","438.638403837","1246.55446078","23","green","2"
"96","73","19","704.383802872","1","1","5","501","3","left","2","in","Female","Right-handed","3","no","left","d","591.740840405","605.767704255","23","green","3"
dis_reply=No
dis_loc=3
