"acc_1","acc_2","age","avg_rt","correct_1","correct_2","count_block_loop","count_trial_sequence","cue_position","detection","dis_position","dis_shape","gender","hand","high_loc","practice","response_keyboard_response_1","response_keyboard_response_2","response_time_keyboard_response_1","response_time_keyboard_response_2","subject_nr","tar_color","tar_position"
"100","0","22","2640.37074787","1","0","0","0","2","right","3","in","Female","Right-handed","3","yes","right","None","2280.62026294","3000.1212328","31","green","1"
"50","0","22","2433.19583459","0","0","0","1","2","right","0","in","Female","Right-handed","3","yes","escape","None","1451.86191776","3000.17992487","31","green","2"
"66","0","22","2106.53883127","1","0","0","2","2","right","2","out","Female","Right-handed","3","yes","right","s","2440.74538289","465.704266368","31","green","1"
"75","25","22","1898.71704905","1","1","0","3","2","left","3","out","Female","Right-handed","3","yes","left","d","1557.27512277","993.228282008","31","red","1"
"80","40","22","1727.01830166","1","1","0","4","0","left","2","in","Female","Right-handed","3","yes","left","d","1006.74509809","1073.70152612","31","green","0"
"83","33","22","1566.42456455","1","0","0","5","3","left","1","in","Female","Right-handed","3","yes","left","d","789.463522397","737.448235515","31","green","0"
"85","28","22","1518.49166783","1","0","0","6","1","left","2","in","Female","Right-handed","3","yes","left","d","1595.83132348","865.957251644","31","red","0"
"87","37","22","1446.79892481","1","1","0","7","0","left","0","in","Female","Right-handed","3","yes","left","s","1384.46417667","505.435270665","31","red","3"
"88","44","22","1421.38475015","1","1","0","8","2","left","0","in","Female","Right-handed","3","yes","left","s","1506.10942768","930.033278084","31","red","2"
"90","50","22","1352.0153831","1","1","0","9","1","right","2","in","Female","Right-handed","3","yes","right","d","597.764633891","857.61752526","31","green","0"
"90","54","22","1295.08882067","1","1","0","10","1","right","1","in","Female","Right-handed","3","yes","right","d","554.265149611","897.381243169","31","red","0"
"91","58","22","1258.81238999","1","1","0","11","3","left","3","in","Female","Right-handed","3","yes","left","d","829.891454949","889.651850182","31","green","0"
"92","53","22","1244.38395332","1","0","0","12","3","left","2","in","Female","Right-handed","3","yes","left","s","1005.24379981","1137.2416266","31","green","1"
"92","50","22","1223.14237533","1","0","0","13","2","right","1","out","Female","Right-handed","3","yes","right","d","939.980782357","954.022940583","31","green","3"
"93","53","22","1210.42687631","1","1","0","14","3","left","3","out","Female","Right-handed","3","yes","left","s","1191.45161207","873.368167988","31","green","2"
"93","56","22","1196.21094171","1","1","0","15","0","left","0","out","Female","Right-handed","3","yes","left","s","1403.00606035","562.937785122","31","green","2"
"94","58","22","1173.05675099","1","1","0","16","2","right","2","in","Female","Right-handed","3","yes","right","s","803.664117142","801.515281746","31","red","0"
"94","61","22","1167.76488904","1","1","0","17","3","right","2","out","Female","Right-handed","3","yes","right","s","1458.31932849","697.287143419","31","red","1"
"94","63","22","1172.24151316","1","1","0","18","0","left","1","in","Female","Right-handed","3","yes","left","d","1543.88338816","961.758106561","31","green","3"
"95","65","22","1164.11410412","1","1","0","19","0","right","1","in","Female","Right-handed","3","yes","right","d","1026.23695945","993.149705191","31","green","3"
"95","66","22","1144.70073519","1","1","0","20","1","left","2","in","Female","Right-handed","3","yes","left","s","695.875967936","816.990745254","31","green","1"
"95","68","22","1142.23858732","1","1","0","21","2","left","1","in","Female","Right-handed","3","yes","left","d","1035.49555351","1145.57141061","31","green","2"
"100","100","22","1070.88366526","1","1","1","22","1","left","3","out","Female","Right-handed","3","no","left","d","1475.85318387","665.914146648","31","green","0"
"100","50","22","1011.34336529","1","0","1","23","1","right","3","in","Female","Right-handed","3","no","right","s","1422.30260221","481.30352845","31","green","1"
"100","33","22","1040.70487574","1","0","1","24","1","left","3","in","Female","Right-handed","3","no","left","d","1340.91081114","857.944982115","31","red","2"
"100","50","22","980.266354562","1","1","1","25","1","right","2","in","Female","Right-handed","3","no","right","s","980.444635738","617.456946318","31","green","0"
"100","60","22","936.43959784","1","1","1","26","2","left","3","in","Female","Right-handed","3","no","left","s","1233.1945036","289.070638311","31","red","0"
"100","66","22","911.586702193","1","1","1","27","2","left","2","out","Female","Right-handed","3","no","left","d","932.735679133","641.908768786","31","red","0"
"100","71","22","934.902726941","1","1","1","28","3","right","1","out","Female","Right-handed","3","no","right","d","1372.32101163","777.276739213","31","red","3"
"100","75","22","885.21580802","1","1","1","29","3","right","3","in","Female","Right-handed","3","no","right","s","568.985634236","505.829116912","31","red","0"
"100","77","22","893.356435274","1","1","1","30","0","right","0","out","Female","Right-handed","3","no","right","s","1147.53294453","769.429962078","31","red","1"
"100","80","22","905.715549358","1","1","1","31","0","right","0","out","Female","Right-handed","3","no","right","d","1369.00891863","664.886233601","31","green","3"
"100","81","22","900.204993649","1","1","1","32","1","right","2","out","Female","Right-handed","3","no","right","s","1008.59437942","681.604493697","31","red","3"
"100","83","22","916.489026935","1","1","1","33","0","right","3","out","Female","Right-handed","3","no","right","s","1366.09772775","825.129058412","31","red","2"
"100","84","22","905.506505421","1","1","1","34","1","left","3","in","Female","Right-handed","3","no","left","d","1025.72669123","521.705803269","31","green","0"
"100","85","22","895.599347762","1","1","1","35","1","right","3","in","Female","Right-handed","3","no","right","d","644.395003412","889.217592998","31","red","2"
"100","80","22","869.458752196","1","0","1","36","0","right","0","in","Female","Right-handed","3","no","right","s","516.962008591","490.01881995","31","green","2"
"100","81","22","860.406841892","1","1","1","37","1","right","0","out","Female","Right-handed","3","no","right","d","967.700438232","481.555936429","31","green","2"
"100","82","22","867.9252566","1","1","1","38","2","right","3","in","Female","Right-handed","3","no","right","d","911.272662197","1065.16712167","31","red","0"
"100","83","22","858.914470365","1","1","1","39","3","right","2","in","Female","Right-handed","3","no","right","d","705.688448375","705.773760346","31","red","1"
"100","84","22","873.808569522","1","1","1","40","0","right","3","in","Female","Right-handed","3","no","right","d","1002.36147388","1281.44323482","31","red","2"
"100","85","22","862.088626311","1","1","1","41","1","left","1","out","Female","Right-handed","3","no","left","s","541.836221539","736.983189054","31","red","3"
"100","85","22","856.754516617","1","1","1","42","3","left","1","in","Female","Right-handed","3","no","left","s","978.528323576","521.616321912","31","green","0"
"100","86","22","844.181982975","1","1","1","43","0","left","3","in","Female","Right-handed","3","no","left","s","847.113568838","313.203984133","31","red","1"
"100","86","22","843.510560334","1","1","1","44","3","right","3","out","Female","Right-handed","3","no","right","s","1183.73889662","473.739627861","31","green","2"
"100","87","22","848.418511939","1","1","1","45","1","right","1","in","Female","Right-handed","3","no","right","d","841.229608515","1081.3731892","31","red","3"
"100","88","22","841.89724205","1","1","1","46","2","left","1","out","Female","Right-handed","3","no","left","s","969.785450008","400.988079415","31","green","0"
"100","88","22","837.537725507","1","1","1","47","0","right","2","out","Female","Right-handed","3","no","right","d","975.441056482","481.658567372","31","red","1"
"100","88","22","827.515833674","1","1","1","48","1","right","2","out","Female","Right-handed","3","no","right","d","532.844788657","601.048503384","31","red","3"
"100","89","22","817.757567933","1","1","1","49","0","left","1","out","Female","Right-handed","3","no","left","s","523.765157308","584.803628517","31","green","0"
"100","86","22","804.048546339","1","0","1","50","2","left","0","in","Female","Right-handed","3","no","left","d","479.168163365","361.223720065","31","green","3"
"100","86","22","805.845372157","1","1","1","51","3","left","1","in","Female","Right-handed","3","no","left","s","867.037442334","848.869199428","31","green","2"
"100","87","22","795.0630543","1","1","1","52","2","right","2","out","Female","Right-handed","3","no","right","s","421.708304897","521.478732302","31","green","3"
"100","87","22","788.209886415","1","1","1","53","3","right","1","out","Female","Right-handed","3","no","right","s","526.245939662","625.277424271","31","red","3"
"100","87","22","782.349200738","1","1","1","54","1","right","3","in","Female","Right-handed","3","no","right","d","708.858461665","480.756056506","31","green","0"
"100","88","22","785.408171","1","1","1","55","1","right","3","out","Female","Right-handed","3","no","right","s","1163.35639108","609.35198822","31","green","2"
"100","88","22","784.281901363","1","1","1","56","2","right","3","in","Female","Right-handed","3","no","right","d","1010.99786784","480.979599535","31","red","1"
"100","88","22","781.385380194","1","1","1","57","2","left","1","in","Female","Right-handed","3","no","left","s","974.411860545","385.602417984","31","red","3"
"100","89","22","777.528284707","1","1","1","58","2","left","0","in","Female","Right-handed","3","no","left","s","996.175072996","281.17062138","31","red","2"
"100","89","22","769.312780496","1","1","1","59","2","right","1","in","Female","Right-handed","3","no","right","d","569.821434983","360.856814437","31","green","2"
"100","89","22","767.85223746","1","1","1","60","2","left","3","in","Female","Right-handed","3","no","left","s","895.305532318","529.397671817","31","red","2"
"100","87","22","759.557013574","1","0","1","61","3","left","3","in","Female","Right-handed","3","no","left","d","590.999971777","281.086592295","31","green","0"
"100","87","22","762.631107902","1","1","1","62","3","right","3","out","Female","Right-handed","3","no","right","d","962.616037112","808.573724939","31","red","1"
"100","88","22","758.124609941","1","1","1","63","2","left","3","in","Female","Right-handed","3","no","left","s","513.384678739","633.331708341","31","red","0"
"100","86","22","753.641761349","1","0","1","64","0","right","3","in","Female","Right-handed","3","no","right","d","513.880193768","616.844047148","31","green","0"
"100","86","22","752.900771067","1","1","1","65","0","right","3","in","Female","Right-handed","3","no","right","d","577.571995607","864.504382342","31","green","0"
"100","86","22","750.272638391","1","1","1","66","1","left","0","out","Female","Right-handed","3","no","left","d","796.117535523","473.152065704","31","red","3"
"100","86","22","747.79389835","1","1","1","67","2","right","3","out","Female","Right-handed","3","no","right","s","495.785716848","776.715476233","31","red","0"
"100","87","22","745.984062752","1","1","1","68","1","right","3","in","Female","Right-handed","3","no","right","s","868.334440893","457.128809532","31","red","1"
"100","85","22","743.91043034","1","0","1","69","3","right","0","out","Female","Right-handed","3","no","right","d","452.026768715","840.872645258","31","green","1"
"100","85","22","743.58836739","1","1","1","70","0","left","3","in","Female","Right-handed","3","no","left","s","711.646495412","744.612196147","31","green","1"
"100","86","22","740.887972551","1","1","1","71","1","left","3","in","Female","Right-handed","3","no","left","s","528.077260576","689.059990353","31","green","0"
"100","86","22","739.050529691","1","1","1","72","0","right","3","out","Female","Right-handed","3","no","right","s","757.669418032","536.687355358","31","red","2"
"100","86","22","736.920518797","1","1","1","73","1","right","1","out","Female","Right-handed","3","no","right","d","536.121922996","720.45800342","31","red","0"
"100","84","22","736.845000358","1","0","1","74","2","left","2","in","Female","Right-handed","3","no","left","s","784.934290539","680.90179245","31","red","1"
"100","85","22","733.877251799","1","1","1","75","3","left","3","out","Female","Right-handed","3","no","left","d","696.507468965","456.665687398","31","red","0"
"100","85","22","734.218215197","1","1","1","76","3","right","0","out","Female","Right-handed","3","no","right","d","952.193864723","553.066612614","31","green","2"
"100","85","22","729.531125835","1","1","1","77","2","left","3","in","Female","Right-handed","3","no","left","d","454.642574907","488.839846974","31","red","2"
"100","84","22","725.475894174","1","0","1","78","2","right","1","out","Female","Right-handed","3","no","right","s","468.237967805","528.527874561","31","green","3"
"100","82","22","721.096322547","1","0","1","79","0","left","1","in","Female","Right-handed","3","no","left","s","445.858007523","497.06347211","31","red","3"
"100","81","22","721.44306207","1","0","1","80","0","left","3","in","Female","Right-handed","3","no","left","s","834.546730435","648.561178306","31","green","1"
"100","80","22","721.946932532","1","0","1","81","2","left","3","in","Female","Right-handed","3","no","left","d","734.249998717","769.100580892","31","red","2"
"100","80","22","721.722995527","1","1","1","82","0","left","1","in","Female","Right-handed","3","no","left","d","983.850379478","432.72317099","31","red","3"
"100","79","22","723.01557017","1","0","1","83","2","left","2","out","Female","Right-handed","3","no","left","d","731.358051144","872.36719556","31","green","3"
"98","77","22","730.116682526","0","0","1","84","2","right","3","in","Female","Right-handed","3","no","left","s","1391.94501034","948.826286865","31","red","1"
"98","76","22","726.536877343","1","0","1","85","3","left","2","out","Female","Right-handed","3","no","left","s","497.441923715","504.576377949","31","green","3"
"98","76","22","726.315205682","1","1","1","86","0","right","3","out","Female","Right-handed","3","no","right","s","511.146361987","913.110076821","31","green","0"
"98","77","22","723.873052947","1","1","1","87","2","right","0","out","Female","Right-handed","3","no","right","d","641.617553487","488.648696843","31","green","1"
"98","76","22","723.448371867","1","0","1","88","3","left","3","out","Female","Right-handed","3","no","left","d","590.430370037","800.408471157","31","green","2"
"98","76","22","727.181278282","1","1","1","89","0","right","3","in","Female","Right-handed","3","no","right","d","1185.72929549","768.842720645","31","red","2"
"98","76","22","727.92619647","1","1","1","90","0","left","3","out","Female","Right-handed","3","no","left","s","604.614928699","952.54633787","31","green","0"
"98","77","22","727.621455475","1","1","1","91","3","left","3","out","Female","Right-handed","3","no","left","d","732.056583005","681.132070629","31","red","1"
"98","77","22","724.860554722","1","1","1","92","1","left","1","out","Female","Right-handed","3","no","left","s","550.469729002","512.725274923","31","red","2"
"98","76","22","723.115668246","1","0","1","93","3","left","2","out","Female","Right-handed","3","no","left","d","502.221318497","696.23613841","31","green","3"
"98","76","22","721.180879377","1","1","1","94","0","left","2","out","Female","Right-handed","3","no","left","d","746.822610108","416.929551557","31","green","3"
"98","75","22","722.961227624","1","0","1","95","1","right","2","in","Female","Right-handed","3","no","right","s","785.394846902","920.458452427","31","green","1"
"98","76","22","723.796299385","1","1","1","96","1","right","3","in","Female","Right-handed","3","no","right","s","850.140540249","721.042679081","31","red","2"
"98","76","22","721.834884889","1","1","1","97","3","right","2","in","Female","Right-handed","3","no","right","d","524.652594253","624.805001207","31","green","0"
"98","76","22","720.373368293","1","1","1","98","3","left","3","in","Female","Right-handed","3","no","left","s","946.275587175","272.320626765","31","green","2"
"98","76","22","718.540862724","1","1","1","99","0","right","3","in","Female","Right-handed","3","no","right","s","785.897097085","368.978770788","31","green","1"
"98","77","22","717.217936794","1","1","1","100","2","left","3","in","Female","Right-handed","3","no","left","d","739.479045329","488.58038312","31","green","1"
"98","77","22","719.210542331","1","1","1","101","3","left","0","out","Female","Right-handed","3","no","left","d","873.1289096","880.123849893","31","red","3"
"98","76","22","715.959255959","1","0","1","102","0","right","2","in","Female","Right-handed","3","no","right","d","462.817771062","448.894921308","31","red","0"
"98","76","22","716.854521059","1","1","1","103","3","right","3","out","Female","Right-handed","3","no","right","s","706.442785813","872.299202558","31","red","1"
"98","77","22","719.601635903","1","1","1","104","3","left","3","out","Female","Right-handed","3","no","left","d","800.785319156","1088.94478712","31","red","1"
"98","77","22","717.373542641","1","1","1","105","0","left","0","out","Female","Right-handed","3","no","left","s","776.574679407","288.308924271","31","green","3"
"98","76","22","713.553389674","1","0","1","106","1","left","3","in","Female","Right-handed","3","no","left","s","529.180863945","256.140216963","31","green","1"
"98","76","22","710.579141048","1","1","1","107","1","left","0","out","Female","Right-handed","3","no","left","d","370.842805314","544.69321045","31","red","1"
"98","77","22","709.811799548","1","1","1","108","0","left","2","in","Female","Right-handed","3","no","left","s","919.345548129","368.295312848","31","green","3"
"98","77","22","709.081319512","1","1","1","109","1","left","3","out","Female","Right-handed","3","no","left","s","522.907547482","768.151565379","31","red","1"
"98","77","22","712.968676027","1","1","1","110","1","right","0","in","Female","Right-handed","3","no","right","d","701.601171018","1408.51092763","31","green","3"
"98","77","22","717.793164223","1","1","1","111","0","left","1","out","Female","Right-handed","3","no","left","d","1478.16013506","816.185092343","31","red","2"
"98","78","22","717.072509199","1","1","1","112","3","right","3","out","Female","Right-handed","3","no","right","d","527.702016185","776.725097883","31","green","2"
"98","78","22","714.478522063","1","1","1","113","3","right","3","in","Female","Right-handed","3","no","right","s","596.365325109","360.486060152","31","green","0"
"98","78","22","712.592089891","1","1","1","114","2","right","0","out","Female","Right-handed","3","no","right","s","622.003176428","456.077483799","31","green","3"
"98","77","22","712.326522656","1","0","1","115","2","left","3","out","Female","Right-handed","3","no","left","s","854.685808194","520.571731333","31","green","1"
"98","76","22","717.018663235","1","0","1","116","3","left","0","out","Female","Right-handed","3","no","left","d","1452.13132399","864.028431337","31","red","3"
"97","76","22","716.514945591","0","0","1","117","2","left","3","out","Female","Right-handed","3","no","right","s","629.616468159","707.707070756","31","green","2"
"100","100","22","767.803101251","1","1","2","118","1","right","3","in","Female","Right-handed","3","no","right","s","878.736728537","656.869473965","31","red","2"
"100","100","22","636.557847932","1","1","2","119","0","left","2","in","Female","Right-handed","3","no","left","d","625.257860247","385.367328978","31","green","3"
"100","100","22","658.19036629","1","1","2","120","3","right","3","out","Female","Right-handed","3","no","right","s","905.956058563","496.95474745","31","red","1"
"75","100","22","635.424617892","0","1","2","121","1","left","3","out","Female","Right-handed","3","no","right","s","506.691537565","627.563207832","31","red","2"
"80","100","22","593.385820509","1","1","2","122","3","left","3","in","Female","Right-handed","3","no","left","s","489.210921987","361.250339963","31","green","2"
"83","100","22","615.205212711","1","1","2","123","3","left","3","out","Female","Right-handed","3","no","left","d","759.875021169","688.729326281","31","red","1"
"85","100","22","589.032481594","1","1","2","124","2","left","3","in","Female","Right-handed","3","no","left","s","542.492097415","321.500092366","31","green","1"
"87","100","22","587.794318287","1","1","2","125","0","left","3","in","Female","Right-handed","3","no","left","s","573.027689829","585.226660442","31","green","1"
"88","100","22","593.835525787","1","1","2","126","2","left","3","in","Female","Right-handed","3","no","left","d","867.572406129","416.757965446","31","red","2"
"90","90","22","597.334305548","1","0","2","127","1","right","1","in","Female","Right-handed","3","no","right","s","976.300269918","281.346376869","31","red","3"
"90","81","22","615.470877186","1","0","2","128","1","right","1","out","Female","Right-handed","3","no","right","s","840.924602177","752.748584975","31","red","0"
"91","75","22","601.480021069","1","0","2","129","3","left","0","in","Female","Right-handed","3","no","left","s","470.519902705","424.641304849","31","red","1"
"92","69","22","585.29573896","1","0","2","130","1","left","2","out","Female","Right-handed","3","no","left","d","453.033514135","329.135193177","31","red","3"
"92","71","22","578.257618423","1","1","2","131","3","right","2","in","Female","Right-handed","3","no","right","d","564.750183454","408.773919426","31","red","1"
"93","73","22","586.060782749","1","1","2","132","3","left","2","in","Female","Right-handed","3","no","left","s","645.338245933","745.271920685","31","red","3"
"93","75","22","601.46173325","1","1","2","133","1","right","0","in","Female","Right-handed","3","no","right","s","856.037650159","808.914331384","31","green","3"
"94","76","22","607.115850489","1","1","2","134","0","left","3","in","Female","Right-handed","3","no","left","s","770.500851835","624.66260077","31","red","0"
"94","72","22","612.06517799","1","0","2","135","3","right","3","in","Female","Right-handed","3","no","right","d","487.213467233","905.194023802","31","green","1"
"94","73","22","626.051249775","1","1","2","136","2","left","1","out","Female","Right-handed","3","no","left","d","810.697544042","944.903539741","31","green","2"
"95","75","22","644.190791887","1","1","2","137","0","left","1","in","Female","Right-handed","3","no","left","s","1025.31424312","952.369940933","31","green","2"
"95","76","22","636.962690353","1","1","2","138","2","right","2","out","Female","Right-handed","3","no","right","s","607.887572933","376.913746386","31","red","1"
"95","77","22","629.534990271","1","1","2","139","0","right","3","in","Female","Right-handed","3","no","right","d","474.462855295","472.643721809","31","green","2"
"95","78","22","622.060055724","1","1","2","140","3","left","3","in","Female","Right-handed","3","no","left","s","546.131968","369.091023386","31","red","1"
"95","79","22","630.736087573","1","1","2","141","3","right","3","out","Female","Right-handed","3","no","right","d","627.772318381","1032.79732184","31","red","0"
"96","80","22","628.44321045","1","1","2","142","0","right","0","in","Female","Right-handed","3","no","right","s","626.430739507","520.397579446","31","green","3"
"96","80","22","626.867315754","1","1","2","143","0","right","0","out","Female","Right-handed","3","no","right","s","494.046122345","680.89377441","31","green","1"
"96","81","22","629.674411882","1","1","2","144","0","right","2","in","Female","Right-handed","3","no","right","s","556.556385443","848.761436933","31","red","0"
"96","82","22","627.834990838","1","1","2","145","3","right","3","in","Female","Right-handed","3","no","right","d","660.143080364","496.198164958","31","green","2"
"96","82","22","623.457876058","1","1","2","146","3","left","2","in","Female","Right-handed","3","no","left","s","568.91732051","432.8800039","31","green","3"
"96","83","22","619.724699975","1","1","2","147","2","left","3","in","Female","Right-handed","3","no","left","s","478.342625709","544.582561462","31","green","2"
"93","83","22","619.783999521","0","1","2","148","0","left","1","in","Female","Right-handed","3","no","right","d","424.015576813","819.110394976","31","red","0"
"93","84","22","617.720303937","1","1","2","149","2","left","3","out","Female","Right-handed","3","no","left","s","794.664986941","312.826494694","31","green","2"
"93","84","22","612.935202826","1","1","2","150","3","right","1","out","Female","Right-handed","3","no","right","s","631.266260592","288.357673973","31","red","0"
"94","85","22","612.408456593","1","1","2","151","1","right","0","out","Female","Right-handed","3","no","right","s","749.016346541","441.035315311","31","red","2"
"94","85","22","608.040002793","1","1","2","152","0","right","3","out","Female","Right-handed","3","no","right","s","502.516703185","416.508443959","31","red","2"
"94","83","22","603.572164449","1","0","2","153","2","left","3","in","Female","Right-handed","3","no","left","s","638.181982624","256.213662233","31","green","0"
"94","83","22","605.106252672","1","1","2","154","2","right","0","out","Female","Right-handed","3","no","right","s","1047.78208115","272.884776237","31","red","3"
"94","81","22","609.496705445","1","0","2","155","1","left","3","in","Female","Right-handed","3","no","left","s","927.43575303","616.451163063","31","green","1"
"94","82","22","614.485681799","1","1","2","156","1","left","3","in","Female","Right-handed","3","no","left","s","591.08977385","1017.04379262","31","red","2"
"95","80","22","620.238649819","1","0","2","157","2","right","3","out","Female","Right-handed","3","no","right","s","1088.60482211","600.603983108","31","green","1"
"95","78","22","616.394453993","1","0","2","158","2","right","2","in","Female","Right-handed","3","no","right","s","533.027600028","392.22564183","31","green","3"
"95","78","22","613.045686592","1","1","2","159","0","right","1","in","Female","Right-handed","3","no","right","s","598.738986417","352.753459945","31","green","3"
"95","79","22","613.601427686","1","1","2","160","1","right","3","out","Female","Right-handed","3","no","right","s","697.384642819","576.500464405","31","green","1"
"95","79","22","618.545340922","1","1","2","161","0","left","0","in","Female","Right-handed","3","no","left","s","1246.06410329","416.2031169","31","red","3"
"95","80","22","615.094567288","1","1","2","162","0","right","3","out","Female","Right-handed","3","no","right","s","549.647077842","376.873976897","31","green","2"
"95","80","22","619.752170254","1","1","2","163","2","left","1","in","Female","Right-handed","3","no","left","d","906.380052653","752.308554802","31","red","3"
"95","78","22","613.766872554","1","0","2","164","2","right","3","out","Female","Right-handed","3","no","right","s","403.971753396","272.914603356","31","red","0"
"95","79","22","612.679412387","1","1","2","165","0","left","3","in","Female","Right-handed","3","no","left","d","562.546825371","560.590743713","31","green","0"
"95","79","22","614.239047314","1","1","2","166","2","left","3","out","Female","Right-handed","3","no","left","d","578.082584554","800.120463071","31","red","0"
"96","80","22","620.179896009","1","1","2","167","3","left","1","out","Female","Right-handed","3","no","left","d","1341.78028768","480.782676412","31","green","3"
"96","78","22","624.378174076","1","0","2","168","0","right","2","in","Female","Right-handed","3","no","right","s","1004.36887101","664.215283803","31","red","3"
"96","78","22","628.830203492","1","1","2","169","1","right","3","in","Female","Right-handed","3","no","right","s","1143.80712053","567.960286953","31","red","2"
"96","79","22","631.060184795","1","1","2","170","0","left","1","in","Female","Right-handed","3","no","left","s","1093.5038461","400.53457893","31","red","3"
"96","77","22","642.615710688","1","0","2","171","2","left","0","out","Female","Right-handed","3","no","left","s","1061.98941105","1448.127755","31","green","1"
"96","78","22","647.55044136","1","1","2","172","3","left","3","out","Female","Right-handed","3","no","left","d","1107.64254155","720.409253718","31","red","2"
"96","76","22","648.858481595","1","0","2","173","3","right","3","in","Female","Right-handed","3","no","right","s","673.35168289","768.249706216","31","red","0"
"96","77","22","657.181946929","1","1","2","174","1","left","2","out","Female","Right-handed","3","no","left","s","701.783661665","1544.80834954","31","green","0"
"94","75","22","680.974388912","0","0","2","175","2","right","1","in","Female","Right-handed","3","no","None","s","3000.1802456","1074.10691835","31","green","3"
"94","76","22","681.199229211","1","1","2","176","1","left","2","out","Female","Right-handed","3","no","left","s","523.81262412","864.667308964","31","red","3"
"95","76","22","681.101989608","1","1","2","177","0","right","3","in","Female","Right-handed","3","no","right","d","590.255255986","760.474450028","31","red","1"
"95","75","22","683.796410954","1","0","2","178","2","right","1","in","Female","Right-handed","3","no","right","s","522.993500897","1167.92988254","31","red","0"
"95","74","22","686.071792642","1","0","2","179","1","right","2","out","Female","Right-handed","3","no","right","d","497.330633287","1152.40951799","31","green","1"
"95","74","22","683.969258794","1","1","2","180","2","right","3","out","Female","Right-handed","3","no","right","d","451.117522694","656.10679776","31","green","1"
"95","75","22","683.309435223","1","1","2","181","2","left","3","out","Female","Right-handed","3","no","left","s","978.764695468","304.716405044","31","red","2"
"93","75","22","683.278473475","0","1","2","182","1","right","1","in","Female","Right-handed","3","no","left","s","1071.36570997","291.228133196","31","green","2"
"93","74","22","685.953511545","1","0","2","183","2","left","2","in","Female","Right-handed","3","no","left","d","799.830851374","919.83112078","31","green","0"
"94","74","22","693.467903244","1","1","2","184","0","right","2","in","Female","Right-handed","3","no","right","d","802.478409016","1576.3571018","31","red","1"
"94","73","22","692.717594958","1","0","2","185","2","left","0","out","Female","Right-handed","3","no","left","s","812.929767082","471.964112527","31","red","2"
"94","73","22","696.709693295","1","1","2","186","2","left","2","out","Female","Right-handed","3","no","left","d","1223.70563136","712.639129073","31","red","3"
"94","74","22","707.594490569","1","1","2","187","3","right","0","in","Female","Right-handed","3","no","right","s","1365.14293925","1552.14806566","31","green","3"
"94","73","22","708.334291734","1","0","2","188","0","left","3","out","Female","Right-handed","3","no","left","s","704.625576658","815.615169879","31","red","0"
"94","73","22","712.852930177","1","1","2","189","1","right","1","out","Female","Right-handed","3","no","right","d","683.142995695","1384.20952364","31","green","3"
"94","73","22","714.358709227","1","1","2","190","2","left","0","out","Female","Right-handed","3","no","left","d","605.712438355","1039.83716318","31","red","3"
"94","74","22","721.999374575","1","1","2","191","3","right","0","out","Female","Right-handed","3","no","right","s","551.268646763","2008.26724328","31","green","3"
"94","74","22","725.85879436","1","1","2","192","2","left","3","out","Female","Right-handed","3","no","left","d","1151.00539839","871.906318476","31","green","1"
"94","75","22","730.615377842","1","1","2","193","1","left","3","out","Female","Right-handed","3","no","left","s","1366.36777542","808.350502633","31","green","0"
"94","74","22","739.451477839","1","0","2","194","1","right","0","out","Female","Right-handed","3","no","right","s","1773.92423527","1048.06591985","31","green","1"
"94","74","22","740.170406183","1","1","2","195","3","right","3","out","Female","Right-handed","3","no","right","s","655.539761792","935.516015557","31","green","0"
"94","74","22","742.923009757","1","1","2","196","0","right","3","out","Female","Right-handed","3","no","right","s","395.17339498","1520.07878208","31","red","0"
"95","75","22","740.552154079","1","1","2","197","1","right","3","in","Female","Right-handed","3","no","right","d","778.769057284","327.740053781","31","red","1"
"95","75","22","741.320368004","1","1","2","198","1","right","3","out","Female","Right-handed","3","no","right","d","589.26166016","1016.29330384","31","green","1"
"95","75","22","744.711334355","1","1","2","199","3","left","1","in","Female","Right-handed","3","no","left","d","862.796860009","1175.96235753","31","green","3"
"95","74","22","744.353253948","1","0","2","200","1","left","3","in","Female","Right-handed","3","no","left","d","534.477903559","895.503417611","31","red","0"
"95","75","22","752.088285811","1","1","2","201","0","right","3","in","Female","Right-handed","3","no","right","d","836.087477488","1952.10438337","31","green","1"
"95","75","22","757.07703373","1","1","2","202","3","left","3","out","Female","Right-handed","3","no","left","s","1440.676107","911.587610906","31","green","2"
"95","75","22","766.391409256","1","1","2","203","1","left","0","out","Female","Right-handed","3","no","left","d","2316.24121864","799.985439233","31","green","3"
"95","75","22","773.250623852","1","1","2","204","0","left","0","out","Female","Right-handed","3","no","left","d","1750.60969195","975.676466213","31","green","2"
"95","75","22","785.458973018","1","0","2","205","0","left","3","out","Female","Right-handed","3","no","left","s","2823.1056252","872.065075717","31","green","1"
"95","74","22","797.384770026","1","0","2","206","3","right","0","in","Female","Right-handed","3","no","right","None","693.622256546","3000.08755702","31","green","2"
"95","73","22","796.008374329","1","0","2","207","3","left","3","out","Female","Right-handed","3","no","left","s","650.941254047","696.077060445","31","green","0"
"95","72","22","801.647473717","1","0","2","208","2","left","3","in","Female","Right-handed","3","no","left","d","1418.58158903","1199.75124825","31","red","0"
"95","71","22","801.879527475","1","0","2","209","3","right","1","out","Female","Right-handed","3","no","right","s","534.077322154","1111.91551677","31","green","2"
"95","72","22","804.227080289","1","1","2","210","3","left","2","out","Female","Right-handed","3","no","left","s","1448.73712623","591.666752192","31","red","0"
"95","71","22","806.402392963","1","0","2","211","1","right","3","out","Female","Right-handed","3","no","right","s","1009.24031292","1008.17263038","31","red","0"
"94","71","22","817.902025327","0","1","2","212","1","right","3","out","Female","Right-handed","3","no","None","s","3000.17062395","797.564311117","31","red","0"
"94","71","22","819.202834653","1","1","2","213","0","right","3","in","Female","Right-handed","3","no","right","s","829.244879998","1056.31456128","31","red","2"
"100","100","22","450.864633633","1","1","3","214","2","right","3","in","Female","Right-handed","3","no","right","s","525.346636012","376.382631253","31","green","1"
"100","50","22","585.173420638","1","0","3","215","0","right","2","in","Female","Right-handed","3","no","right","s","750.003848661","688.960566626","31","red","3"
"100","33","22","546.821092027","1","0","3","216","1","right","0","out","Female","Right-handed","3","no","right","d","467.597486568","472.635383045","31","red","1"
"100","50","22","532.53032103","1","1","3","217","3","left","3","in","Female","Right-handed","3","no","left","d","427.204512682","552.111503392","31","red","1"
"100","60","22","558.870745306","1","1","3","218","0","left","1","out","Female","Right-handed","3","no","left","s","703.767966832","624.696917992","31","red","3"
"100","66","22","580.550671677","1","1","3","219","3","right","3","in","Female","Right-handed","3","no","right","d","801.513036695","576.387570367","31","red","2"
"100","71","22","580.546460296","1","1","3","220","0","right","1","out","Female","Right-handed","3","no","right","d","759.96161603","401.080767988","31","green","3"
"100","75","22","577.6949122","1","1","3","221","1","right","1","in","Female","Right-handed","3","no","right","s","530.755928219","584.712222833","31","red","3"
"100","77","22","631.048401466","1","1","3","222","3","left","3","in","Female","Right-handed","3","no","left","d","955.371575332","1160.38105587","31","green","2"
"100","80","22","621.028406962","1","1","3","223","1","right","2","in","Female","Right-handed","3","no","right","d","460.92839952","600.768513337","31","green","3"
"100","81","22","693.066883187","1","1","3","224","2","left","2","in","Female","Right-handed","3","no","left","s","2082.47903763","744.424253229","31","red","3"
"100","75","22","676.978417247","1","0","3","225","0","right","2","out","Female","Right-handed","3","no","right","s","608.03831213","391.972271685","31","green","1"
"100","76","22","676.991824853","1","1","3","226","3","left","1","out","Female","Right-handed","3","no","left","s","889.667244821","464.638187434","31","green","2"
"100","78","22","668.551338106","1","1","3","227","2","left","3","out","Female","Right-handed","3","no","left","s","765.228187076","352.421833708","31","green","2"
"100","80","22","667.59795696","1","1","3","228","0","left","0","in","Female","Right-handed","3","no","left","s","891.696451024","416.804790813","31","red","3"
"100","81","22","658.587991041","1","1","3","229","3","left","1","out","Female","Right-handed","3","no","left","s","534.426267364","512.450737147","31","red","3"
"100","82","22","655.734534196","1","1","3","230","1","left","3","out","Female","Right-handed","3","no","left","d","500.143362602","720.01508675","31","red","1"
"100","83","22","651.987483871","1","1","3","231","2","right","3","in","Female","Right-handed","3","no","right","s","511.804162197","664.771094507","31","red","1"
"100","84","22","666.48189158","1","1","3","232","1","right","2","in","Female","Right-handed","3","no","right","s","742.354315375","1112.40814531","31","red","0"
"100","85","22","685.401373587","1","1","3","233","3","left","3","in","Female","Right-handed","3","no","left","s","697.887855167","1391.85520827","31","red","0"
"100","85","22","691.452368063","1","1","3","234","1","right","3","out","Female","Right-handed","3","no","right","s","456.54188882","1168.40262633","31","green","1"
"100","86","22","711.913605563","1","1","3","235","2","left","3","in","Female","Right-handed","3","no","left","s","1355.04822372","928.150962423","31","red","0"
"100","82","22","729.897735515","1","0","3","236","3","left","2","in","Female","Right-handed","3","no","left","s","1834.54673044","416.550458503","31","red","3"
"95","83","22","774.004669601","0","1","3","237","0","right","3","in","Female","Right-handed","3","no","None","s","3000.07889754","576.849409616","31","red","1"
"96","80","22","763.450388202","1","0","3","238","3","right","3","out","Female","Right-handed","3","no","right","s","483.69579162","536.599477611","31","red","0"
"96","76","22","766.843631444","1","0","3","239","3","left","2","out","Female","Right-handed","3","no","left","s","471.149800127","1232.19962489","31","green","1"
"96","77","22","813.822579084","1","1","3","240","0","left","0","in","Female","Right-handed","3","no","left","d","1222.83968277","2847.71075265","31","green","2"
"96","78","22","805.376604938","1","1","3","241","2","right","0","in","Female","Right-handed","3","no","right","s","666.371495798","488.299110191","31","green","3"
"96","75","22","857.428056151","1","0","3","242","3","left","0","out","Female","Right-handed","3","no","left","None","1629.6347493","3000.10263094","31","red","3"
"96","73","22","856.273380612","1","0","3","243","3","right","3","out","Female","Right-handed","3","no","right","s","493.229244174","1152.34633582","31","red","0"
"93","70","22","917.358097822","0","0","3","244","2","left","0","in","Female","Right-handed","3","no","None","s","3000.15555003","2499.64367819","31","green","2"
"93","68","22","911.474526439","1","0","3","245","0","right","3","in","Female","Right-handed","3","no","right","s","634.110099909","824.05752721","31","green","0"
"93","66","22","959.204238534","1","0","3","246","3","left","2","out","Female","Right-handed","3","no","left","s","2020.49187163","2952.61817953","31","green","0"
"94","64","22","976.094050582","1","0","3","247","3","right","3","out","Female","Right-handed","3","no","right","d","1114.95692066","1951.95877572","31","red","2"
"94","62","22","984.088936861","1","0","3","248","3","right","3","out","Female","Right-handed","3","no","right","d","1239.44985965","1272.380281","31","green","1"
"94","61","22","1007.67181454","1","0","3","249","3","left","1","in","Female","Right-handed","3","no","left","None","666.067772345","3000.07729393","31","green","3"
"94","62","22","994.664209407","1","1","3","250","2","right","1","out","Female","Right-handed","3","no","right","s","644.394361967","408.386487608","31","green","3"
"94","63","22","990.489415745","1","1","3","251","2","right","3","out","Female","Right-handed","3","no","right","s","1080.00627331","592.037827199","31","green","1"
"94","61","22","1018.37475068","1","0","3","252","0","right","3","in","Female","Right-handed","3","no","right","s","2195.55075614","1960.48419997","31","red","1"
"92","62","22","1041.52938308","0","1","3","253","1","right","0","in","Female","Right-handed","3","no","None","s","3000.13342023","888.986673373","31","green","3"
"92","63","22","1034.0049955","1","1","3","254","1","right","1","out","Female","Right-handed","3","no","right","s","617.434495798","848.624488768","31","red","3"
"92","61","22","1043.16168415","1","0","3","255","1","left","3","out","Female","Right-handed","3","no","left","s","2365.12241306","472.049424498","31","red","2"
"90","60","22","1066.25779175","0","0","3","256","1","left","3","out","Female","Right-handed","3","no","None","s","3000.14496621","1072.44365561","31","green","1"
"90","61","22","1065.40995902","1","1","3","257","2","right","2","in","Female","Right-handed","3","no","right","d","809.924925463","1247.98137762","31","red","0"
"91","62","22","1061.81316379","1","1","3","258","2","right","3","in","Female","Right-handed","3","no","right","d","927.574304802","879.534042684","31","green","2"
"91","60","22","1055.02786068","1","0","3","259","1","right","2","in","Female","Right-handed","3","no","right","s","715.212920724","784.165520621","31","green","3"
"91","61","22","1075.68925345","1","1","3","260","3","left","0","in","Female","Right-handed","3","no","left","s","1068.60205108","2983.6245914","31","red","2"
"91","62","22","1070.01911648","1","1","3","261","0","right","3","in","Female","Right-handed","3","no","right","s","1095.05966707","511.985690682","31","green","0"
"91","61","22","1067.94267344","1","0","3","262","3","left","2","out","Female","Right-handed","3","no","left","s","968.80853171","967.738283398","31","red","3"
"90","62","22","1085.24755546","0","1","3","263","0","right","3","in","Female","Right-handed","3","no","None","s","3000.18088704","866.192661371","31","green","2"
"90","60","22","1098.2267184","1","0","3","264","1","left","3","in","Female","Right-handed","3","no","left","s","2686.68697049","807.682760056","31","red","0"
"90","61","22","1107.82995405","1","1","3","265","0","right","2","in","Female","Right-handed","3","no","right","d","2043.04790813","1152.1420361","31","green","3"
"88","60","22","1126.79117926","0","0","3","266","2","right","1","out","Female","Right-handed","3","no","None","d","3000.1581158","1225.39166534","31","red","0"
"88","59","22","1121.02783501","1","0","3","267","2","right","1","out","Female","Right-handed","3","no","right","s","663.058119902","968.083059222","31","red","2"
"89","58","22","1115.06519631","1","0","3","268","2","left","2","out","Female","Right-handed","3","no","left","s","626.5458786","959.61953426","31","green","3"
"89","58","22","1109.67640967","1","1","3","269","0","right","0","in","Female","Right-handed","3","no","right","d","466.249172539","1160.33711699","31","green","3"
"87","57","22","1124.91574022","0","0","3","270","0","right","3","in","Female","Right-handed","3","no","None","d","3000.08595342","956.550548304","31","green","0"
"87","58","22","1119.17772054","1","1","3","271","3","right","3","out","Female","Right-handed","3","no","right","s","744.136565867","840.084632044","31","green","1"
"88","59","22","1110.0605603","1","1","3","272","1","left","3","in","Female","Right-handed","3","no","left","d","530.647203563","631.883329144","31","green","0"
"88","60","22","1102.8338916","1","1","3","273","1","right","3","out","Female","Right-handed","3","no","right","d","857.442411212","495.478465462","31","red","1"
"88","60","22","1094.22941059","1","1","3","274","2","right","3","out","Female","Right-handed","3","no","right","d","571.964818111","583.956281785","31","green","0"
"88","61","22","1086.72768714","1","1","3","275","2","right","2","in","Female","Right-handed","3","no","right","s","722.532110656","535.713002827","31","red","1"
"88","60","22","1080.43352553","1","0","3","276","3","right","0","out","Female","Right-handed","3","no","right","d","637.196725558","743.194285507","31","green","3"
"89","60","22","1075.4551973","1","1","3","277","2","left","3","out","Female","Right-handed","3","no","left","s","787.880119358","735.760918648","31","green","2"
"89","61","22","1071.70140938","1","1","3","278","1","right","3","out","Female","Right-handed","3","no","right","d","543.392363233","1119.52560129","31","green","0"
"89","62","22","1066.10080085","1","1","3","279","2","left","3","out","Female","Right-handed","3","no","left","s","532.016364505","872.106128092","31","red","0"
"89","61","22","1064.69734575","1","0","3","280","1","left","1","in","Female","Right-handed","3","no","left","d","920.580326674","1023.55829181","31","green","2"
"89","61","22","1059.19001999","1","1","3","281","1","right","3","out","Female","Right-handed","3","no","right","d","508.139275324","872.259112344","31","green","0"
"89","62","22","1054.32946128","1","1","3","282","0","left","3","out","Female","Right-handed","3","no","left","s","791.896196497","655.726742545","31","green","2"
"90","61","22","1053.5732521","1","0","3","283","0","right","1","out","Female","Right-handed","3","no","right","s","411.408648197","1591.38098916","31","red","0"
"90","60","22","1051.37147646","1","0","3","284","1","left","1","out","Female","Right-handed","3","no","left","s","514.630041103","1279.86432189","31","green","0"
"90","59","22","1063.08568237","1","0","3","285","0","right","3","out","Female","Right-handed","3","no","right","None","789.511951374","3000.07665249","31","red","2"
"90","60","22","1063.00058507","1","1","3","286","3","left","3","out","Female","Right-handed","3","no","left","d","561.927511764","1551.81964664","31","red","0"
"90","59","22","1069.38446684","1","0","3","287","0","left","3","out","Female","Right-handed","3","no","left","d","703.441472138","2367.37420012","31","green","0"
"90","60","22","1064.40374415","1","1","3","288","1","left","0","in","Female","Right-handed","3","no","left","s","951.80675363","439.853776563","31","green","2"
"90","60","22","1060.72815186","1","1","3","289","3","left","3","in","Female","Right-handed","3","no","left","s","794.635801263","775.48165985","31","green","1"
"90","61","22","1055.05866925","1","1","3","290","1","left","3","out","Female","Right-handed","3","no","left","d","561.173815768","687.182164794","31","red","2"
"91","60","22","1064.36293256","1","0","3","291","2","left","0","out","Female","Right-handed","3","no","left","s","1633.84742884","1927.73498638","31","green","3"
"91","59","22","1060.50699678","1","0","3","292","3","left","3","out","Female","Right-handed","3","no","left","d","448.276890591","1071.21112212","31","red","2"
"91","60","22","1068.69731946","1","1","3","293","1","left","3","in","Female","Right-handed","3","no","left","s","1831.75901741","1599.70660379","31","green","2"
"91","60","22","1062.99513293","1","1","3","294","1","left","2","in","Female","Right-handed","3","no","left","d","510.36348032","703.276941906","31","red","1"
"91","60","22","1061.28121256","1","1","3","295","0","right","2","in","Female","Right-handed","3","no","right","s","932.892191322","912.015132933","31","red","0"
"91","61","22","1058.20577793","1","1","3","296","3","left","0","in","Female","Right-handed","3","no","left","d","540.472512868","1071.56776464","31","red","1"
"91","60","22","1053.78865071","1","0","3","297","0","left","3","out","Female","Right-handed","3","no","left","d","535.128327167","839.205854583","31","red","2"
"91","61","22","1049.26264006","1","1","3","298","0","right","1","out","Female","Right-handed","3","no","right","d","642.601206939","695.554284073","31","red","2"
"91","61","22","1043.29684783","1","1","3","299","0","left","3","in","Female","Right-handed","3","no","left","d","537.118726042","535.290291624","31","green","1"
"91","62","22","1041.55657618","1","1","3","300","1","right","3","in","Female","Right-handed","3","no","right","d","711.843739256","1071.94268832","31","red","2"
"92","61","22","1040.75427053","1","0","3","301","1","right","0","in","Female","Right-handed","3","no","right","d","726.495268711","1215.4120889","31","red","3"
"92","61","22","1038.24715832","1","1","3","302","2","right","3","out","Female","Right-handed","3","no","right","s","1324.09056155","311.152006692","31","red","2"
"92","62","22","1033.55032651","1","1","3","303","2","left","0","in","Female","Right-handed","3","no","left","d","431.424889546","799.639701243","31","green","1"
"92","61","22","1027.84251167","1","0","3","304","2","left","1","out","Female","Right-handed","3","no","left","s","517.18074079","511.097612292","31","green","3"
"92","61","22","1026.46707902","1","1","3","305","0","left","0","in","Female","Right-handed","3","no","left","d","930.804934498","871.800480312","31","red","1"
"92","62","22","1024.6497319","1","1","3","306","2","right","3","out","Female","Right-handed","3","no","right","s","707.433495147","1007.47409851","31","green","1"
"92","62","22","1019.45658539","1","1","3","307","0","left","3","in","Female","Right-handed","3","no","left","s","466.016328581","606.971591755","31","green","1"
"92","63","22","1016.91091425","1","1","3","308","2","left","3","in","Female","Right-handed","3","no","left","s","811.490368087","743.745285392","31","red","0"
"92","63","22","1014.77951078","1","1","3","309","3","left","1","out","Female","Right-handed","3","no","left","d","825.194164918","799.398197803","31","red","0"
"100","100","22","897.705011724","1","1","4","310","0","left","3","in","Female","Right-handed","3","no","left","d","1378.75757545","416.652448002","31","red","1"
"100","100","22","659.712431301","1","1","4","311","2","left","3","in","Female","Right-handed","3","no","left","d","419.058822925","424.380878831","31","green","1"
"100","100","22","641.973768386","1","1","4","312","3","right","1","in","Female","Right-handed","3","no","right","s","620.985847192","592.007037918","31","green","0"
"100","100","22","635.382563259","1","1","4","313","1","right","1","out","Female","Right-handed","3","no","right","s","630.632835233","600.585060525","31","green","3"
"100","100","22","633.542230068","1","1","4","314","2","left","2","in","Female","Right-handed","3","no","left","s","572.130310509","680.231484094","31","red","3"
"100","100","22","624.999545644","1","1","4","315","2","left","1","out","Female","Right-handed","3","no","left","d","708.702270196","455.869976857","31","red","0"
"100","100","22","628.423062713","1","1","4","316","3","right","3","in","Female","Right-handed","3","no","right","s","433.447681313","864.480648936","31","red","0"
"100","100","22","624.307361397","1","1","4","317","3","left","2","out","Female","Right-handed","3","no","left","s","647.015941151","543.978963226","31","red","0"
"100","88","22","640.893827148","1","0","4","318","2","left","3","in","Female","Right-handed","3","no","left","s","835.576888538","711.594217773","31","red","2"
"100","90","22","659.767563362","1","1","4","319","3","right","3","out","Female","Right-handed","3","no","right","s","1043.12744711","616.134931468","31","green","2"
"100","90","22","635.940925162","1","1","4","320","3","left","0","in","Female","Right-handed","3","no","left","s","467.69594813","327.6531382","31","red","1"
"100","91","22","640.271083604","1","1","4","321","3","left","0","out","Female","Right-handed","3","no","left","d","583.380586333","792.425066582","31","red","3"
"100","92","22","642.48471095","1","1","4","322","1","right","3","out","Female","Right-handed","3","no","right","d","633.898102868","704.198375351","31","red","1"
"100","92","22","640.924828973","1","1","4","323","0","left","3","in","Female","Right-handed","3","no","left","d","809.699137386","431.593589157","31","red","0"
"100","93","22","627.58031299","1","1","4","324","1","left","3","in","Female","Right-handed","3","no","left","s","513.294235221","368.219943244","31","green","0"
"100","93","22","621.755569252","1","1","4","325","2","right","1","in","Female","Right-handed","3","no","right","d","588.84728772","479.921538641","31","green","3"
"100","94","22","617.037291407","1","1","4","326","0","left","3","out","Female","Right-handed","3","no","left","d","563.626374613","519.463317138","31","green","2"
"100","94","22","611.496351328","1","1","4","327","3","left","0","in","Female","Right-handed","3","no","left","d","490.253267511","544.347472456","31","red","3"
"100","94","22","607.748523195","1","1","4","328","2","left","1","in","Female","Right-handed","3","no","left","s","544.751581801","535.823651812","31","green","2"
"100","95","22","608.134881436","1","1","4","329","1","left","2","in","Female","Right-handed","3","no","left","s","703.480920907","527.470455119","31","green","3"
"100","95","22","605.630807048","1","1","4","330","3","right","3","in","Female","Right-handed","3","no","right","s","534.9987556","576.099882998","31","green","0"
"100","90","22","602.065526476","1","0","4","331","2","left","0","in","Female","Right-handed","3","no","left","s","670.584175336","383.805093573","31","green","3"
"100","91","22","603.182850525","1","1","4","332","3","right","3","in","Female","Right-handed","3","no","right","d","567.245077564","688.282881671","31","green","1"
"100","91","22","599.833896895","1","1","4","333","1","left","0","in","Female","Right-handed","3","no","left","s","373.82680002","671.789126765","31","green","1"
"100","92","22","607.542643157","1","1","4","334","3","left","3","out","Female","Right-handed","3","no","left","d","825.529319096","759.575787819","31","red","2"
"100","92","22","601.371963555","1","1","4","335","1","right","1","out","Female","Right-handed","3","no","right","d","469.927850445","424.282096545","31","green","0"
"100","88","22","601.145408852","1","0","4","336","2","right","2","out","Female","Right-handed","3","no","right","s","614.804577854","575.705395309","31","red","1"
"100","89","22","598.244416373","1","1","4","337","0","right","3","in","Female","Right-handed","3","no","right","s","464.356914505","575.478324343","31","green","2"
"100","89","22","591.562230096","1","1","4","338","0","right","3","in","Female","Right-handed","3","no","right","s","488.96107978","319.960948924","31","green","0"
"100","90","22","596.428314851","1","1","4","339","2","left","3","out","Female","Right-handed","3","no","left","d","835.429998002","639.659547498","31","green","2"
"100","90","22","590.631059054","1","1","4","340","3","left","3","in","Female","Right-handed","3","no","left","s","482.054979398","351.371790857","31","green","1"
"100","90","22","590.951227089","1","1","4","341","2","right","3","out","Female","Right-handed","3","no","right","d","537.891665339","663.861207042","31","red","1"
"100","90","22","588.270508617","1","1","4","342","3","right","3","in","Female","Right-handed","3","no","right","d","485.42929241","519.545742612","31","red","1"
"100","88","22","590.234663767","1","0","4","343","2","left","3","out","Female","Right-handed","3","no","left","s","997.968548745","312.135018703","31","red","2"
"100","88","22","593.445076134","1","1","4","344","1","left","2","in","Female","Right-handed","3","no","left","s","541.490162824","863.708030359","31","red","3"
"100","88","22","592.509631094","1","1","4","345","1","left","2","out","Female","Right-handed","3","no","left","d","688.285447446","431.25266199","31","green","0"
"100","89","22","592.80259243","1","1","4","346","0","right","3","in","Female","Right-handed","3","no","right","s","542.93790058","663.760500425","31","green","0"
"100","89","22","595.547607153","1","1","4","347","0","right","1","out","Female","Right-handed","3","no","right","d","898.727632866","495.498670927","31","green","2"
"100","89","22","594.000162927","1","1","4","348","0","right","3","out","Female","Right-handed","3","no","right","d","599.205636492","471.188928175","31","red","1"
"100","90","22","592.858778538","1","1","4","349","0","right","3","in","Female","Right-handed","3","no","right","d","512.861260926","583.828313826","31","red","1"
"100","90","22","591.895477611","1","1","4","350","3","left","0","out","Female","Right-handed","3","no","left","s","627.383282958","479.343598137","31","red","2"
"100","90","22","593.172017496","1","1","4","351","2","left","3","in","Female","Right-handed","3","no","left","s","578.972266554","712.048038979","31","red","2"
"100","90","22","590.845510714","1","1","4","352","0","right","2","out","Female","Right-handed","3","no","right","d","570.483083855","415.781367865","31","red","3"
"100","90","22","594.024978768","1","1","4","353","2","right","3","out","Female","Right-handed","3","no","right","s","726.12675948","735.357450747","31","red","1"
"100","88","22","596.732376841","1","0","4","354","2","right","2","in","Female","Right-handed","3","no","right","d","623.855664969","807.860119155","31","red","3"
"100","89","22","594.161576581","1","1","4","355","1","left","3","out","Female","Right-handed","3","no","left","d","541.412868893","415.538260819","31","green","1"
"100","87","22","600.234924551","1","0","4","356","0","right","2","out","Female","Right-handed","3","no","right","d","511.173623334","1248.04423907","31","red","1"
"100","87","22","595.984073869","1","1","4","357","1","left","2","in","Female","Right-handed","3","no","left","s","368.716741159","423.671442426","31","green","1"
"100","87","22","594.969920624","1","1","4","358","2","left","2","in","Female","Right-handed","3","no","left","d","621.310096831","471.271032929","31","green","0"
"100","88","22","593.570408676","1","1","4","359","1","right","0","in","Female","Right-handed","3","no","right","s","521.987076197","528.001570255","31","green","3"
"100","86","22","594.736863818","1","0","4","360","2","right","0","out","Female","Right-handed","3","no","right","d","538.608157622","767.511084141","31","green","3"
"100","84","22","597.936392696","1","0","4","361","2","right","0","out","Female","Right-handed","3","no","right","s","1027.12503785","495.099693133","31","red","2"
"100","83","22","596.432543536","1","0","4","362","0","right","0","out","Female","Right-handed","3","no","right","d","556.690767833","479.774006661","31","red","1"
"100","83","22","596.625142353","1","1","4","363","1","left","0","in","Female","Right-handed","3","no","left","s","502.324911609","711.340847629","31","red","3"
"100","81","22","595.404402074","1","0","4","364","2","right","3","out","Female","Right-handed","3","no","right","d","427.926457229","631.042396843","31","red","0"
"100","82","22","595.254992308","1","1","4","365","3","right","2","in","Female","Right-handed","3","no","right","s","526.520798161","647.554112166","31","red","3"
"100","82","22","593.272445387","1","1","4","366","1","left","3","out","Female","Right-handed","3","no","left","d","509.231332715","455.268302947","31","red","0"
"100","82","22","596.764507503","1","1","4","367","0","left","0","out","Female","Right-handed","3","no","left","d","559.786373691","1031.83772252","31","green","3"
"100","83","22","594.884433425","1","1","4","368","1","right","3","in","Female","Right-handed","3","no","right","d","532.351839403","439.328434419","31","red","0"
"100","83","22","597.959950733","1","1","4","369","1","right","1","out","Female","Right-handed","3","no","right","s","559.949300314","998.88164343","31","green","2"
"100","83","22","596.462046362","1","1","4","370","1","left","0","out","Female","Right-handed","3","no","left","s","629.491065974","383.684502212","31","green","2"
"98","83","22","595.24030839","0","1","4","371","2","left","3","out","Female","Right-handed","3","no","right","s","479.281698852","562.146885408","31","green","0"
"98","84","22","596.971160766","1","1","4","372","2","left","1","out","Female","Right-handed","3","no","left","d","457.878977591","950.689038502","31","green","3"
"98","84","22","597.151824922","1","1","4","373","3","right","3","in","Female","Right-handed","3","no","right","s","841.568932076","375.498401525","31","red","2"
"98","84","22","596.881440338","1","1","4","374","2","right","0","out","Female","Right-handed","3","no","right","d","528.176042859","630.977611061","31","green","1"
"98","83","22","594.773019615","1","0","4","375","0","right","2","out","Female","Right-handed","3","no","right","s","547.770214449","367.681130789","31","green","0"
"98","82","22","595.818295953","1","0","4","376","3","left","3","out","Female","Right-handed","3","no","left","s","562.336431933","767.27663658","31","green","0"
"98","82","22","596.107111125","1","1","4","377","1","right","3","in","Female","Right-handed","3","no","right","d","807.990011442","422.925443752","31","green","2"
"98","81","22","599.867396916","1","0","4","378","2","right","3","out","Female","Right-handed","3","no","right","d","759.639932159","951.493729248","31","green","1"
"98","81","22","600.44141844","1","1","4","379","3","right","1","in","Female","Right-handed","3","no","right","d","873.219032394","406.878774894","31","red","2"
"98","81","22","598.523127161","1","1","4","380","0","right","1","out","Female","Right-handed","3","no","right","d","473.731930542","454.753544618","31","red","0"
"98","80","22","596.194220082","1","0","4","381","0","left","3","in","Female","Right-handed","3","no","left","s","478.288744464","383.394890519","31","red","0"
"98","79","22","598.375309975","1","0","4","382","0","left","1","out","Female","Right-handed","3","no","left","d","1007.859606","502.967958618","31","red","3"
"98","78","22","600.728277935","1","0","4","383","3","left","1","out","Female","Right-handed","3","no","left","s","537.507120025","1007.482758","31","green","3"
"98","78","22","601.059450685","1","1","4","384","0","left","0","out","Female","Right-handed","3","no","left","s","748.122815887","503.009652443","31","red","2"
"98","78","22","604.404400221","1","1","4","385","3","left","3","in","Female","Right-handed","3","no","left","s","743.75266199","966.79856881","31","green","2"
"98","77","22","605.175691848","1","0","4","386","1","right","3","in","Female","Right-handed","3","no","right","d","616.270917468","711.316793502","31","green","1"
"98","78","22","602.664988042","1","1","4","387","0","left","3","out","Female","Right-handed","3","no","left","s","451.80515002","366.876440043","31","green","1"
"98","78","22","602.784634907","1","1","4","388","3","right","3","out","Female","Right-handed","3","no","right","s","553.649363945","670.58481678","31","red","1"
"98","78","22","604.445882302","1","1","4","389","0","left","3","in","Female","Right-handed","3","no","left","d","712.163178072","759.205674978","31","green","2"
"98","77","22","606.574599662","1","0","4","390","3","left","3","in","Female","Right-handed","3","no","left","s","698.872791509","854.871185336","31","green","0"
"98","78","22","607.864301053","1","1","4","391","1","right","3","out","Female","Right-handed","3","no","right","d","897.294969032","527.3652584","31","green","2"
"98","77","22","609.25704107","1","0","4","392","1","right","1","out","Female","Right-handed","3","no","right","d","608.00784357","838.915601442","31","green","3"
"98","76","22","610.606281154","1","0","4","393","2","right","3","in","Female","Right-handed","3","no","right","s","478.626143697","966.560272587","31","red","0"
"98","76","22","608.821765442","1","1","4","394","3","right","2","in","Female","Right-handed","3","no","right","s","526.983278851","390.861612432","31","red","3"
"98","76","22","609.047802331","1","1","4","395","3","left","2","in","Female","Right-handed","3","no","left","s","473.746042295","782.775833494","31","red","1"
"98","77","22","613.148833641","1","1","4","396","1","right","3","in","Female","Right-handed","3","no","right","d","540.418952344","1391.25610013","31","red","2"
"98","77","22","615.930358402","1","1","4","397","0","right","2","out","Female","Right-handed","3","no","right","s","604.96259102","1110.88343434","31","green","3"
"98","76","22","618.30667324","1","0","4","398","3","right","1","in","Female","Right-handed","3","no","right","s","496.367506013","1158.47725185","31","green","3"
"98","75","22","620.24858462","1","0","4","399","1","left","3","out","Female","Right-handed","3","no","left","s","475.125145608","1111.03224921","31","red","2"
"98","75","22","621.867158707","1","1","4","400","0","left","1","out","Female","Right-handed","3","no","left","d","584.509205993","950.568447141","31","green","3"
"98","76","22","621.795177946","1","1","4","401","2","left","3","out","Female","Right-handed","3","no","left","s","575.24195245","655.247905044","31","red","0"
"98","76","22","620.720939689","1","1","4","402","1","left","3","out","Female","Right-handed","3","no","left","s","516.75867103","527.023369068","31","red","0"
"98","76","22","618.798593432","1","1","4","403","0","right","0","in","Female","Right-handed","3","no","right","s","593.511864136","286.528918834","31","green","3"
"98","76","22","620.044712994","1","1","4","404","1","right","3","in","Female","Right-handed","3","no","right","d","723.125766523","751.234137104","31","red","1"
"98","77","22","620.604590941","1","1","4","405","0","left","3","in","Female","Right-handed","3","no","left","s","796.752564489","550.833427413","31","red","2"
"100","100","22","471.096399962","1","1","5","406","1","right","3","out","Female","Right-handed","3","no","right","d","502.108745182","440.084054742","31","red","2"
"100","100","22","436.40818315","1","1","5","407","0","right","3","out","Female","Right-handed","3","no","right","s","523.798191644","279.641741032","31","red","2"
"100","66","22","893.527665026","1","0","5","408","3","right","3","out","Female","Right-handed","3","no","right","None","615.445059091","3000.08819847","31","green","0"
"100","75","22","872.838015016","1","1","5","409","3","left","0","out","Female","Right-handed","3","no","left","d","437.748559321","1183.78957064","31","red","3"
"100","80","22","818.449098901","1","1","5","410","2","left","3","out","Female","Right-handed","3","no","left","s","490.470075383","711.316793502","31","green","0"
"100","83","22","776.463175162","1","1","5","411","2","right","3","out","Female","Right-handed","3","no","right","s","436.946755064","696.120357872","31","red","0"
"100","85","22","756.141179127","1","1","5","412","3","left","3","out","Female","Right-handed","3","no","left","d","476.65338451","791.76502132","31","red","0"
"100","75","22","753.285012066","1","0","5","413","2","left","1","in","Female","Right-handed","3","no","left","d","707.280831619","759.302853654","31","green","3"
"100","77","22","734.960468556","1","1","5","414","1","left","2","out","Female","Right-handed","3","no","left","d","408.829724998","767.898515958","31","red","0"
"100","80","22","739.757383655","1","1","5","415","1","left","3","in","Female","Right-handed","3","no","left","d","670.298412301","895.560826793","31","green","1"
"100","81","22","714.062346199","1","1","5","416","0","left","0","out","Female","Right-handed","3","no","left","d","443.097876567","471.126066721","31","red","1"
"100","83","22","695.916285329","1","1","5","417","0","right","3","out","Female","Right-handed","3","no","right","s","560.791515498","431.827716002","31","green","0"
"100","84","22","676.411626961","1","1","5","418","1","left","1","out","Female","Right-handed","3","no","left","s","413.302509842","471.40894326","31","green","2"
"100","85","22","655.377785881","1","1","5","419","1","right","0","out","Female","Right-handed","3","no","right","s","460.920702204","302.955001462","31","green","3"
"100","86","22","638.661440186","1","1","5","420","3","left","3","in","Female","Right-handed","3","no","left","s","489.681420721","319.583780205","31","red","1"
"100","87","22","630.013050567","1","1","5","421","1","right","2","in","Female","Right-handed","3","no","right","d","505.245403419","495.329009151","31","green","3"
"100","82","22","628.834803346","1","0","5","422","3","right","1","in","Female","Right-handed","3","no","right","d","563.951586417","656.014109187","31","red","3"
"100","83","22","611.313201419","1","1","5","423","2","right","1","out","Female","Right-handed","3","no","right","s","347.295738764","279.59619855","31","green","3"
"100","78","22","612.303885432","1","0","5","424","3","left","3","in","Female","Right-handed","3","no","left","s","733.079043788","527.193351569","31","green","0"
"100","80","22","599.645137474","1","1","5","425","3","right","1","in","Female","Right-handed","3","no","right","s","406.618990317","311.638862233","31","green","0"
"100","76","22","624.415538154","1","0","5","426","1","left","3","in","Female","Right-handed","3","no","left","d","1376.36980238","863.277301116","31","red","2"
"100","77","22","622.098503664","1","1","5","427","0","right","3","in","Female","Right-handed","3","no","right","s","563.947417038","582.934141723","31","green","2"
"100","78","22","624.770460873","1","1","5","428","0","left","1","out","Female","Right-handed","3","no","left","s","847.585991902","519.521047041","31","red","0"
"100","75","22","626.559709721","1","0","5","429","2","right","3","out","Female","Right-handed","3","no","right","d","536.276831575","799.148034872","31","red","2"
"100","72","22","622.529371694","1","0","5","430","3","left","3","out","Female","Right-handed","3","no","left","s","523.829943093","527.772574958","31","green","1"
"100","73","22","614.910298828","1","1","5","431","3","right","3","in","Female","Right-handed","3","no","right","d","481.45587126","367.411083116","31","green","0"
"100","74","22","619.878222921","1","1","5","432","1","right","1","out","Female","Right-handed","3","no","right","s","643.137453622","854.95104504","31","red","3"
"100","75","22","622.278052107","1","1","5","433","1","left","3","in","Female","Right-handed","3","no","left","d","814.568975689","559.577904583","31","red","1"
"100","75","22","633.672580215","1","1","5","434","3","left","3","in","Female","Right-handed","3","no","left","s","714.141389523","1191.29734494","31","red","2"
"100","76","22","626.943664378","1","1","5","435","3","right","2","out","Female","Right-handed","3","no","right","d","487.819310525","375.790899714","31","red","3"
"100","77","22","626.022031429","1","1","5","436","1","right","1","in","Female","Right-handed","3","no","right","d","445.351587958","751.394497955","31","red","0"
"100","78","22","623.785512111","1","1","5","437","0","right","3","out","Female","Right-handed","3","no","right","d","726.003602344","382.903224152","31","red","1"
"100","78","22","622.449042764","1","1","5","438","3","left","0","in","Female","Right-handed","3","no","left","s","560.694336826","598.669710529","31","green","3"
"100","76","22","623.311197436","1","0","5","439","0","right","1","out","Female","Right-handed","3","no","right","s","872.256546569","431.268056632","31","green","2"
"100","74","22","624.482666733","1","0","5","440","2","left","0","out","Female","Right-handed","3","no","left","s","689.834212539","638.791033136","31","green","1"
"100","72","22","618.84394295","1","0","5","441","2","right","2","in","Female","Right-handed","3","no","right","d","403.403113822","439.57410724","31","green","3"
"100","72","22","623.107057181","1","1","5","442","0","right","0","out","Female","Right-handed","3","no","right","s","642.071695413","911.086643609","31","green","2"
"100","73","22","621.439081816","1","1","5","443","3","right","3","in","Female","Right-handed","3","no","right","d","672.696769179","446.75121746","31","red","1"
"100","74","22","621.717943817","1","1","5","444","3","right","0","out","Female","Right-handed","3","no","right","d","577.228181945","687.401217714","31","red","1"
"100","75","22","617.096519272","1","1","5","445","0","right","3","out","Female","Right-handed","3","no","right","d","442.753100739","430.968823283","31","green","1"
"100","75","22","615.605697638","1","1","5","446","2","left","2","out","Female","Right-handed","3","no","left","s","561.372983942","550.57268067","31","red","3"
"100","76","22","614.44078781","1","1","5","447","1","left","0","in","Female","Right-handed","3","no","left","s","494.161261435","639.197708249","31","red","3"
"100","76","22","612.785895799","1","1","5","448","2","left","3","out","Female","Right-handed","3","no","left","d","463.781539773","622.779322945","31","red","1"
"100","77","22","612.007983026","1","1","5","449","2","right","3","in","Female","Right-handed","3","no","right","d","517.496330944","639.619136568","31","red","0"
"100","77","22","612.24117046","1","1","5","450","2","left","0","in","Female","Right-handed","3","no","left","d","694.131562606","550.871272571","31","red","3"
"100","78","22","611.218539711","1","1","5","451","3","left","2","in","Female","Right-handed","3","no","left","d","683.598099789","446.802212209","31","red","0"
"97","78","22","608.3260575","0","1","5","452","2","right","3","in","Female","Right-handed","3","no","left","d","476.292251878","474.251499694","31","red","0"
"97","79","22","609.826546087","1","1","5","453","0","left","1","out","Female","Right-handed","3","no","left","d","617.816475347","742.882544015","31","red","3"
"97","79","22","608.627013177","1","1","5","454","0","right","0","in","Female","Right-handed","3","no","right","s","614.586487096","487.512379856","31","green","3"
"98","80","22","605.495126955","1","1","5","455","0","left","2","in","Female","Right-handed","3","no","left","s","593.04810056","311.017303579","31","red","3"
"98","80","22","602.323142609","1","1","5","456","0","right","3","out","Female","Right-handed","3","no","right","d","480.761188057","406.686662594","31","green","0"
"98","80","22","602.353328785","1","1","5","457","2","left","3","in","Female","Right-handed","3","no","left","d","768.445346457","439.34030112","31","green","2"
"98","81","22","602.147783065","1","1","5","458","1","left","3","in","Female","Right-handed","3","no","left","d","639.952366415","542.966444813","31","green","2"
"96","81","22","598.323155884","0","1","5","459","1","right","3","in","Female","Right-handed","3","no","left","d","301.575256704","489.66057381","31","red","0"
"96","81","22","596.513886317","1","1","5","460","3","left","3","out","Female","Right-handed","3","no","left","d","518.241367452","479.385291957","31","green","1"
"96","82","22","599.251284926","1","1","5","461","2","right","3","in","Female","Right-handed","3","no","right","d","908.717472405","590.89894444","31","green","2"
"96","80","22","596.64198415","1","0","5","462","3","right","1","in","Female","Right-handed","3","no","right","s","582.530994543","318.511286838","31","red","3"
"96","81","22","598.546243734","1","1","5","463","3","right","0","in","Female","Right-handed","3","no","right","d","839.037796409","575.140283672","31","green","2"
"96","81","22","597.328264836","1","1","5","464","0","left","3","out","Female","Right-handed","3","no","left","s","742.653228001","310.717749511","31","green","2"
"96","81","22","596.003457487","1","1","5","465","0","right","2","in","Female","Right-handed","3","no","right","s","508.304446998","527.375200775","31","green","1"
"96","81","22","593.773218148","1","1","5","466","0","right","1","in","Female","Right-handed","3","no","right","s","512.943686401","406.97402924","31","red","3"
"96","82","22","591.665921937","1","1","5","467","3","left","1","out","Female","Right-handed","3","no","left","s","463.718036874","462.523669263","31","green","2"
"96","82","22","588.588936209","1","1","5","468","2","left","2","in","Female","Right-handed","3","no","left","d","468.328411323","327.303230821","31","green","1"
"96","82","22","584.898502005","1","1","5","469","1","left","2","out","Female","Right-handed","3","no","left","s","353.941733847","350.860560466","31","red","1"
"96","81","22","583.864696001","1","0","5","470","2","left","2","in","Female","Right-handed","3","no","left","s","652.648776384","382.753447117","31","red","0"
"96","81","22","581.968431674","1","1","5","471","0","right","3","in","Female","Right-handed","3","no","right","s","518.201277242","399.221223564","31","red","1"
"97","82","22","581.211875764","1","1","5","472","1","right","0","out","Female","Right-handed","3","no","right","s","407.80982999","654.748541358","31","red","2"
"97","82","22","580.672171748","1","1","5","473","3","left","3","out","Female","Right-handed","3","no","left","d","506.419886286","582.604119096","31","green","2"
"97","82","22","580.663164813","1","1","5","474","1","left","3","in","Female","Right-handed","3","no","left","s","768.99891211","391.102474434","31","green","0"
"97","81","22","577.983740418","1","0","5","475","2","right","1","out","Female","Right-handed","3","no","right","d","435.473038848","350.733875395","31","red","0"
"97","81","22","578.05881727","1","1","5","476","0","left","3","in","Female","Right-handed","3","no","left","d","720.224197299","446.40419658","31","red","2"
"97","80","22","579.049729753","1","0","5","477","2","left","0","out","Female","Right-handed","3","no","left","s","555.861060795","742.947971245","31","green","2"
"97","80","22","583.856985466","1","1","5","478","1","right","3","in","Female","Right-handed","3","no","right","s","973.511594734","886.447198944","31","red","0"
"97","81","22","582.561931187","1","1","5","479","0","left","2","out","Female","Right-handed","3","no","left","d","569.0545894","406.991348213","31","red","3"
"97","81","22","583.171488611","1","1","5","480","2","right","3","in","Female","Right-handed","3","no","right","s","673.699665939","582.857809957","31","red","1"
"97","80","22","585.989999188","1","0","5","481","0","left","2","out","Female","Right-handed","3","no","left","d","516.38695458","1078.36963048","31","green","0"
"97","79","22","588.093298076","1","0","5","482","1","right","3","in","Female","Right-handed","3","no","right","s","488.974229371","1006.9137977","31","red","1"
"97","79","22","590.29026605","1","1","5","483","2","left","3","out","Female","Right-handed","3","no","left","s","744.369089098","774.544511041","31","red","2"
"97","78","22","589.849504468","1","0","5","484","0","left","3","in","Female","Right-handed","3","no","left","s","631.856709242","479.083492839","31","green","1"
"97","77","22","587.998329361","1","0","5","485","2","right","3","out","Female","Right-handed","3","no","right","d","428.668286524","454.84270525","31","green","1"
"97","77","22","586.068543026","1","1","5","486","3","right","3","in","Female","Right-handed","3","no","right","d","529.295682318","334.075590257","31","green","2"
"97","78","22","588.659759396","1","1","5","487","1","left","0","in","Female","Right-handed","3","no","left","s","397.981634193","1199.1149364","31","green","1"
"97","78","22","588.574276271","1","1","5","488","2","left","1","out","Female","Right-handed","3","no","left","d","476.541773358","686.587546759","31","green","2"
"97","78","22","587.652981197","1","1","5","489","3","right","2","out","Female","Right-handed","3","no","right","s","720.130867285","302.240112789","31","red","1"
"97","78","22","585.842317817","1","1","5","490","1","right","3","out","Female","Right-handed","3","no","right","s","420.677826071","446.8153618","31","green","1"
"97","79","22","585.574898944","1","1","5","491","1","left","3","out","Female","Right-handed","3","no","left","d","719.360814477","406.327775014","31","green","0"
"97","79","22","586.263642174","1","1","5","492","1","right","1","out","Female","Right-handed","3","no","right","s","652.990665712","638.000454142","31","green","3"
"97","79","22","584.37108428","1","1","5","493","0","left","0","in","Female","Right-handed","3","no","left","s","496.803366808","342.633728123","31","red","3"
"97","79","22","583.4309018","1","1","5","494","3","left","3","out","Female","Right-handed","3","no","left","s","555.175357797","446.214329331","31","red","2"
"97","80","22","585.008972368","1","1","5","495","1","right","3","in","Female","Right-handed","3","no","right","s","893.021673091","557.892832767","31","green","2"
"97","79","22","584.845021001","1","0","5","496","0","left","3","in","Female","Right-handed","3","no","left","s","597.647249749","542.531546187","31","green","0"
"97","78","22","583.244335385","1","0","5","497","0","right","3","out","Female","Right-handed","3","no","right","d","469.067674847","406.096213945","31","green","0"
"97","78","22","583.915474258","1","1","5","498","2","left","0","in","Female","Right-handed","3","no","left","s","900.593912444","390.726588601","31","red","3"
"97","78","22","582.46874724","1","1","5","499","3","left","2","in","Female","Right-handed","3","no","left","d","449.445279748","446.40098936","31","green","3"
"97","78","22","584.989469863","1","1","5","500","2","right","3","out","Female","Right-handed","3","no","right","d","1046.00720726","597.867585558","31","red","1"
"97","79","22","583.835576835","1","1","5","501","1","right","2","in","Female","Right-handed","3","no","right","d","533.676099308","414.755379145","31","green","3"
dis_reply=No
dis_loc=2
