"acc_1","acc_2","age","avg_rt","correct_1","correct_2","count_block_loop","count_trial_sequence","cue_position","detection","dis_position","dis_shape","gender","hand","high_loc","practice","response_keyboard_response_1","response_keyboard_response_2","response_time_keyboard_response_1","response_time_keyboard_response_2","subject_nr","tar_color","tar_position"
"0","0","26","3000.16613121","0","0","0","0","1","left","2","out","Male","Right-handed","3","yes","None","None","3000.13181454","3000.20044789","3","green","0"
"0","0","26","3000.13101275","0","0","0","1","0","left","2","in","Male","Right-handed","3","yes","None","None","3000.10872295","3000.08306562","3","green","3"
"33","0","26","2549.81055801","1","0","0","2","1","left","3","out","Male","Right-handed","3","yes","left","s","1688.73774583","1609.60155126","3","green","0"
"50","25","26","2302.15454245","1","1","0","3","1","right","3","out","Male","Right-handed","3","yes","right","s","1717.14554474","1401.2274468","3","green","1"
"40","40","26","2242.08960374","0","1","0","4","0","right","3","in","Male","Right-handed","3","yes","None","s","3000.12283446","1003.53686334","3","red","1"
"50","50","26","2066.43768566","1","1","0","5","0","right","3","out","Male","Right-handed","3","yes","right","s","1463.08246558","913.27372496","3","red","2"
"57","57","26","1907.76067426","1","1","0","6","0","left","2","out","Male","Right-handed","3","yes","left","s","1213.71756474","697.679647012","3","green","1"
"62","62","26","1917.32267255","1","1","0","7","2","right","3","out","Male","Right-handed","3","yes","right","s","1399.26883017","2569.24449097","3","red","1"
"66","66","26","1803.52854608","1","1","0","8","3","left","3","in","Male","Right-handed","3","yes","left","d","976.729761256","809.621307388","3","green","1"
"70","60","26","1724.1977834","1","0","0","9","3","right","1","in","Male","Right-handed","3","yes","right","d","1243.24819268","777.193645859","3","red","2"
"72","54","26","1683.98191135","1","0","0","10","0","left","1","out","Male","Right-handed","3","yes","left","d","1185.89218726","1377.7541944","3","red","3"
"75","50","26","1639.04911359","1","0","0","11","1","right","0","out","Male","Right-handed","3","yes","right","d","1240.2552648","1049.32141167","3","red","2"
"76","46","26","1678.09084083","1","0","0","12","1","left","3","out","Male","Right-handed","3","yes","left","None","1292.94580501","3000.23733033","3","red","1"
"78","50","26","1667.16849661","1","1","0","13","2","left","0","in","Male","Right-handed","3","yes","left","d","1921.0713091","1129.28473452","3","red","3"
"80","46","26","1638.46655316","1","0","0","14","2","left","1","out","Male","Right-handed","3","yes","left","s","1423.64842782","1049.63026178","3","red","3"
"81","50","26","1590.89548141","1","1","0","15","1","left","3","in","Male","Right-handed","3","yes","left","d","984.195724392","770.463085995","3","red","0"
"82","52","26","1563.30614845","1","1","0","16","0","right","0","in","Male","Right-handed","3","yes","right","d","1457.83650313","785.917139001","3","red","2"
"83","55","26","1579.1358115","1","1","0","17","0","left","0","out","Male","Right-handed","3","yes","left","s","999.222582817","2697.25758393","3","green","3"
"84","57","26","1549.27777731","1","1","0","18","3","right","2","out","Male","Right-handed","3","yes","right","d","1190.75681755","832.90950628","3","green","1"
"85","60","26","1526.58568732","1","1","0","19","3","right","0","out","Male","Right-handed","3","yes","right","d","1421.43804862","769.433906215","3","red","1"
"85","61","26","1498.91437411","1","1","0","20","2","left","1","out","Male","Right-handed","3","yes","left","s","1002.01570423","888.960515615","3","green","0"
"86","63","26","1465.14949901","1","1","0","21","3","right","0","out","Male","Right-handed","3","yes","right","d","774.606103805","737.568140263","3","green","3"
"100","100","26","1221.15113548","1","1","1","22","3","left","3","out","Male","Right-handed","3","no","left","d","1809.12612085","633.176150121","3","green","0"
"100","100","26","1149.70861288","1","1","1","23","1","right","0","out","Male","Right-handed","3","no","right","d","986.830732494","1169.70144806","3","red","3"
"100","100","26","1037.19698557","1","1","1","24","2","right","0","out","Male","Right-handed","3","no","right","s","679.240363359","945.107098523","3","green","3"
"100","100","26","998.226116157","1","1","1","25","2","left","1","out","Male","Right-handed","3","no","left","d","1088.72690561","673.90011024","3","red","0"
"100","100","26","977.981678743","1","1","1","26","0","right","3","in","Male","Right-handed","3","no","right","d","1104.50199596","689.505862218","3","red","0"
"100","100","26","968.302930999","1","1","1","27","2","left","1","in","Male","Right-handed","3","no","left","d","926.902579435","912.915805122","3","red","3"
"100","100","26","1010.96232455","1","1","1","28","3","right","3","in","Male","Right-handed","3","no","right","s","1532.41916257","1001.41820908","3","red","1"
"100","100","26","1098.15216691","1","1","1","29","3","right","3","out","Male","Right-handed","3","no","right","s","736.011702305","2680.9504246","3","green","2"
"100","100","26","1048.58110852","1","1","1","30","0","left","3","out","Male","Right-handed","3","no","left","s","694.509362831","609.515919903","3","green","2"
"100","100","26","1076.42995532","1","1","1","31","1","right","1","out","Male","Right-handed","3","no","right","d","1036.95810508","1617.18104809","3","red","3"
"100","100","26","1063.25918918","1","1","1","32","3","left","3","in","Male","Right-handed","3","no","left","d","1053.67417817","809.428877372","3","green","1"
"100","100","26","1052.3017514","1","1","1","33","0","right","3","in","Male","Right-handed","3","no","right","s","702.184753958","1161.35511769","3","green","2"
"100","100","26","1033.64954269","1","1","1","34","2","right","2","out","Male","Right-handed","3","no","right","s","658.98838907","960.657687247","3","green","3"
"100","100","26","1089.67041965","1","1","1","35","0","left","1","out","Male","Right-handed","3","no","left","d","1258.39339555","2377.4902446","3","red","0"
"100","100","26","1063.51531545","1","1","1","36","2","left","2","out","Male","Right-handed","3","no","left","d","760.780329292","633.907384094","3","green","1"
"100","100","26","1055.20452783","1","1","1","37","3","left","1","out","Male","Right-handed","3","no","left","d","603.58362383","1257.50180325","3","green","3"
"100","100","26","1047.13694445","1","1","1","38","0","right","3","out","Male","Right-handed","3","no","right","s","1035.08159192","801.029628783","3","red","1"
"100","100","26","1060.74947279","1","1","1","39","2","right","0","in","Male","Right-handed","3","no","right","d","790.678819263","1793.64608979","3","red","2"
"100","100","26","1038.53933108","1","1","1","40","2","right","0","in","Male","Right-handed","3","no","right","s","732.242319413","545.27124131","3","green","3"
"100","100","26","1025.93152154","1","1","1","41","2","right","3","in","Male","Right-handed","3","no","right","d","835.84951589","736.916764727","3","red","1"
"100","95","26","1033.16248451","1","0","1","42","3","left","0","in","Male","Right-handed","3","no","left","s","1762.2976398","593.265848118","3","red","3"
"100","95","26","1022.62972384","1","1","1","43","0","right","3","in","Male","Right-handed","3","no","right","s","689.965449215","912.918050133","3","green","2"
"100","95","26","1002.3432605","1","1","1","44","3","right","0","out","Male","Right-handed","3","no","right","s","566.463236086","545.618898177","3","red","2"
"100","95","26","1009.35521813","1","1","1","45","0","right","3","out","Male","Right-handed","3","no","right","d","1388.14958354","953.110903502","3","green","0"
"100","96","26","998.413921412","1","1","1","46","3","left","3","out","Male","Right-handed","3","no","left","s","653.802400688","817.843199678","3","green","2"
"100","96","26","1000.19678434","1","1","1","47","3","left","0","in","Male","Right-handed","3","no","left","s","856.259282737","1233.27743245","3","green","3"
"100","96","26","992.71968429","1","1","1","48","3","right","2","out","Male","Right-handed","3","no","right","d","691.779101908","904.851063999","3","green","3"
"100","96","26","993.247808967","1","1","1","49","1","right","3","out","Male","Right-handed","3","no","right","d","669.518799928","1345.49555051","3","red","2"
"100","96","26","984.140417362","1","1","1","50","0","right","1","in","Male","Right-handed","3","no","right","d","657.149079023","801.117825846","3","green","3"
"100","93","26","980.706466107","1","0","1","51","3","left","2","out","Male","Right-handed","3","no","left","s","552.649007353","1209.59475206","3","red","3"
"100","93","26","969.993025033","1","1","1","52","3","right","3","out","Male","Right-handed","3","no","right","d","696.019617608","601.159968035","3","red","2"
"100","90","26","964.783190926","1","0","1","53","0","right","3","out","Male","Right-handed","3","no","right","d","917.804489203","688.752178045","3","red","2"
"100","90","26","964.738097283","1","1","1","54","0","left","3","in","Male","Right-handed","3","no","left","d","1237.23218957","689.358011849","3","red","0"
"100","91","26","962.817114965","1","1","1","55","2","right","0","in","Male","Right-handed","3","no","right","d","997.842859739","801.006537164","3","green","1"
"100","91","26","980.660950304","1","1","1","56","1","right","3","in","Male","Right-handed","3","no","right","d","733.377335651","2441.32536801","3","red","2"
"100","91","26","973.101386767","1","1","1","57","1","left","3","out","Male","Right-handed","3","no","left","d","680.011366203","737.021959765","3","red","1"
"100","91","26","967.259219301","1","1","1","58","1","left","2","in","Male","Right-handed","3","no","left","s","1017.46783292","496.414548077","3","green","1"
"100","92","26","962.242854655","1","1","1","59","1","left","1","in","Male","Right-handed","3","no","left","d","808.025742008","745.248983556","3","green","2"
"100","92","26","962.61483188","1","1","1","60","2","left","1","in","Male","Right-handed","3","no","left","d","1072.80653054","880.693402258","3","red","2"
"100","92","26","978.869646957","1","1","1","61","0","left","1","in","Male","Right-handed","3","no","left","d","536.459230352","2689.15563961","3","green","2"
"100","92","26","1001.67441084","1","1","1","62","1","right","3","in","Male","Right-handed","3","no","right","d","2218.91381606","1608.81611615","3","green","2"
"100","92","26","994.903808444","1","1","1","63","2","left","1","in","Male","Right-handed","3","no","left","s","849.338217202","585.280003288","3","green","3"
"100","93","26","989.682820992","1","1","1","64","0","left","3","out","Male","Right-handed","3","no","left","d","515.739971888","1025.06272416","3","red","0"
"100","90","26","990.849993761","1","0","1","65","3","left","3","in","Male","Right-handed","3","no","left","s","1233.4871811","848.589664529","3","red","0"
"100","91","26","995.660568166","1","1","1","66","3","left","3","out","Male","Right-handed","3","no","left","d","1429.77411603","984.877568","3","red","1"
"100","91","26","993.298851968","1","1","1","67","3","right","1","in","Male","Right-handed","3","no","right","d","917.618152831","856.425093254","3","green","3"
"100","91","26","987.454594622","1","1","1","68","1","left","0","in","Male","Right-handed","3","no","left","d","564.122645883","873.114867543","3","green","2"
"100","89","26","1007.42540585","1","0","1","69","2","left","2","in","Male","Right-handed","3","no","left","None","891.956009233","3000.15105755","3","red","3"
"100","89","26","1019.57124987","1","1","1","70","3","right","2","in","Male","Right-handed","3","no","right","s","2476.24467732","728.898848203","3","green","1"
"100","88","26","1037.84261599","1","0","1","71","2","left","2","in","Male","Right-handed","3","no","left","d","1113.67256817","2752.60654447","3","green","0"
"100","86","26","1053.789262","1","0","1","72","1","right","3","out","Male","Right-handed","3","no","right","None","702.158134489","3000.08498994","3","green","0"
"100","86","26","1046.36067571","1","1","1","73","2","right","3","out","Male","Right-handed","3","no","right","s","734.320242627","600.685307349","3","green","2"
"100","84","26","1049.84575616","1","0","1","74","2","right","3","in","Male","Right-handed","3","no","right","d","1021.12817217","1441.01170709","3","red","1"
"100","85","26","1050.22029433","1","1","1","75","3","right","3","in","Male","Right-handed","3","no","right","s","699.524088559","1440.61754635","3","green","1"
"100","85","26","1043.89293521","1","1","1","76","1","left","3","out","Male","Right-handed","3","no","left","s","851.357449283","553.073636227","3","green","0"
"100","85","26","1056.20372202","1","1","1","77","1","left","2","out","Male","Right-handed","3","no","left","d","921.901965252","2544.69202703","3","red","3"
"100","84","26","1054.68682696","1","0","1","78","0","left","2","in","Male","Right-handed","3","no","left","s","1075.20035972","864.281047863","3","red","1"
"100","82","26","1051.12069294","1","0","1","79","1","right","3","in","Male","Right-handed","3","no","right","d","830.93068446","864.771423629","3","green","2"
"100","83","26","1047.88005118","1","1","1","80","0","left","2","in","Male","Right-handed","3","no","left","d","1063.37681931","656.468839006","3","green","3"
"100","81","26","1048.0403624","1","0","1","81","2","left","3","out","Male","Right-handed","3","no","left","d","1106.07928052","1008.9181682","3","green","1"
"100","80","26","1061.5603222","1","0","1","82","0","right","3","out","Male","Right-handed","3","no","right","None","745.424415567","3000.09140425","3","red","1"
"100","80","26","1058.14764796","1","1","1","83","2","right","3","in","Male","Right-handed","3","no","right","s","906.948871678","793.00016645","3","red","0"
"100","80","26","1068.24833993","1","1","1","84","1","left","1","out","Male","Right-handed","3","no","left","d","1052.60779528","2336.37468945","3","green","0"
"100","81","26","1064.18283289","1","1","1","85","3","right","0","in","Male","Right-handed","3","no","right","s","895.007307525","721.104471217","3","red","1"
"100","81","26","1057.30414555","1","1","1","86","1","left","2","out","Male","Right-handed","3","no","left","s","673.477726406","560.658585251","3","red","3"
"100","81","26","1057.15910241","1","1","1","87","3","left","3","in","Male","Right-handed","3","no","left","s","1191.23019534","904.232401546","3","red","0"
"100","80","26","1055.5333918","1","0","1","88","2","right","3","in","Male","Right-handed","3","no","right","s","1183.75589355","712.717089104","3","green","0"
"100","80","26","1056.8178641","1","1","1","89","0","left","0","out","Male","Right-handed","3","no","left","s","629.426010186","1656.32900654","3","green","2"
"100","79","26","1070.80520747","1","0","1","90","0","left","0","out","Male","Right-handed","3","no","left","None","1043.80219863","3000.08691419","3","green","3"
"100","80","26","1068.63870759","1","1","1","91","2","left","3","in","Male","Right-handed","3","no","left","s","1270.21469094","568.085741659","3","red","0"
"100","80","26","1063.17116313","1","1","1","92","1","left","1","in","Male","Right-handed","3","no","left","d","671.917760541","688.968341099","3","green","3"
"100","80","26","1058.13390369","1","1","1","93","0","right","0","out","Male","Right-handed","3","no","right","s","664.40304846","736.573918635","3","green","3"
"100","80","26","1053.00259968","1","1","1","94","0","left","3","out","Male","Right-handed","3","no","left","s","750.053639844","617.043781327","3","red","1"
"100","81","26","1051.41017859","1","1","1","95","2","right","3","out","Male","Right-handed","3","no","right","s","789.743288769","1080.58358889","3","green","1"
"100","81","26","1050.30100221","1","1","1","96","3","left","1","in","Male","Right-handed","3","no","left","s","1056.11130406","880.332595989","3","green","0"
"100","81","26","1048.41392909","1","1","1","97","0","right","2","in","Male","Right-handed","3","no","right","s","1164.90545112","648.861439811","3","red","3"
"100","81","26","1048.26491474","1","1","1","98","1","right","3","in","Male","Right-handed","3","no","right","d","1105.3996819","968.479966599","3","red","0"
"100","80","26","1054.69716564","1","0","1","99","1","left","3","out","Male","Right-handed","3","no","left","d","1627.93884706","1472.02212174","3","green","1"
"100","81","26","1053.45386409","1","1","1","100","0","right","0","out","Male","Right-handed","3","no","right","d","1264.44628107","648.506406491","3","red","1"
"100","81","26","1050.21827374","1","1","1","101","3","right","1","in","Male","Right-handed","3","no","right","d","725.012403709","864.200868673","3","red","2"
"100","81","26","1046.7790887","1","1","1","102","1","right","3","out","Male","Right-handed","3","no","right","d","822.724186553","720.564384363","3","red","0"
"100","81","26","1043.53469748","1","1","1","103","0","right","2","in","Male","Right-handed","3","no","right","d","721.234361437","840.243654879","3","green","0"
"100","80","26","1043.43620683","1","0","1","104","2","left","3","out","Male","Right-handed","3","no","left","d","661.876121914","1408.84382607","3","red","2"
"100","80","26","1045.45932444","1","1","1","105","0","left","1","in","Male","Right-handed","3","no","left","s","1002.34443881","1424.41173349","3","green","3"
"100","81","26","1044.12990315","1","1","1","106","1","left","0","in","Male","Right-handed","3","no","left","s","927.909950464","937.007078523","3","red","3"
"100","81","26","1045.47668457","1","1","1","107","3","left","2","in","Male","Right-handed","3","no","left","d","1671.50307391","648.40313571","3","red","0"
"100","80","26","1044.52358073","1","0","1","108","2","right","3","out","Male","Right-handed","3","no","right","s","972.998543642","952.114757558","3","green","2"
"100","79","26","1048.54016773","1","0","1","109","3","right","3","out","Male","Right-handed","3","no","right","d","675.4552653","2120.51120953","3","green","0"
"100","79","26","1045.23136613","1","1","1","110","1","left","2","out","Male","Right-handed","3","no","left","s","940.026946599","568.086703832","3","red","0"
"100","80","26","1042.57525251","1","1","1","111","3","right","3","out","Male","Right-handed","3","no","right","d","979.625511973","632.736768253","3","red","2"
"100","80","26","1043.70367871","1","1","1","112","1","right","3","out","Male","Right-handed","3","no","right","s","1138.31066349","1152.21340998","3","green","1"
"100","80","26","1044.46544418","1","1","1","113","2","right","3","in","Male","Right-handed","3","no","right","s","1466.75499203","760.817211703","3","red","0"
"100","80","26","1045.83043667","1","1","1","114","2","right","3","out","Male","Right-handed","3","no","right","d","998.304050299","1344.5154404","3","red","2"
"100","80","26","1044.68888126","1","1","1","115","1","left","3","in","Male","Right-handed","3","no","left","d","789.040277828","1088.00817956","3","red","1"
"100","81","26","1043.88154563","1","1","1","116","1","left","0","out","Male","Right-handed","3","no","left","s","743.498832773","1192.48515964","3","red","1"
"100","80","26","1041.5445872","1","0","1","117","0","left","3","out","Male","Right-handed","3","no","left","d","911.127809755","727.939263947","3","green","1"
"100","100","26","935.638420196","1","1","2","118","3","left","3","out","Male","Right-handed","3","no","left","d","1150.62457966","720.65226073","3","red","0"
"100","50","26","1034.44312523","1","0","2","119","2","left","0","in","Male","Right-handed","3","no","left","s","1097.19895688","1169.29670365","3","red","1"
"100","33","26","1065.8908103","1","0","2","120","1","right","3","out","Male","Right-handed","3","no","right","d","856.933749892","1400.638611","3","green","1"
"100","50","26","1042.27827334","1","1","2","121","3","left","3","out","Male","Right-handed","3","no","left","d","1469.40090449","473.480420391","3","red","0"
"100","60","26","991.625446556","1","1","2","122","1","left","3","out","Male","Right-handed","3","no","left","d","705.063827423","872.964451439","3","red","2"
"100","66","26","984.620967962","1","1","2","123","2","left","3","out","Male","Right-handed","3","no","left","d","874.619670125","1024.57747987","3","green","1"
"100","71","26","1111.97941329","1","1","2","124","0","left","3","in","Male","Right-handed","3","no","left","s","1991.20594916","1761.05422131","3","green","0"
"100","75","26","1084.11211356","1","1","2","125","3","right","3","out","Male","Right-handed","3","no","right","s","1089.50496421","688.577066758","3","red","1"
"100","77","26","1097.99832536","1","1","2","126","2","right","3","in","Male","Right-handed","3","no","right","d","1473.07535526","945.100684185","3","red","0"
"100","70","26","1203.69884128","1","0","2","127","0","left","3","out","Male","Right-handed","3","no","left","None","1309.88509685","3000.12187235","3","green","2"
"100","63","26","1203.50480916","1","0","2","128","1","left","0","in","Male","Right-handed","3","no","left","d","666.059229319","1737.06974657","3","red","2"
"100","66","26","1217.01598858","1","1","2","129","1","right","3","in","Male","Right-handed","3","no","right","d","1218.70438807","1512.57353631","3","red","0"
"100","69","26","1174.1033089","1","1","2","130","3","left","0","in","Male","Right-handed","3","no","left","d","685.222691216","633.079614403","3","red","2"
"100","71","26","1147.47376755","1","1","2","131","2","left","0","in","Male","Right-handed","3","no","left","d","913.843638438","688.735821517","3","green","3"
"100","66","26","1179.79518179","1","0","2","132","1","left","2","in","Male","Right-handed","3","no","left","d","1223.25118817","2041.33877397","3","red","0"
"100","68","26","1158.35527436","1","1","2","133","0","left","3","in","Male","Right-handed","3","no","left","s","1048.87721909","624.636106862","3","green","0"
"100","70","26","1141.859299","1","1","2","134","3","right","3","in","Male","Right-handed","3","no","right","s","1019.47231204","736.37507431","3","green","1"
"100","72","26","1123.36573926","1","1","2","135","2","right","1","out","Male","Right-handed","3","no","right","d","848.983825301","768.966622069","3","red","0"
"100","73","26","1111.89834673","1","1","2","136","1","left","3","in","Male","Right-handed","3","no","left","d","1146.56430675","664.406255644","3","red","0"
"100","75","26","1094.95879913","1","1","2","137","3","left","1","out","Male","Right-handed","3","no","left","s","585.124455683","961.090334022","3","green","3"
"100","76","26","1082.11512546","1","1","2","138","0","right","1","in","Male","Right-handed","3","no","right","s","809.658831247","840.824472747","3","green","3"
"100","77","26","1070.35454236","1","1","2","139","0","left","1","out","Male","Right-handed","3","no","left","s","726.420029125","920.344565151","3","green","3"
"100","78","26","1069.27258854","1","1","2","140","1","right","3","in","Male","Right-handed","3","no","right","s","1361.98583906","728.953370039","3","red","0"
"100","79","26","1056.48728423","1","1","2","141","1","right","2","in","Male","Right-handed","3","no","right","s","876.442623616","648.407946457","3","red","1"
"100","80","26","1041.15202707","1","1","2","142","0","left","2","in","Male","Right-handed","3","no","left","d","865.134795633","481.076915254","3","red","1"
"100","80","26","1030.21325487","1","1","2","143","3","left","3","out","Male","Right-handed","3","no","left","d","824.68761396","688.80028557","3","red","2"
"100","81","26","1023.04725158","1","1","2","144","0","left","0","out","Male","Right-handed","3","no","left","d","697.199213493","976.2631185","3","green","1"
"100","78","26","1027.95167112","1","0","2","145","0","right","3","out","Male","Right-handed","3","no","right","s","607.884113531","1712.85788371","3","green","1"
"100","79","26","1027.13736835","1","1","2","146","2","left","3","in","Male","Right-handed","3","no","left","d","1248.25490048","760.418881633","3","green","0"
"100","80","26","1019.88177101","1","1","2","147","0","right","0","out","Male","Right-handed","3","no","right","d","681.89108654","937.047809566","3","red","2"
"100","80","26","1013.88772974","1","1","2","148","0","left","0","out","Male","Right-handed","3","no","left","d","675.512352871","992.620630364","3","red","3"
"100","81","26","1005.78987783","1","1","2","149","0","right","3","out","Male","Right-handed","3","no","right","s","717.279283592","792.233653658","3","green","1"
"100","78","26","1014.68094606","1","0","2","150","2","right","1","out","Male","Right-handed","3","no","right","d","901.650632441","1696.73962652","3","green","3"
"100","79","26","1010.15197933","1","1","2","151","3","right","3","in","Male","Right-handed","3","no","right","s","1137.16538431","584.226769744","3","red","0"
"100","80","26","1004.48337609","1","1","2","152","3","left","2","out","Male","Right-handed","3","no","left","s","862.647958624","760.85377342","3","red","1"
"100","80","26","1006.39739314","1","1","2","153","1","right","1","out","Male","Right-handed","3","no","right","d","794.507855491","1352.26812426","3","green","2"
"100","81","26","1006.04788843","1","1","2","154","0","right","2","in","Male","Right-handed","3","no","right","s","977.911922848","1009.01951466","3","red","3"
"100","78","26","1002.21922848","1","0","2","155","1","left","0","out","Male","Right-handed","3","no","left","s","616.5995888","1104.51803182","3","green","3"
"100","76","26","998.087500767","1","0","2","156","2","left","2","in","Male","Right-handed","3","no","left","s","754.045920854","928.117774863","3","green","3"
"100","77","26","988.852582429","1","1","2","157","1","right","1","out","Male","Right-handed","3","no","right","d","600.719624053","656.661910441","3","red","3"
"100","78","26","988.728733681","1","1","2","158","3","left","1","out","Male","Right-handed","3","no","left","s","639.315629116","1328.23393843","3","green","2"
"100","78","26","981.053556371","1","1","2","159","2","right","3","out","Male","Right-handed","3","no","right","d","611.954328691","720.788244595","3","green","2"
"100","79","26","979.14502622","1","1","2","160","1","left","0","in","Male","Right-handed","3","no","left","d","901.534212288","896.439307427","3","red","1"
"100","79","26","982.247450867","1","1","2","161","2","left","2","in","Male","Right-handed","3","no","left","s","959.200350742","1272.10307063","3","green","1"
"100","80","26","982.063571532","1","1","2","162","1","left","2","in","Male","Right-handed","3","no","left","d","707.486200321","1240.45956135","3","green","3"
"100","80","26","976.535469711","1","1","2","163","3","right","2","out","Male","Right-handed","3","no","right","d","655.128564104","800.4132114","3","green","3"
"100","78","26","978.518810913","1","0","2","164","3","left","2","in","Male","Right-handed","3","no","left","d","1402.85925317","736.6457592","3","red","0"
"100","79","26","977.243201907","1","1","2","165","2","right","3","in","Male","Right-handed","3","no","right","d","962.335997552","872.243159683","3","green","1"
"100","79","26","971.633436072","1","1","2","166","0","right","3","out","Male","Right-handed","3","no","right","d","580.950328382","823.77902366","3","green","0"
"100","80","26","967.058726753","1","1","2","167","1","right","0","in","Male","Right-handed","3","no","right","d","781.541601638","704.254338576","3","red","3"
"100","80","26","962.125959562","1","1","2","168","1","left","3","in","Male","Right-handed","3","no","left","d","782.89919527","648.076004756","3","red","2"
"100","80","26","963.264493851","1","1","2","169","2","right","3","in","Male","Right-handed","3","no","right","d","1273.92858989","768.730895303","3","green","0"
"100","81","26","961.442592864","1","1","2","170","0","left","3","in","Male","Right-handed","3","no","left","d","781.185606087","952.221876942","3","green","2"
"100","81","26","957.144978629","1","1","2","171","2","left","1","in","Male","Right-handed","3","no","left","s","546.91876279","911.824085575","3","green","2"
"100","81","26","953.823766257","1","1","2","172","3","left","0","out","Male","Right-handed","3","no","left","s","756.626727816","792.329868593","3","red","1"
"100","82","26","957.407249662","1","1","2","173","0","left","3","out","Male","Right-handed","3","no","left","d","677.055320702","1631.94235309","3","red","1"
"100","82","26","953.945855571","1","1","2","174","3","left","3","in","Male","Right-handed","3","no","left","s","815.632499813","704.583073151","3","red","2"
"100","82","26","948.588013387","1","1","2","175","2","left","0","out","Male","Right-handed","3","no","left","d","622.228486929","664.153530903","3","green","2"
"100","83","26","947.285887156","1","1","2","176","3","right","3","in","Male","Right-handed","3","no","right","s","743.769517634","999.755613913","3","red","2"
"100","83","26","946.220567969","1","1","2","177","0","right","2","out","Male","Right-handed","3","no","right","s","886.447700555","880.285771331","3","red","0"
"100","83","26","942.994866482","1","1","2","178","0","right","1","out","Male","Right-handed","3","no","right","d","706.958621449","791.946932964","3","red","2"
"100","82","26","947.156333143","1","0","2","179","1","right","3","out","Male","Right-handed","3","no","right","s","689.471545513","1712.54005347","3","red","2"
"100","80","26","950.19484072","1","0","2","180","1","right","2","in","Male","Right-handed","3","no","right","d","677.075205196","1600.08941579","3","green","3"
"100","81","26","949.778379279","1","1","2","181","2","left","3","in","Male","Right-handed","3","no","left","d","1030.59316229","816.48945465","3","red","2"
"100","81","26","949.229832248","1","1","2","182","1","right","3","in","Male","Right-handed","3","no","right","s","948.067954741","880.177689891","3","red","1"
"100","80","26","962.946058931","1","0","2","183","0","right","3","in","Male","Right-handed","3","no","right","None","708.863357722","3000.13822888","3","green","2"
"100","80","26","963.427525571","1","1","2","184","0","left","3","out","Male","Right-handed","3","no","left","s","814.22423292","1176.18441465","3","red","2"
"100","80","26","961.159974342","1","1","2","185","2","left","3","out","Male","Right-handed","3","no","left","s","834.699425905","783.768658119","3","green","1"
"100","81","26","959.729428648","1","1","2","186","2","left","1","in","Male","Right-handed","3","no","left","s","1060.51474385","664.389899059","3","green","3"
"100","81","26","955.7969147","1","1","2","187","0","left","3","out","Male","Right-handed","3","no","left","s","784.960761957","583.946142695","3","red","0"
"98","80","26","973.699422461","0","0","2","188","1","right","3","out","Male","Right-handed","3","no","left","None","1453.62613484","3000.12379664","3","red","1"
"98","80","26","970.953219898","1","1","2","189","3","right","3","in","Male","Right-handed","3","no","right","s","863.956161891","687.989513855","3","green","1"
"98","80","26","973.475102227","1","1","2","190","1","right","3","out","Male","Right-handed","3","no","right","s","717.583964404","1592.51729544","3","red","0"
"98","79","26","975.808329291","1","0","2","191","3","left","2","out","Male","Right-handed","3","no","left","d","668.163451308","1624.10435866","3","green","3"
"98","80","26","974.505114418","1","1","2","192","0","left","0","in","Male","Right-handed","3","no","left","d","1028.55340426","727.581023413","3","green","3"
"98","78","26","977.579248964","1","0","2","193","2","left","3","out","Male","Right-handed","3","no","left","d","824.188899598","1592.08978014","3","red","1"
"98","79","26","975.924320935","1","1","2","194","0","left","2","out","Male","Right-handed","3","no","left","s","908.597676025","791.701905429","3","red","3"
"98","79","26","970.91470563","1","1","2","195","0","right","1","in","Male","Right-handed","3","no","right","s","618.109202071","552.239452198","3","red","0"
"98","78","26","977.236473284","1","0","2","196","2","right","3","out","Male","Right-handed","3","no","right","s","1004.93358437","1935.73511625","3","red","0"
"98","78","26","975.438355535","1","1","2","197","1","right","3","in","Male","Right-handed","3","no","right","s","890.367499611","776.406607125","3","red","2"
"98","79","26","973.747589268","1","1","2","198","1","right","1","out","Male","Right-handed","3","no","right","d","764.942590147","912.029985746","3","green","3"
"98","78","26","974.332009192","1","0","2","199","1","right","1","out","Male","Right-handed","3","no","right","d","899.724728893","1143.61531707","3","green","0"
"98","78","26","973.876093965","1","1","2","200","2","right","0","in","Male","Right-handed","3","no","right","d","969.054049405","903.9280414","3","red","3"
"98","78","26","972.791309122","1","1","2","201","2","right","3","out","Male","Right-handed","3","no","right","s","685.648602957","1079.85973137","3","red","2"
"98","78","26","969.083957192","1","1","2","202","2","right","3","out","Male","Right-handed","3","no","right","s","579.185103881","736.147686199","3","green","2"
"98","79","26","968.38977063","1","1","2","203","2","left","2","in","Male","Right-handed","3","no","left","s","1114.7960386","703.971787181","3","red","3"
"98","79","26","968.971114672","1","1","2","204","3","right","0","out","Male","Right-handed","3","no","right","d","726.403031149","1311.53037335","3","green","3"
"98","79","26","967.364215202","1","1","2","205","2","right","2","in","Male","Right-handed","3","no","right","d","1119.13661793","535.991304729","3","green","0"
"98","79","26","970.43437609","1","1","2","206","0","left","3","out","Male","Right-handed","3","no","left","s","897.700686066","1583.51638232","3","green","1"
"98","80","26","966.582706611","1","1","2","207","3","right","3","out","Male","Right-handed","3","no","right","s","791.186834453","456.381411641","3","red","2"
"98","80","26","968.798781866","1","1","2","208","3","right","3","in","Male","Right-handed","3","no","right","d","1416.6827827","919.808326929","3","green","0"
"98","80","26","966.06640291","1","1","2","209","3","right","0","in","Male","Right-handed","3","no","right","d","723.46238012","711.37745562","3","green","3"
"98","80","26","965.026205089","1","1","2","210","3","left","3","out","Male","Right-handed","3","no","left","s","970.826329663","767.829681456","3","green","1"
"98","79","26","967.822749922","1","0","2","211","3","right","1","in","Male","Right-handed","3","no","right","d","1240.54358911","1215.25924973","3","green","0"
"98","80","26","964.645214878","1","1","2","212","3","right","1","in","Male","Right-handed","3","no","right","d","723.977771821","607.936069602","3","green","3"
"98","79","26","966.180685382","1","0","2","213","1","left","3","in","Male","Right-handed","3","no","left","s","824.47754452","1399.62322207","3","green","1"
"100","100","26","1521.84786033","1","1","3","214","3","left","3","in","Male","Right-handed","3","no","left","s","987.393590214","2056.30213046","3","green","0"
"100","100","26","1222.04906194","1","1","3","215","3","left","1","in","Male","Right-handed","3","no","left","s","1219.64505001","624.855477071","3","red","2"
"100","100","26","1023.65953531","1","1","3","216","0","right","3","in","Male","Right-handed","3","no","right","s","629.381430568","624.379533576","3","green","2"
"100","100","26","1056.38391324","1","1","3","217","2","left","3","out","Male","Right-handed","3","no","left","s","964.987041486","1344.12705252","3","red","0"
"100","100","26","990.821666468","1","1","3","218","3","right","2","out","Male","Right-handed","3","no","right","s","784.604766465","672.540592321","3","red","0"
"100","100","26","934.395643131","1","1","3","219","2","left","0","in","Male","Right-handed","3","no","left","d","592.237309786","712.293743098","3","green","2"
"100","100","26","910.88690573","1","1","3","220","2","right","1","in","Male","Right-handed","3","no","right","d","850.829870381","688.839092269","3","green","3"
"100","100","26","910.7766651","1","1","3","221","3","left","2","out","Male","Right-handed","3","no","left","s","827.45571941","992.554241966","3","red","1"
"100","100","26","893.291526846","1","1","3","222","1","right","3","in","Male","Right-handed","3","no","right","s","705.983642838","800.837198797","3","red","1"
"100","100","26","907.371223439","1","1","3","223","2","left","3","out","Male","Right-handed","3","no","left","d","1195.61952358","872.55746196","3","green","0"
"100","100","26","904.621897361","1","1","3","224","0","right","2","out","Male","Right-handed","3","no","right","d","866.184821992","888.072451169","3","red","0"
"100","100","26","907.99551713","1","1","3","225","2","right","3","out","Male","Right-handed","3","no","right","d","913.619136787","976.591532409","3","green","1"
"100","100","26","894.401436752","1","1","3","226","1","left","2","in","Male","Right-handed","3","no","left","d","838.239175733","624.305768695","3","red","3"
"100","100","26","885.509535618","1","1","3","227","2","right","0","in","Male","Right-handed","3","no","right","s","675.878290611","863.951351144","3","green","3"
"100","100","26","868.965852338","1","1","3","228","2","left","3","out","Male","Right-handed","3","no","left","d","818.343838444","456.36473439","3","red","0"
"100","100","26","869.069718436","1","1","3","229","0","left","3","out","Male","Right-handed","3","no","left","d","701.076998666","1040.17842113","3","green","1"
"100","100","26","865.84014588","1","1","3","230","2","left","3","out","Male","Right-handed","3","no","left","s","891.662232753","736.671737221","3","green","0"
"100","94","26","868.173229623","1","0","3","231","2","left","3","out","Male","Right-handed","3","no","left","s","639.3239678","1176.34733871","3","red","2"
"100","94","26","866.625807369","1","1","3","232","1","right","0","in","Male","Right-handed","3","no","right","s","844.772815529","832.77159807","3","red","3"
"100","95","26","865.215343602","1","1","3","233","0","left","3","out","Male","Right-handed","3","no","left","s","900.393102377","776.439961686","3","green","0"
"100","95","26","856.374580385","1","1","3","234","1","left","1","in","Male","Right-handed","3","no","left","s","767.102616781","592.016015318","3","red","2"
"100","95","26","853.747823465","1","1","3","235","3","left","1","out","Male","Right-handed","3","no","left","s","876.602661214","720.569195051","3","red","0"
"100","95","26","849.87523634","1","1","3","236","3","left","3","in","Male","Right-handed","3","no","left","d","1073.0881198","456.268519396","3","red","0"
"100","95","26","841.562989663","1","1","3","237","2","right","2","in","Male","Right-handed","3","no","right","s","732.83885239","567.923779774","3","green","3"
"100","96","26","839.357719988","1","1","3","238","2","left","2","out","Male","Right-handed","3","no","left","s","612.40878416","960.45371145","3","red","3"
"100","96","26","839.560713404","1","1","3","239","2","left","2","out","Male","Right-handed","3","no","left","s","913.208940125","776.062157471","3","green","1"
"100","96","26","840.395454809","1","1","3","240","3","left","3","in","Male","Right-handed","3","no","left","d","843.522341282","880.675121386","3","green","0"
"100","96","26","834.496670022","1","1","3","241","1","right","2","in","Male","Right-handed","3","no","right","d","758.17867578","592.280285782","3","green","3"
"100","96","26","826.68087353","1","1","3","242","3","left","3","in","Male","Right-handed","3","no","left","s","671.773117326","543.904026155","3","green","2"
"100","93","26","827.00251474","1","0","3","243","1","right","3","out","Male","Right-handed","3","no","right","d","688.360583037","984.29963662","3","green","2"
"100","90","26","828.452863761","1","0","3","244","0","left","0","in","Male","Right-handed","3","no","left","d","695.996846712","1047.92982206","3","green","3"
"100","90","26","827.016447874","1","1","3","245","0","right","3","in","Male","Right-handed","3","no","right","s","876.477902464","688.497208292","3","green","1"
"100","87","26","841.367237088","1","0","3","246","0","right","1","out","Male","Right-handed","3","no","right","d","1457.12739864","1144.05758528","3","red","2"
"100","85","26","845.934621079","1","0","3","247","0","right","3","out","Male","Right-handed","3","no","right","s","665.575588588","1327.74099696","3","green","2"
"100","82","26","839.784026651","1","0","3","248","3","left","1","out","Male","Right-handed","3","no","left","s","701.272635778","560.054996458","3","green","3"
"100","83","26","860.184654221","1","1","3","249","0","left","3","in","Male","Right-handed","3","no","left","d","924.779435154","2223.63380314","3","green","1"
"100","83","26","854.214818048","1","1","3","250","3","left","3","in","Male","Right-handed","3","no","left","d","662.232438102","616.368993535","3","red","1"
"100","84","26","846.771137756","1","1","3","251","1","left","3","out","Male","Right-handed","3","no","left","d","662.998309533","479.711624387","3","green","0"
"100","84","26","846.045608393","1","1","3","252","1","left","0","in","Male","Right-handed","3","no","left","d","1221.5250911","415.425894083","3","red","3"
"100","85","26","836.847926904","1","1","3","253","2","left","3","out","Male","Right-handed","3","no","left","d","508.02128407","448.255413619","3","green","2"
"100","85","26","834.661135509","1","1","3","254","1","right","0","in","Male","Right-handed","3","no","right","s","958.687524777","535.691434634","3","red","2"
"100","85","26","842.29853614","1","1","3","255","1","left","2","in","Male","Right-handed","3","no","left","s","742.476067273","1568.38785676","3","green","0"
"100","86","26","844.845789771","1","1","3","256","0","right","3","in","Male","Right-handed","3","no","right","s","807.839084941","1095.82179959","3","red","0"
"100","84","26","851.65372954","1","0","3","257","3","right","3","out","Male","Right-handed","3","no","right","s","1329.34682525","959.443453932","3","green","1"
"100","84","26","857.017168284","1","1","3","258","1","left","0","in","Male","Right-handed","3","no","left","d","1234.05805678","951.958889258","3","green","1"
"100","84","26","861.647957103","1","1","3","259","0","right","3","in","Male","Right-handed","3","no","right","d","700.483672787","1439.58323513","3","green","1"
"100","85","26","860.039808854","1","1","3","260","3","left","3","in","Male","Right-handed","3","no","left","d","668.01143164","904.118547157","3","red","1"
"100","83","26","866.960024193","1","0","3","261","3","left","0","in","Male","Right-handed","3","no","left","d","1032.74709533","1351.67319491","3","green","1"
"100","81","26","864.758503333","1","0","3","262","2","left","2","out","Male","Right-handed","3","no","left","s","1134.06405418","384.106950019","3","red","0"
"100","82","26","863.403974386","1","1","3","263","2","left","0","out","Male","Right-handed","3","no","left","s","826.479137235","767.584974702","3","green","1"
"100","80","26","868.803649571","1","0","3","264","1","left","3","out","Male","Right-handed","3","no","left","d","654.29470077","1623.28011682","3","red","2"
"100","80","26","872.303861472","1","1","3","265","0","right","0","in","Male","Right-handed","3","no","right","d","1309.84308297","791.786253918","3","red","1"
"100","81","26","870.060062547","1","1","3","266","3","right","2","out","Male","Right-handed","3","no","right","s","715.393790334","791.371246567","3","red","3"
"100","81","26","870.335406318","1","1","3","267","0","right","1","out","Male","Right-handed","3","no","right","d","1098.08188991","671.775362397","3","green","0"
"100","81","26","868.840586241","1","1","3","268","0","right","0","in","Male","Right-handed","3","no","right","s","944.639493595","631.601110566","3","green","2"
"100","82","26","866.391426486","1","1","3","269","3","left","1","out","Male","Right-handed","3","no","left","s","687.22268031","776.152599603","3","red","3"
"100","82","26","863.467977673","1","1","3","270","3","right","3","in","Male","Right-handed","3","no","right","s","895.758746658","503.750941716","3","red","2"
"100","82","26","858.356742057","1","1","3","271","3","right","0","out","Male","Right-handed","3","no","right","s","582.436529337","551.596094564","3","red","3"
"100","83","26","861.019527934","1","1","3","272","2","left","1","out","Male","Right-handed","3","no","left","d","598.925214319","1431.99700321","3","green","2"
"100","83","26","866.079348938","1","1","3","273","1","right","3","out","Male","Right-handed","3","no","right","d","1009.68275667","1319.53481969","3","red","0"
"100","83","26","866.851723335","1","1","3","274","0","left","3","in","Male","Right-handed","3","no","left","d","1098.16238977","728.225984611","3","red","2"
"100","83","26","866.995968706","1","1","3","275","3","left","0","in","Male","Right-handed","3","no","left","d","1015.80748276","735.782389878","3","red","3"
"100","82","26","868.039187871","1","0","3","276","1","left","3","out","Male","Right-handed","3","no","left","d","474.204598635","1391.23295352","3","green","1"
"100","82","26","865.903262796","1","1","3","277","0","left","2","out","Male","Right-handed","3","no","left","d","870.859267307","591.820698872","3","red","1"
"100","83","26","864.041188803","1","1","3","278","3","right","3","out","Male","Right-handed","3","no","right","d","970.34846188","519.388444664","3","green","1"
"100","83","26","863.108971815","1","1","3","279","1","left","2","in","Male","Right-handed","3","no","left","s","588.948360411","1016.08137478","3","green","1"
"100","83","26","860.587658042","1","1","3","280","1","left","3","in","Male","Right-handed","3","no","left","d","596.682763484","791.679134534","3","red","1"
"100","83","26","857.774355324","1","1","3","281","2","right","3","out","Male","Right-handed","3","no","right","s","651.264249056","687.301897327","3","green","2"
"100","84","26","861.397593594","1","1","3","282","2","left","3","in","Male","Right-handed","3","no","left","s","1095.83847685","1119.71711507","3","red","1"
"100","84","26","864.29149635","1","1","3","283","0","right","3","out","Male","Right-handed","3","no","right","s","1184.40662767","943.534945429","3","red","2"
"100","84","26","862.654562677","1","1","3","284","3","right","3","in","Male","Right-handed","3","no","right","d","688.029603451","808.108807599","3","red","2"
"100","84","26","858.571565233","1","1","3","285","1","left","3","out","Male","Right-handed","3","no","left","d","609.615021327","527.742472187","3","red","1"
"100","84","26","862.702651798","1","1","3","286","3","right","0","in","Male","Right-handed","3","no","right","d","705.166777479","1615.11499138","3","red","2"
"100","85","26","867.899102349","1","1","3","287","0","right","3","in","Male","Right-handed","3","no","right","s","1694.74861748","799.731367733","3","green","0"
"100","85","26","865.0318926","1","1","3","288","1","right","3","out","Male","Right-handed","3","no","right","s","722.330570978","583.386171376","3","red","0"
"100","85","26","866.857890179","1","1","3","289","1","right","3","out","Male","Right-handed","3","no","right","d","735.794897832","1271.82051929","3","red","0"
"100","85","26","869.274581274","1","1","3","290","0","right","0","out","Male","Right-handed","3","no","right","d","810.579288052","1295.30692101","3","green","3"
"100","85","26","866.56125697","1","1","3","291","1","right","1","out","Male","Right-handed","3","no","right","s","684.113653027","631.156918011","3","green","3"
"100","86","26","867.619413968","1","1","3","292","2","left","1","out","Male","Right-handed","3","no","left","d","1276.57225728","623.739062401","3","red","0"
"100","86","26","865.63840696","1","1","3","293","0","right","3","in","Male","Right-handed","3","no","right","s","835.04932787","583.228378789","3","red","0"
"100","86","26","866.712594878","1","1","3","294","0","right","2","in","Male","Right-handed","3","no","right","d","1265.67622949","639.61902709","3","red","3"
"100","86","26","864.258572271","1","1","3","295","2","left","0","in","Male","Right-handed","3","no","left","d","699.458662362","631.50681986","3","red","3"
"100","86","26","862.852007837","1","1","3","296","0","right","2","out","Male","Right-handed","3","no","right","d","711.984892958","783.042555616","3","red","3"
"100","86","26","867.771758538","1","1","3","297","3","right","3","out","Male","Right-handed","3","no","right","d","608.657682082","1943.56445136","3","green","2"
"100","87","26","867.405711048","1","1","3","298","2","right","3","in","Male","Right-handed","3","no","right","s","1114.18475269","559.130691051","3","red","1"
"100","87","26","868.047736379","1","1","3","299","1","right","3","out","Male","Right-handed","3","no","right","d","629.676489858","1215.56328912","3","red","2"
"100","87","26","865.683090232","1","1","3","300","0","left","1","in","Male","Right-handed","3","no","left","s","805.361228005","519.285815302","3","green","3"
"100","87","26","868.816757721","1","1","3","301","2","right","1","in","Male","Right-handed","3","no","right","s","603.930959944","1678.96069842","3","green","3"
"100","86","26","867.761133533","1","0","3","302","3","right","3","in","Male","Right-handed","3","no","right","s","862.383367377","687.34904268","3","green","0"
"100","86","26","866.247527409","1","1","3","303","1","right","3","out","Male","Right-handed","3","no","right","d","696.025711193","767.047453555","3","green","2"
"100","85","26","864.393709278","1","0","3","304","2","left","3","in","Male","Right-handed","3","no","left","s","700.57635993","694.523795101","3","green","1"
"100","84","26","869.348160191","1","0","3","305","1","right","1","out","Male","Right-handed","3","no","right","d","1001.13726128","1639.26912524","3","green","0"
"100","84","26","866.400707376","1","1","3","306","2","left","3","out","Male","Right-handed","3","no","left","s","598.608987696","591.861109133","3","green","2"
"100","84","26","867.946919469","1","0","3","307","0","right","1","in","Male","Right-handed","3","no","right","d","672.214744147","1351.27454402","3","red","3"
"100","84","26","868.356747254","1","1","3","308","3","right","2","out","Male","Right-handed","3","no","right","s","694.72873304","1119.032385","3","red","3"
"100","84","26","868.982095966","1","1","3","309","1","right","1","in","Male","Right-handed","3","no","right","d","1137.38860306","719.391844235","3","green","3"
"100","100","26","721.20565729","1","1","4","310","1","left","0","in","Male","Right-handed","3","no","left","d","538.201683958","904.209630622","3","red","1"
"100","100","26","720.842846568","1","1","4","311","0","right","1","in","Male","Right-handed","3","no","right","s","761.032091862","679.927979829","3","red","3"
"100","100","26","696.736098607","1","1","4","312","1","right","3","in","Male","Right-handed","3","no","right","d","777.561187162","519.484018208","3","green","0"
"100","100","26","646.738135169","1","1","4","313","2","right","3","in","Male","Right-handed","3","no","right","d","529.280950082","464.207539626","3","red","2"
"100","100","26","637.246685958","1","1","4","314","2","left","0","out","Male","Right-handed","3","no","left","s","606.81676853","591.745009704","3","green","3"
"100","100","26","612.345602999","1","1","4","315","1","left","3","in","Male","Right-handed","3","no","left","s","423.289545928","552.390830475","3","green","0"
"100","100","26","684.595598515","1","1","4","316","0","left","3","in","Male","Right-handed","3","no","left","d","868.088916759","1368.10222646","3","green","0"
"100","100","26","705.841505198","1","1","4","317","3","right","3","out","Male","Right-handed","3","no","right","d","757.531469514","951.594234444","3","green","2"
"100","100","26","698.66606458","1","1","4","318","2","right","3","out","Male","Right-handed","3","no","right","d","674.275027995","608.250051271","3","red","2"
"100","100","26","753.825043293","1","1","4","319","0","left","1","in","Male","Right-handed","3","no","left","d","1836.86875342","663.642950007","3","green","0"
"100","100","26","779.2816425","1","1","4","320","0","left","3","in","Male","Right-handed","3","no","left","s","723.394388158","1344.30088097","3","red","2"
"100","100","26","772.287375815","1","1","4","321","1","left","3","in","Male","Right-handed","3","no","left","s","694.80442215","695.896462421","3","red","1"
"100","100","26","767.502118771","1","1","4","322","1","right","3","in","Male","Right-handed","3","no","right","d","700.534666772","719.623401702","3","green","1"
"100","92","26","780.079190906","1","0","4","323","0","right","2","out","Male","Right-handed","3","no","right","s","639.044302865","1248.11795447","3","green","1"
"100","93","26","765.284506152","1","1","4","324","0","left","3","in","Male","Right-handed","3","no","left","s","572.575774916","543.74206427","3","red","2"
"100","93","26","760.84764973","1","1","4","325","0","left","3","out","Male","Right-handed","3","no","left","d","636.286139547","752.303467249","3","red","1"
"100","94","26","777.788858229","1","1","4","326","1","right","2","in","Male","Right-handed","3","no","right","d","585.816882959","1511.87950547","3","green","3"
"100","88","26","773.857604586","1","0","4","327","1","left","1","out","Male","Right-handed","3","no","left","s","694.43431514","719.618270174","3","red","2"
"100","89","26","762.261871469","1","1","4","328","1","right","3","out","Male","Right-handed","3","no","right","d","610.973256407","496.104094316","3","green","2"
"100","90","26","764.257715724","1","1","4","329","3","left","2","in","Male","Right-handed","3","no","left","d","1028.62396196","575.733551173","3","green","0"
"100","85","26","767.017993444","1","0","4","330","1","left","3","in","Male","Right-handed","3","no","left","s","677.158912236","967.288183456","3","green","1"
"100","86","26","766.420707604","1","1","4","331","1","right","3","in","Male","Right-handed","3","no","right","s","915.832402475","591.92300745","3","red","0"
"100","86","26","767.051734431","1","1","4","332","1","right","3","in","Male","Right-handed","3","no","right","s","690.427922644","871.440726623","3","green","2"
"100","87","26","767.405139498","1","1","4","333","1","right","1","in","Male","Right-handed","3","no","right","s","982.951664482","568.115247588","3","green","3"
"100","88","26","767.977005901","1","1","4","334","1","right","0","out","Male","Right-handed","3","no","right","s","715.651325823","847.752273316","3","green","3"
"100","88","26","766.026458238","1","1","4","335","2","left","1","in","Male","Right-handed","3","no","left","d","547.094836249","887.430697097","3","red","3"
"100","88","26","766.058012965","1","1","4","336","0","right","3","out","Male","Right-handed","3","no","right","s","565.950089426","967.806782283","3","green","0"
"100","89","26","775.891375835","1","1","4","337","1","left","1","out","Male","Right-handed","3","no","left","d","1051.37239472","1031.41195193","3","green","0"
"100","89","26","770.119244558","1","1","4","338","1","right","2","out","Male","Right-handed","3","no","right","d","712.999640498","503.999497102","3","red","0"
"100","86","26","774.919689877","1","0","4","339","0","left","2","in","Male","Right-handed","3","no","left","d","668.7619086","1159.50329968","3","green","3"
"100","87","26","771.928569738","1","1","4","340","3","right","3","in","Male","Right-handed","3","no","right","s","717.143620423","647.24631072","3","red","0"
"100","87","26","774.720449329","1","1","4","341","2","right","3","out","Male","Right-handed","3","no","right","d","970.731397566","751.806035697","3","green","1"
"100","87","26","776.816094295","1","1","4","342","3","right","0","out","Male","Right-handed","3","no","right","d","568.331410643","1119.42205578","3","red","2"
"100","88","26","787.468153073","1","1","4","343","2","right","3","out","Male","Right-handed","3","no","right","s","1678.00720775","599.964977708","3","red","0"
"100","88","26","796.083939615","1","1","4","344","2","right","3","out","Male","Right-handed","3","no","right","s","1226.52442241","951.516941713","3","red","0"
"100","88","26","791.724542662","1","1","4","345","2","left","1","in","Male","Right-handed","3","no","left","d","719.102237083","559.189061518","3","red","2"
"100","89","26","789.750972962","1","1","4","346","3","left","3","out","Male","Right-handed","3","no","left","s","741.753171954","695.65175561","3","red","1"
"100","89","26","785.144541007","1","1","4","347","0","right","2","in","Male","Right-handed","3","no","right","s","654.14749179","575.26562555","3","green","3"
"100","89","26","782.755563503","1","1","4","348","0","right","0","out","Male","Right-handed","3","no","right","d","775.967225316","607.981611392","3","green","1"
"100","90","26","781.951842309","1","1","4","349","2","left","0","out","Male","Right-handed","3","no","left","s","797.623938532","703.589492943","3","green","3"
"100","90","26","777.968712401","1","1","4","350","0","right","3","in","Male","Right-handed","3","no","right","d","710.139489326","527.147542802","3","green","0"
"100","90","26","785.736132629","1","1","4","351","2","right","3","out","Male","Right-handed","3","no","right","s","736.766669317","1471.63405462","3","red","2"
"100","90","26","786.656334967","1","1","4","352","3","left","3","out","Male","Right-handed","3","no","left","d","1147.36513625","503.244530119","3","red","0"
"100","90","26","786.319485343","1","1","4","353","2","left","0","out","Male","Right-handed","3","no","left","s","927.729707677","615.940195333","3","green","1"
"100","91","26","785.322633656","1","1","4","354","1","left","1","out","Male","Right-handed","3","no","left","d","603.34180342","879.580515437","3","red","3"
"100","91","26","788.39258009","1","1","4","355","1","right","3","in","Male","Right-handed","3","no","right","s","670.095127774","1182.98521143","3","green","2"
"100","89","26","784.970577898","1","0","4","356","0","right","1","out","Male","Right-handed","3","no","right","s","639.522170648","615.594783507","3","green","2"
"100","89","26","779.694303703","1","1","4","357","0","left","3","out","Male","Right-handed","3","no","left","s","608.190718631","455.228114501","3","red","2"
"100","87","26","781.827399417","1","0","4","358","3","left","2","out","Male","Right-handed","3","no","left","s","528.688265651","1239.74372173","3","green","3"
"100","88","26","782.217489514","1","1","4","359","2","right","3","out","Male","Right-handed","3","no","right","s","1043.43112948","559.232678963","3","green","0"
"100","88","26","786.478000123","1","1","4","360","3","left","3","in","Male","Right-handed","3","no","left","s","1047.97408095","951.032980229","3","green","0"
"100","88","26","790.670736586","1","1","4","361","3","left","2","in","Male","Right-handed","3","no","left","s","1137.5386985","871.461893898","3","red","3"
"100","88","26","789.121525056","1","1","4","362","1","left","3","out","Male","Right-handed","3","no","left","s","714.094887895","703.030163073","3","red","2"
"100","88","26","789.455831608","1","1","4","363","3","right","3","out","Male","Right-handed","3","no","right","s","1166.65656405","447.691593726","3","red","0"
"100","89","26","788.271397552","1","1","4","364","3","left","0","out","Male","Right-handed","3","no","left","s","545.276052027","903.34786498","3","green","3"
"100","89","26","790.719939719","1","1","4","365","2","left","1","out","Male","Right-handed","3","no","left","d","827.911457803","1022.86806004","3","red","0"
"100","89","26","788.400262426","1","1","4","366","0","left","1","out","Male","Right-handed","3","no","left","s","765.635979536","551.360688522","3","red","3"
"100","87","26","794.497755663","1","0","4","367","1","right","3","in","Male","Right-handed","3","no","right","d","1213.10788236","1071.00185793","3","green","0"
"100","88","26","795.093647171","1","1","4","368","0","right","0","in","Male","Right-handed","3","no","right","d","723.662186588","935.648522748","3","red","3"
"100","86","26","792.238159701","1","0","4","369","3","left","1","in","Male","Right-handed","3","no","left","s","568.354502204","679.174295743","3","red","3"
"100","86","26","795.114948451","1","1","4","370","3","right","0","in","Male","Right-handed","3","no","right","s","1408.58083835","526.863708569","3","red","1"
"100","87","26","790.402783087","1","1","4","371","1","left","0","in","Male","Right-handed","3","no","left","s","542.355926824","463.56546483","3","red","3"
"100","87","26","788.628806002","1","1","4","372","3","right","3","out","Male","Right-handed","3","no","right","d","822.183458251","535.100995272","3","green","2"
"100","85","26","800.504244764","1","0","4","373","2","right","2","out","Male","Right-handed","3","no","right","d","857.691603363","2239.62217016","3","red","3"
"100","86","26","806.435887838","1","1","4","374","1","right","0","out","Male","Right-handed","3","no","right","s","1045.10270467","1327.01938448","3","green","2"
"100","86","26","804.728082273","1","1","4","375","0","left","2","in","Male","Right-handed","3","no","left","d","876.729665034","510.711776093","3","red","0"
"100","86","26","802.594721283","1","1","4","376","3","left","1","in","Male","Right-handed","3","no","left","s","620.290716819","703.295075043","3","green","2"
"100","86","26","802.259218711","1","1","4","377","3","right","0","in","Male","Right-handed","3","no","right","d","672.732701584","886.828391231","3","red","3"
"100","86","26","802.109995374","1","1","4","378","0","left","3","in","Male","Right-handed","3","no","left","d","568.45392444","1015.47169243","3","green","1"
"100","87","26","799.529914135","1","1","4","379","0","left","0","out","Male","Right-handed","3","no","left","s","692.041127418","550.967489893","3","green","3"
"100","85","26","800.982655068","1","0","4","380","0","left","3","out","Male","Right-handed","3","no","left","s","934.664243309","870.68479741","3","green","2"
"100","86","26","797.978807077","1","1","4","381","3","right","1","in","Male","Right-handed","3","no","right","s","618.202209938","551.208989578","3","red","3"
"100","86","26","795.346309871","1","1","4","382","2","left","0","in","Male","Right-handed","3","no","left","d","556.869317894","654.74370413","3","green","2"
"100","85","26","803.980980496","1","0","4","383","0","right","3","out","Male","Right-handed","3","no","right","d","1126.29180664","1742.33206554","3","red","1"
"100","85","26","806.626215742","1","1","4","384","2","left","3","out","Male","Right-handed","3","no","left","d","1237.77484213","766.972405836","3","green","1"
"100","84","26","813.789330559","1","0","4","385","3","right","3","in","Male","Right-handed","3","no","right","d","663.550262863","2038.49562077","3","green","2"
"100","84","26","812.579083468","1","1","4","386","3","right","3","in","Male","Right-handed","3","no","right","d","690.136711869","751.063897333","3","green","1"
"100","84","26","813.573578976","1","1","4","387","2","right","3","in","Male","Right-handed","3","no","right","s","669.68140332","1110.61806272","3","red","2"
"100","84","26","814.96258152","1","1","4","388","0","right","3","in","Male","Right-handed","3","no","right","s","847.341114596","999.268445303","3","green","1"
"100","85","26","815.835397144","1","1","4","389","2","left","3","out","Male","Right-handed","3","no","left","s","826.764575032","942.811087938","3","green","1"
"100","83","26","819.315962281","1","0","4","390","3","right","1","in","Male","Right-handed","3","no","right","s","1661.32577212","534.196574299","3","red","0"
"100","84","26","821.318000448","1","1","4","391","2","right","3","out","Male","Right-handed","3","no","right","d","1168.08343254","798.882751493","3","red","0"
"100","84","26","821.091732959","1","1","4","392","1","left","2","out","Male","Right-handed","3","no","left","s","974.599561188","630.476036517","3","red","3"
"100","84","26","818.554165538","1","1","4","393","1","left","2","in","Male","Right-handed","3","no","left","s","616.920946864","598.95119234","3","red","1"
"100","84","26","818.438085714","1","1","4","394","1","left","3","out","Male","Right-handed","3","no","left","d","578.704670363","1038.67009061","3","red","1"
"100","83","26","818.911652338","1","0","4","395","3","left","3","out","Male","Right-handed","3","no","left","s","1119.12218569","599.207444989","3","red","1"
"100","83","26","820.630043161","1","1","4","396","2","right","1","out","Male","Right-handed","3","no","right","d","1153.88241952","782.940888369","3","red","3"
"100","84","26","817.526080168","1","1","4","397","2","left","2","in","Male","Right-handed","3","no","left","d","584.39899463","510.563604999","3","green","3"
"100","84","26","818.783838242","1","1","4","398","3","left","2","in","Male","Right-handed","3","no","left","s","876.142753521","982.790343988","3","red","1"
"100","84","26","819.3103145","1","1","4","399","2","left","2","in","Male","Right-handed","3","no","left","d","1197.72502844","534.608374466","3","green","0"
"100","84","26","824.329389304","1","1","4","400","2","right","2","in","Male","Right-handed","3","no","right","d","1041.1521169","1510.94012638","3","red","1"
"100","84","26","829.018371291","1","1","4","401","3","left","3","out","Male","Right-handed","3","no","left","s","1016.84564259","1494.5858217","3","green","2"
"100","84","26","828.305922076","1","1","4","402","0","right","0","out","Male","Right-handed","3","no","right","s","887.103886867","638.417301758","3","red","2"
"100","85","26","828.115042962","1","1","4","403","2","right","3","in","Male","Right-handed","3","no","right","s","925.915413536","694.811157184","3","red","1"
"100","84","26","832.791627701","1","0","4","404","3","left","3","out","Male","Right-handed","3","no","left","s","834.407253074","1710.37393319","3","green","1"
"100","83","26","833.583973403","1","0","4","405","0","right","3","out","Male","Right-handed","3","no","right","s","1010.77864552","806.934984634","3","green","0"
"100","0","26","722.276209533","1","0","5","406","1","right","3","out","Male","Right-handed","3","no","right","d","909.442123026","535.110296041","3","green","0"
"100","0","26","711.806013234","1","0","5","407","1","left","3","out","Male","Right-handed","3","no","left","s","538.862680959","863.808952912","3","green","1"
"100","33","26","754.37834367","1","1","5","408","0","left","3","in","Male","Right-handed","3","no","left","d","1199.59897589","479.447033198","3","green","2"
"100","50","26","709.065770003","1","1","5","409","2","left","3","in","Male","Right-handed","3","no","left","d","563.09186254","583.164235461","3","green","2"
"100","60","26","712.907242001","1","1","5","410","1","left","2","in","Male","Right-handed","3","no","left","d","800.775621145","655.770638841","3","red","3"
"100","66","26","761.615769462","1","1","5","411","3","left","3","in","Male","Right-handed","3","no","left","d","939.263320236","1071.0534933","3","green","0"
"100","71","26","738.156655329","1","1","5","412","3","right","1","in","Male","Right-handed","3","no","right","d","610.824443866","583.979497198","3","green","3"
"100","62","26","766.754098033","1","0","5","413","0","left","3","in","Male","Right-handed","3","no","left","s","830.512469925","1103.35992399","3","green","0"
"100","66","26","760.557377756","1","1","5","414","0","left","3","out","Male","Right-handed","3","no","left","s","622.864788747","799.102442339","3","red","0"
"100","70","26","762.713336712","1","1","5","415","0","right","2","in","Male","Right-handed","3","no","right","d","924.55044348","639.683491143","3","green","0"
"100","72","26","770.386638802","1","1","5","416","3","left","3","out","Male","Right-handed","3","no","left","s","815.109410905","879.129908513","3","green","2"
"100","75","26","791.6699941","1","1","5","417","0","right","0","in","Male","Right-handed","3","no","right","s","1219.79706973","831.776735024","3","red","1"
"100","76","26","821.687334264","1","1","5","418","0","right","1","in","Male","Right-handed","3","no","right","s","1220.41990148","1143.37093098","3","red","2"
"100","78","26","835.919203043","1","1","5","419","2","right","1","out","Male","Right-handed","3","no","right","s","922.962575277","1118.90441907","3","red","3"
"100","80","26","822.557617014","1","1","5","420","3","left","3","in","Male","Right-handed","3","no","left","d","711.390925688","559.599899512","3","red","2"
"100","81","26","843.435998342","1","1","5","421","2","right","3","out","Male","Right-handed","3","no","right","d","586.100075801","1727.12336073","3","green","2"
"100","82","26","855.032673573","1","1","5","422","1","right","3","in","Male","Right-handed","3","no","right","s","801.625841006","1279.53311353","3","green","0"
"100","83","26","845.842414511","1","1","5","423","0","left","3","out","Male","Right-handed","3","no","left","d","820.097517106","559.118503821","3","red","1"
"100","84","26","849.889090268","1","1","5","424","3","right","3","out","Male","Right-handed","3","no","right","d","1190.71704865","654.741459118","3","green","0"
"100","85","26","864.383428632","1","1","5","425","1","right","0","in","Male","Right-handed","3","no","right","s","736.22562032","1543.3260948","3","red","2"
"100","80","26","875.956447715","1","0","5","426","1","left","2","out","Male","Right-handed","3","no","left","d","639.785479056","1575.04817966","3","green","1"
"100","77","26","886.887556183","1","0","5","427","0","left","0","in","Male","Right-handed","3","no","left","s","769.449300598","1463.43236743","3","red","3"
"100","78","26","889.540266748","1","1","5","428","3","right","3","in","Male","Right-handed","3","no","right","s","1152.91257232","742.88722605","3","red","1"
"100","79","26","886.897886538","1","1","5","429","3","left","2","out","Male","Right-handed","3","no","left","s","1076.61760662","575.628676801","3","red","0"
"100","80","26","889.669575243","1","1","5","430","2","left","3","in","Male","Right-handed","3","no","left","s","745.320182701","1167.06002562","3","green","1"
"100","80","26","877.6743668","1","1","5","431","2","left","0","out","Male","Right-handed","3","no","left","d","676.699004544","478.889306891","3","red","3"
"100","81","26","878.268819929","1","1","5","432","1","right","2","out","Male","Right-handed","3","no","right","s","964.110843547","823.338359012","3","red","3"
"100","82","26","871.194897268","1","1","5","433","3","right","3","out","Male","Right-handed","3","no","right","s","729.733352956","630.664617929","3","green","0"
"100","82","26","863.635555812","1","1","5","434","1","left","3","out","Male","Right-handed","3","no","left","s","584.475966636","719.472023426","3","green","1"
"100","80","26","871.619023672","1","0","5","435","2","right","2","out","Male","Right-handed","3","no","right","s","1351.13503231","855.144150904","3","red","0"
"100","77","26","874.104599174","1","0","5","436","0","right","1","out","Male","Right-handed","3","no","right","s","906.655095227","990.688633232","3","red","3"
"100","78","26","872.670925543","1","1","5","437","0","right","3","in","Male","Right-handed","3","no","right","s","697.233209444","959.220876568","3","red","2"
"100","78","26","868.687053342","1","1","5","438","1","right","1","in","Male","Right-handed","3","no","right","s","899.777005717","582.629280107","3","red","0"
"100","76","26","861.091464072","1","0","5","439","3","right","2","in","Male","Right-handed","3","no","right","s","565.36157435","655.512461962","3","green","3"
"100","77","26","880.659662856","1","1","5","440","1","right","3","out","Male","Right-handed","3","no","right","d","1869.08955272","1222.86729032","3","red","2"
"100","77","26","876.947044121","1","1","5","441","2","left","3","out","Male","Right-handed","3","no","left","d","966.419362056","527.591414691","3","green","0"
"100","78","26","872.220224101","1","1","5","442","2","right","2","in","Male","Right-handed","3","no","right","d","613.075233414","791.034173337","3","red","3"
"100","78","26","871.557501215","1","1","5","443","2","left","0","out","Male","Right-handed","3","no","left","d","1055.44293055","638.630578352","3","red","3"
"100","79","26","868.177993767","1","1","5","444","1","right","2","in","Male","Right-handed","3","no","right","d","968.204791658","511.308629823","3","red","0"
"100","80","26","879.079539977","1","1","5","445","1","right","0","out","Male","Right-handed","3","no","right","d","2017.76481653","590.714867809","3","green","3"
"100","78","26","883.551742553","1","0","5","446","2","left","3","out","Male","Right-handed","3","no","left","d","709.416593949","1415.46309722","3","green","2"
"100","76","26","890.940551548","1","0","5","447","1","right","1","in","Male","Right-handed","3","no","right","s","1620.81476784","766.948672826","3","green","3"
"100","76","26","888.82456158","1","1","5","448","0","right","2","out","Male","Right-handed","3","no","right","d","553.388579981","1046.51738587","3","red","3"
"100","77","26","885.022337333","1","1","5","449","2","right","3","out","Male","Right-handed","3","no","right","s","715.995454811","727.057934622","3","green","0"
"100","75","26","891.879682219","1","0","5","450","0","right","3","out","Male","Right-handed","3","no","right","d","676.619146077","1710.58656834","3","red","1"
"100","76","26","894.386434936","1","1","5","451","2","left","3","in","Male","Right-handed","3","no","left","s","1167.2280812","847.152533185","3","red","1"
"100","76","26","893.658622323","1","1","5","452","2","left","1","out","Male","Right-handed","3","no","left","d","961.571409018","758.787075233","3","red","0"
"100","77","26","889.328203899","1","1","5","453","1","left","3","in","Male","Right-handed","3","no","left","s","716.331565869","655.265510082","3","red","1"
"100","77","26","886.686814481","1","1","5","454","0","left","3","in","Male","Right-handed","3","no","left","d","704.910204106","814.890040725","3","red","1"
"100","78","26","883.2236322","1","1","5","455","2","right","2","in","Male","Right-handed","3","no","right","s","676.524213981","750.531186932","3","red","3"
"100","78","26","884.220653516","1","1","5","456","2","left","3","in","Male","Right-handed","3","no","left","s","973.079364222","895.064074371","3","green","0"
"100","78","26","879.682509503","1","1","5","457","0","right","3","in","Male","Right-handed","3","no","right","s","649.732506252","646.74182341","3","green","0"
"100","79","26","876.355273724","1","1","5","458","3","left","1","out","Male","Right-handed","3","no","left","s","935.353142675","471.324883751","3","red","2"
"100","79","26","874.189054561","1","1","5","459","0","right","0","in","Male","Right-handed","3","no","right","d","631.98244269","886.77643513","3","green","3"
"100","80","26","872.78550321","1","1","5","460","3","left","3","in","Male","Right-handed","3","no","left","s","875.52569469","718.461765908","3","red","1"
"100","80","26","876.701241526","1","1","5","461","3","left","0","in","Male","Right-handed","3","no","left","s","761.088538042","1423.04515978","3","green","1"
"100","80","26","878.155768244","1","1","5","462","2","left","0","out","Male","Right-handed","3","no","left","s","832.655819366","1086.56270953","3","green","1"
"100","81","26","875.270282583","1","1","5","463","1","left","3","out","Male","Right-handed","3","no","left","s","815.255336929","606.339862803","3","green","0"
"100","81","26","874.635618988","1","1","5","464","1","left","0","out","Male","Right-handed","3","no","left","s","428.831850469","1246.81841052","3","red","3"
"100","81","26","881.349000555","1","1","5","465","3","right","2","in","Male","Right-handed","3","no","right","d","588.384861301","1966.4921647","3","green","3"
"100","81","26","885.261056814","1","1","5","466","2","left","1","in","Male","Right-handed","3","no","left","d","657.095198636","1582.87366614","3","red","2"
"100","80","26","895.51438126","1","0","5","467","1","left","3","in","Male","Right-handed","3","no","left","d","683.45137313","2358.48297173","3","red","2"
"100","80","26","898.355642917","1","1","5","468","0","right","0","out","Male","Right-handed","3","no","right","d","646.013796562","1503.01393482","3","green","2"
"100","79","26","896.794989711","1","0","5","469","2","right","3","out","Male","Right-handed","3","no","right","d","1086.39818191","510.549493483","3","green","0"
"100","80","26","892.883410784","1","1","5","470","1","left","1","in","Male","Right-handed","3","no","left","s","558.910038031","726.174680923","3","green","2"
"100","80","26","891.19838171","1","1","5","471","0","left","2","out","Male","Right-handed","3","no","left","d","588.613532251","974.729451467","3","green","3"
"100","80","26","890.640283479","1","1","5","472","1","right","1","in","Male","Right-handed","3","no","right","d","813.313718303","894.297882274","3","green","3"
"100","79","26","889.173153113","1","0","5","473","3","left","3","in","Male","Right-handed","3","no","left","s","926.818551671","654.932285484","3","green","0"
"100","79","26","886.263662663","1","1","5","474","0","right","3","out","Male","Right-handed","3","no","right","s","650.505112717","726.331511338","3","green","2"
"100","80","26","882.238793805","1","1","5","475","2","right","3","out","Male","Right-handed","3","no","right","s","515.008417249","694.037267938","3","green","2"
"100","80","26","879.293991237","1","1","5","476","3","left","3","in","Male","Right-handed","3","no","left","s","547.630112328","798.685510701","3","green","2"
"100","80","26","880.848397484","1","1","5","477","3","left","3","in","Male","Right-handed","3","no","left","s","808.262751612","1174.15973038","3","red","1"
"100","79","26","882.403177914","1","0","5","478","0","right","3","in","Male","Right-handed","3","no","right","d","757.839998929","1230.85473879","3","red","1"
"100","78","26","884.477349598","1","0","5","479","0","right","1","out","Male","Right-handed","3","no","right","s","785.419707478","1286.36405768","3","red","3"
"100","78","26","879.743193618","1","1","5","480","3","left","3","out","Male","Right-handed","3","no","left","d","620.882759802","437.948542298","3","green","1"
"100","78","26","881.773029478","1","1","5","481","3","left","0","out","Male","Right-handed","3","no","left","d","629.452950438","1438.56848759","3","red","3"
"100","79","26","879.848765768","1","1","5","482","1","left","3","in","Male","Right-handed","3","no","left","s","853.137747501","614.071700082","3","red","1"
"100","79","26","876.84218108","1","1","5","483","1","left","0","out","Male","Right-handed","3","no","left","d","523.751474102","766.918846173","3","green","1"
"100","79","26","875.381205751","1","1","5","484","0","right","3","out","Male","Right-handed","3","no","right","s","692.423100933","830.427159264","3","green","0"
"100","78","26","871.670758611","1","0","5","485","2","left","3","in","Male","Right-handed","3","no","left","d","655.167050078","501.923818898","3","green","1"
"100","79","26","868.972358528","1","1","5","486","3","left","3","out","Male","Right-handed","3","no","left","d","715.532981383","590.667722456","3","red","2"
"100","79","26","866.251137948","1","1","5","487","0","left","1","out","Male","Right-handed","3","no","left","s","597.272882064","694.39165981","3","red","0"
"100","79","26","863.764278649","1","1","5","488","2","right","0","in","Male","Right-handed","3","no","right","d","544.774130511","774.909501779","3","green","2"
"100","79","26","865.474392554","1","1","5","489","2","right","2","in","Male","Right-handed","3","no","right","d","1256.43445819","758.393235213","3","green","1"
"100","80","26","866.934176434","1","1","5","490","1","left","3","out","Male","Right-handed","3","no","left","d","1021.18173183","957.930312783","3","red","2"
"100","79","26","869.127050496","1","0","5","491","3","right","2","out","Male","Right-handed","3","no","right","s","944.517621305","1166.52507026","3","red","1"
"100","79","26","871.017804535","1","1","5","492","3","right","1","out","Male","Right-handed","3","no","right","d","877.237680252","1190.00762346","3","green","0"
"100","79","26","869.791659834","1","1","5","493","1","right","3","in","Male","Right-handed","3","no","right","d","623.729761573","902.50438021","3","green","2"
"100","79","26","871.881607496","1","1","5","494","0","right","3","out","Male","Right-handed","3","no","right","d","593.225437856","1518.36856565","3","red","2"
"100","80","26","869.819498526","1","1","5","495","2","right","3","out","Male","Right-handed","3","no","right","s","614.844947937","757.738652465","3","red","1"
"100","80","26","867.952081774","1","1","5","496","3","left","1","in","Male","Right-handed","3","no","left","s","609.426439973","790.342708235","3","red","3"
"100","80","26","867.207794808","1","1","5","497","2","left","1","in","Male","Right-handed","3","no","left","s","656.924256706","942.031105049","3","green","3"
"100","79","26","863.621923394","1","0","5","498","3","right","0","out","Male","Right-handed","3","no","right","s","564.684862212","502.758644405","3","red","3"
"100","79","26","863.830903262","1","1","5","499","3","left","0","out","Male","Right-handed","3","no","left","s","544.341163011","1222.1908989","3","green","2"
"100","80","26","864.336072711","1","1","5","500","0","right","2","in","Male","Right-handed","3","no","right","d","969.880856923","853.763144988","3","red","1"
"100","80","26","862.611410288","1","1","5","501","1","right","3","in","Male","Right-handed","3","no","right","s","799.303852429","598.233107769","3","red","0"
dis_reply=No
dis_loc=1
