"acc_1","acc_2","age","avg_rt","correct_1","correct_2","count_block_loop","count_trial_sequence","cue_position","detection","dis_position","dis_shape","gender","hand","high_loc","practice","response_keyboard_response_1","response_keyboard_response_2","response_time_keyboard_response_1","response_time_keyboard_response_2","subject_nr","tar_color","tar_position"
"100","100","20","1423.37011705","1","1","0","0","2","right","3","in","Female","Right-handed","3","yes","right","s","1263.56153822","1583.17869589","15","green","1"
"100","100","20","1409.71092152","1","1","0","1","3","left","2","in","Female","Right-handed","3","yes","left","d","1142.01778935","1650.08566262","15","red","3"
"100","100","20","1411.50932347","1","1","0","2","3","right","3","out","Female","Right-handed","3","yes","right","s","1268.65030214","1561.56195258","15","red","1"
"100","100","20","1307.58329896","1","1","0","3","2","left","3","out","Female","Right-handed","3","yes","left","s","725.317073575","1266.29337732","15","green","2"
"100","100","20","1345.30709297","1","1","0","4","2","right","2","in","Female","Right-handed","3","yes","right","d","926.596015583","2065.80852239","15","red","0"
"100","83","20","1336.72333036","1","0","0","5","3","right","0","out","Female","Right-handed","3","yes","right","s","1186.27563545","1401.33339919","15","green","2"
"100","85","20","1436.1398132","1","1","0","6","1","left","3","in","Female","Right-handed","3","yes","left","s","1327.72832729","2737.54909325","15","red","2"
"100","87","20","1427.46304496","1","1","0","7","3","left","0","in","Female","Right-handed","3","yes","left","s","612.253315056","2121.19801953","15","green","3"
"100","88","20","1370.65734972","1","1","0","8","0","left","3","in","Female","Right-handed","3","yes","left","s","822.73224962","1009.69132591","15","red","2"
"100","90","20","1362.71894321","1","1","0","9","0","right","1","out","Female","Right-handed","3","yes","right","d","685.338189367","1897.20837986","15","green","2"
"100","81","20","1416.14085173","1","0","0","10","3","left","3","in","Female","Right-handed","3","yes","left","d","1442.9726181","2457.74725582","15","red","1"
"100","83","20","1383.23178469","1","1","0","11","3","right","3","in","Female","Right-handed","3","yes","right","d","681.276350639","1361.18774386","15","red","2"
"100","76","20","1370.82458546","1","0","0","12","1","left","3","out","Female","Right-handed","3","yes","left","d","825.940989969","1617.93539928","15","red","0"
"100","71","20","1374.28113175","1","0","0","13","0","left","0","in","Female","Right-handed","3","yes","left","s","613.2789574","2225.1535096","15","green","3"
"100","73","20","1356.51665605","1","1","0","14","0","left","1","out","Female","Right-handed","3","yes","left","s","621.893006068","1593.73498659","15","red","0"
"100","75","20","1318.69186864","1","1","0","15","1","left","1","in","Female","Right-handed","3","yes","left","d","565.262667711","937.377447284","15","green","3"
"100","76","20","1295.62292614","1","1","0","16","3","left","0","in","Female","Right-handed","3","yes","left","d","618.956230923","1234.08346124","15","red","3"
"100","77","20","1311.53633112","1","1","0","17","2","left","3","out","Female","Right-handed","3","yes","left","d","1546.6683301","1617.46010162","15","green","0"
"100","78","20","1288.43502765","1","1","0","18","0","right","1","in","Female","Right-handed","3","yes","right","d","584.078297754","1161.14483237","15","red","0"
"100","80","20","1273.69144811","1","1","0","19","0","right","0","in","Female","Right-handed","3","yes","right","s","761.649763987","1225.4771097","15","red","1"
"100","80","20","1266.97547423","1","1","0","20","1","right","0","out","Female","Right-handed","3","yes","right","d","872.256855735","1393.05513773","15","red","1"
"100","81","20","1251.05663494","1","1","0","21","2","left","1","in","Female","Right-handed","3","yes","left","s","639.711858003","1193.81016188","15","green","3"
"100","100","20","1329.90020032","1","1","1","22","3","right","0","out","Female","Right-handed","3","no","right","d","930.343234191","1729.45716644","15","red","1"
"100","50","20","1120.02436782","1","0","1","23","1","right","2","out","Female","Right-handed","3","no","right","s","658.246542866","1162.0505278","15","green","1"
"100","66","20","1088.91230811","1","1","1","24","3","left","3","out","Female","Right-handed","3","no","left","s","651.71520882","1401.66116857","15","green","0"
"100","75","20","1039.23639196","1","1","1","25","3","right","1","out","Female","Right-handed","3","no","right","d","539.251184877","1241.1661021","15","red","3"
"100","80","20","1044.72656914","1","1","1","26","1","left","1","in","Female","Right-handed","3","no","left","d","683.886639261","1449.48791647","15","red","0"
"100","83","20","989.998009437","1","1","1","27","0","left","3","in","Female","Right-handed","3","no","left","d","535.30640664","897.40401521","15","green","1"
"100","71","20","978.133214565","1","0","1","28","2","left","3","out","Female","Right-handed","3","no","left","d","619.854870645","1194.03402002","15","green","2"
"100","75","20","925.118207044","1","1","1","29","1","left","3","out","Female","Right-handed","3","no","left","s","530.548939943","577.477368839","15","red","2"
"100","77","20","938.621460007","1","1","1","30","2","right","3","out","Female","Right-handed","3","no","right","d","908.155299825","1185.1396676","15","red","1"
"100","80","20","925.885474428","1","1","1","31","2","left","3","in","Female","Right-handed","3","no","left","s","508.741371999","1113.78183645","15","red","2"
"100","81","20","915.376970064","1","1","1","32","3","left","0","out","Female","Right-handed","3","no","left","s","539.340343279","1081.24350956","15","green","3"
"100","75","20","907.134134112","1","0","1","33","3","right","3","out","Female","Right-handed","3","no","right","s","910.934925269","721.990952024","15","red","0"
"100","69","20","946.389193252","1","0","1","34","3","right","0","in","Female","Right-handed","3","no","right","s","825.440035202","2009.45977064","15","red","2"
"100","71","20","947.038019049","1","1","1","35","0","left","3","out","Female","Right-handed","3","no","left","d","598.037681291","1312.90782753","15","green","0"
"100","73","20","955.997687868","1","1","1","36","0","left","2","in","Female","Right-handed","3","no","left","s","705.399150622","1457.46695206","15","green","0"
"100","68","20","954.349484822","1","0","1","37","1","right","2","in","Female","Right-handed","3","no","right","d","978.147211426","881.10566682","15","red","3"
"100","70","20","954.750573238","1","1","1","38","1","left","0","in","Female","Right-handed","3","no","left","d","624.768524904","1297.5674509","15","green","3"
"100","66","20","949.945601615","1","0","1","39","1","right","3","in","Female","Right-handed","3","no","right","d","575.335963611","1161.18620444","15","green","0"
"100","68","20","987.587688605","1","1","1","40","3","right","3","out","Female","Right-handed","3","no","right","s","1112.61475937","2217.67574949","15","red","1"
"100","70","20","975.371330314","1","1","1","41","2","right","3","out","Female","Right-handed","3","no","right","s","637.215102022","849.305943528","15","red","2"
"100","71","20","962.539894109","1","1","1","42","0","left","3","in","Female","Right-handed","3","no","left","s","609.854376748","801.967963267","15","green","2"
"100","72","20","956.631325283","1","1","1","43","1","right","2","out","Female","Right-handed","3","no","right","d","735.588570537","929.514189334","15","red","0"
"100","69","20","954.908361086","1","0","1","44","2","left","0","out","Female","Right-handed","3","no","left","s","840.972519327","993.033778206","15","red","3"
"100","66","20","951.915665559","1","0","1","45","1","left","3","in","Female","Right-handed","3","no","left","s","460.591665422","1305.57567143","15","green","2"
"100","68","20","951.922498898","1","1","1","46","0","right","2","in","Female","Right-handed","3","no","right","d","719.101642502","1185.07135559","15","red","1"
"100","69","20","953.26009524","1","1","1","47","0","left","3","in","Female","Right-handed","3","no","left","d","1027.69971963","945.700287939","15","green","2"
"100","70","20","952.261246425","1","1","1","48","3","right","3","out","Female","Right-handed","3","no","right","s","787.17215846","1065.410196","15","red","0"
"100","67","20","952.750634074","1","0","1","49","3","right","2","in","Female","Right-handed","3","no","right","d","555.049540642","1376.87866055","15","red","3"
"100","65","20","955.808619045","1","0","1","50","1","left","0","out","Female","Right-handed","3","no","left","d","865.404166583","1217.4602299","15","green","3"
"100","66","20","956.629274659","1","1","1","51","0","right","0","in","Female","Right-handed","3","no","right","s","607.988143856","1352.86843106","15","green","3"
"100","67","20","958.948695805","1","1","1","52","2","left","1","in","Female","Right-handed","3","no","left","s","807.594243317","1249.46841708","15","red","0"
"100","68","20","955.516401538","1","1","1","53","0","left","3","out","Female","Right-handed","3","no","left","s","817.182940853","881.04761764","15","red","0"
"100","69","20","949.838262148","1","1","1","54","0","right","0","out","Female","Right-handed","3","no","right","s","671.644998183","864.630605192","15","green","2"
"100","70","20","942.795013476","1","1","1","55","0","right","2","out","Female","Right-handed","3","no","right","s","603.377243315","817.358371234","15","green","3"
"100","71","20","944.211108954","1","1","1","56","1","left","0","out","Female","Right-handed","3","no","left","d","615.868078919","1368.84863148","15","green","1"
"100","69","20","941.526698309","1","0","1","57","2","right","3","in","Female","Right-handed","3","no","right","s","621.577103095","1073.5675484","15","red","0"
"100","70","20","940.134765794","1","1","1","58","1","right","1","in","Female","Right-handed","3","no","right","s","915.090412393","864.959978138","15","red","2"
"100","71","20","940.646726558","1","1","1","59","0","right","1","out","Female","Right-handed","3","no","right","d","733.692190555","1185.48635909","15","red","3"
"100","71","20","934.479161892","1","1","1","60","0","left","3","out","Female","Right-handed","3","no","left","s","719.030444066","681.192965079","15","red","2"
"100","70","20","940.410324286","1","0","1","61","3","right","3","in","Female","Right-handed","3","no","right","s","1078.71788934","1264.733426","15","green","1"
"100","70","20","940.8959814","1","1","1","62","0","right","3","out","Female","Right-handed","3","no","right","d","887.341944283","1033.30258758","15","green","1"
"100","69","20","946.110259285","1","0","1","63","2","right","2","out","Female","Right-handed","3","no","right","d","742.790516881","1577.00078831","15","green","1"
"100","69","20","946.523164649","1","1","1","64","0","left","3","in","Female","Right-handed","3","no","left","d","734.40577849","1193.32460137","15","red","0"
"100","70","20","943.307865946","1","1","1","65","2","right","3","in","Female","Right-handed","3","no","right","d","569.00571704","1041.09432638","15","red","0"
"100","68","20","942.233615397","1","0","1","66","1","left","1","out","Female","Right-handed","3","no","left","s","869.560295134","920.37288738","15","red","3"
"100","69","20","938.19842201","1","1","1","67","0","right","0","in","Female","Right-handed","3","no","right","s","744.242708413","768.986730793","15","green","1"
"100","70","20","950.887217541","1","1","1","68","2","left","3","in","Female","Right-handed","3","no","left","s","972.431772978","2096.71185095","15","red","0"
"100","70","20","949.144796265","1","1","1","69","2","right","2","out","Female","Right-handed","3","no","right","d","645.296445276","1089.20554732","15","red","3"
"100","71","20","945.760876641","1","1","1","70","1","right","3","out","Female","Right-handed","3","no","right","d","717.968240366","848.697228968","15","green","2"
"100","70","20","941.263355319","1","0","1","71","3","right","2","in","Female","Right-handed","3","no","right","d","760.382624248","681.386996854","15","green","0"
"100","70","20","939.522003052","1","1","1","72","0","right","0","in","Female","Right-handed","3","no","right","s","687.960665109","1016.9481143","15","red","3"
"100","71","20","937.389767008","1","1","1","73","1","left","3","out","Female","Right-handed","3","no","left","d","568.645555581","1088.64590195","15","red","0"
"100","71","20","938.593130635","1","1","1","74","2","left","3","out","Female","Right-handed","3","no","left","s","585.149802151","1417.18627628","15","red","2"
"100","72","20","935.800287293","1","1","1","75","3","right","3","in","Female","Right-handed","3","no","right","s","678.713848352","896.845331979","15","green","2"
"100","72","20","942.025095787","1","1","1","76","2","left","1","out","Female","Right-handed","3","no","left","d","1131.23282979","1425.09667914","15","green","2"
"100","73","20","938.004176219","1","1","1","77","3","right","1","out","Female","Right-handed","3","no","right","d","584.801827808","848.905372146","15","red","2"
"100","73","20","934.864965081","1","1","1","78","1","left","3","in","Female","Right-handed","3","no","left","s","501.574704158","1016.5635786","15","red","0"
"100","74","20","933.462813371","1","1","1","79","3","left","3","out","Female","Right-handed","3","no","left","s","818.010382143","889.069949579","15","green","1"
"100","74","20","932.882848936","1","1","1","80","1","left","3","out","Female","Right-handed","3","no","left","d","861.707941451","936.781881985","15","red","1"
"100","75","20","930.90628447","1","1","1","81","1","left","0","in","Female","Right-handed","3","no","left","s","707.362880472","921.215081497","15","red","2"
"100","75","20","929.429202839","1","1","1","82","2","left","2","in","Female","Right-handed","3","no","left","s","688.859946262","992.74866375","15","green","3"
"100","75","20","926.718541138","1","1","1","83","2","left","3","out","Female","Right-handed","3","no","left","d","730.341694765","792.394659988","15","red","1"
"100","74","20","926.42807361","1","0","1","84","0","right","3","out","Female","Right-handed","3","no","right","d","985.078475431","831.75969822","15","red","1"
"100","75","20","927.28116022","1","1","1","85","0","left","3","out","Female","Right-handed","3","no","left","s","921.491536687","1040.55969668","15","red","0"
"100","73","20","928.62259791","1","0","1","86","3","right","2","in","Female","Right-handed","3","no","right","s","716.021829056","1312.92739106","15","red","1"
"100","74","20","927.244425748","1","1","1","87","1","right","3","in","Female","Right-handed","3","no","right","d","810.69522387","864.631246619","15","green","1"
"100","74","20","927.677239518","1","1","1","88","3","left","3","in","Female","Right-handed","3","no","left","s","855.241391564","1057.24450505","15","red","0"
"100","73","20","926.979905137","1","0","1","89","3","left","3","out","Female","Right-handed","3","no","left","s","887.760475631","872.756527646","15","red","1"
"100","73","20","928.33957549","1","1","1","90","0","left","1","out","Female","Right-handed","3","no","left","d","577.384682587","1464.20963642","15","red","3"
"100","74","20","927.306213113","1","1","1","91","0","left","1","in","Female","Right-handed","3","no","left","s","478.957013464","1233.05140463","15","red","0"
"100","73","20","927.519399948","1","0","1","92","2","left","1","out","Female","Right-handed","3","no","left","d","580.602402915","1304.28255388","15","green","3"
"100","72","20","925.798719152","1","0","1","93","1","right","3","out","Female","Right-handed","3","no","right","s","526.222833149","1081.03793209","15","green","2"
"100","72","20","923.305433938","1","1","1","94","1","left","2","out","Female","Right-handed","3","no","left","d","670.710438524","816.867358593","15","green","3"
"100","72","20","921.318011084","1","1","1","95","2","left","2","in","Female","Right-handed","3","no","left","d","656.353690742","896.118594785","15","green","0"
"100","72","20","922.426848952","1","0","1","96","1","right","3","out","Female","Right-handed","3","no","right","d","855.959790202","1153.00191209","15","green","1"
"100","72","20","922.868081991","1","1","1","97","2","right","0","in","Female","Right-handed","3","no","right","s","839.450091498","1072.47102833","15","green","1"
"100","72","20","922.013094181","1","1","1","98","3","right","2","in","Female","Right-handed","3","no","right","d","433.106823952","1280.96121738","15","green","3"
"100","71","20","923.091297628","1","0","1","99","1","left","3","in","Female","Right-handed","3","no","left","d","675.735380424","1336.49054568","15","green","1"
"100","70","20","923.983402799","1","0","1","100","1","left","1","out","Female","Right-handed","3","no","left","s","699.065055487","1288.07015676","15","green","3"
"100","70","20","923.572335046","1","0","1","101","0","left","2","in","Female","Right-handed","3","no","left","s","629.634072109","1152.56189293","15","red","3"
"100","70","20","928.84430557","1","1","1","102","0","right","3","out","Female","Right-handed","3","no","right","d","1213.11263529","1488.09125972","15","green","1"
"100","70","20","927.256509756","1","1","1","103","3","right","3","in","Female","Right-handed","3","no","right","d","740.738270055","856.551827652","15","green","2"
"100","71","20","927.298361148","1","1","1","104","3","left","3","in","Female","Right-handed","3","no","left","s","757.220708096","1104.23964239","15","green","2"
"100","71","20","926.199197312","1","1","1","105","2","left","1","in","Female","Right-handed","3","no","left","s","668.932401895","1001.00479595","15","red","3"
"100","71","20","925.413957406","1","1","1","106","2","right","0","out","Female","Right-handed","3","no","right","s","974.431422757","744.476187974","15","green","2"
"100","72","20","924.391599441","1","1","1","107","2","right","0","out","Female","Right-handed","3","no","right","d","795.005590037","879.97675467","15","green","3"
"100","71","20","926.326310124","1","0","1","108","2","right","3","in","Female","Right-handed","3","no","right","s","1192.73577106","992.68708672","15","red","1"
"100","70","20","924.195091034","1","0","1","109","0","right","3","in","Female","Right-handed","3","no","right","d","629.27166565","848.286394747","15","green","2"
"100","70","20","926.083106124","1","1","1","110","3","left","1","in","Female","Right-handed","3","no","left","s","1279.76303108","904.693837103","15","red","0"
"100","71","20","925.904161345","1","1","1","111","2","left","3","in","Female","Right-handed","3","no","left","s","659.463009844","1160.49314218","15","green","1"
"100","71","20","928.079922525","1","1","1","112","0","left","1","out","Female","Right-handed","3","no","left","s","719.012804813","1528.78405258","15","green","2"
"100","71","20","927.209002257","1","1","1","113","2","right","3","out","Female","Right-handed","3","no","right","s","831.506334416","864.404181339","15","green","0"
"100","72","20","925.621933999","1","1","1","114","3","right","0","in","Female","Right-handed","3","no","right","d","687.084475343","872.138833103","15","red","3"
"100","72","20","923.2604398","1","1","1","115","3","left","1","in","Female","Right-handed","3","no","left","d","526.590691734","880.692266888","15","green","3"
"100","72","20","920.907635237","1","1","1","116","1","right","3","in","Female","Right-handed","3","no","right","d","511.20477376","888.283238925","15","green","0"
"100","71","20","921.319081258","1","0","1","117","3","right","3","in","Female","Right-handed","3","no","right","s","704.050228891","1216.76267765","15","red","2"
"100","0","20","795.020984297","1","0","2","118","0","right","3","in","Female","Right-handed","3","no","right","d","620.544084341","969.497884253","15","red","0"
"100","0","20","837.536793877","1","0","2","119","0","right","3","in","Female","Right-handed","3","no","right","s","863.118760917","896.986445998","15","green","1"
"100","33","20","778.406893292","1","1","2","120","3","right","3","out","Female","Right-handed","3","no","right","d","599.512322784","720.781861459","15","green","2"
"75","50","20","783.62077564","0","1","2","121","3","left","3","out","Female","Right-handed","3","no","right","s","482.352088453","1116.17275691","15","red","0"
"80","60","20","764.889004203","1","1","2","122","3","left","1","in","Female","Right-handed","3","no","left","d","603.003291166","776.920545751","15","green","3"
"83","66","20","771.665732321","1","1","2","123","2","left","3","out","Female","Right-handed","3","no","left","d","713.648227127","897.450518689","15","red","2"
"85","71","20","808.720589754","1","1","2","124","1","left","0","out","Female","Right-handed","3","no","left","s","1101.0273742","961.072094509","15","green","1"
"87","75","20","800.853062302","1","1","2","125","1","left","3","out","Female","Right-handed","3","no","left","s","682.85490336","808.705836924","15","green","2"
"88","77","20","797.564707013","1","1","2","126","0","left","1","in","Female","Right-handed","3","no","left","d","629.287701333","913.228028068","15","red","2"
"90","70","20","797.996758226","1","0","2","127","2","left","3","in","Female","Right-handed","3","no","left","s","570.909794147","1032.86064413","15","red","2"
"90","72","20","789.164315204","1","1","2","128","3","right","0","in","Female","Right-handed","3","no","right","d","592.440586188","809.239183771","15","green","3"
"91","66","20","779.639168783","1","0","2","129","1","right","0","in","Female","Right-handed","3","no","right","d","580.965771511","768.759344795","15","green","2"
"92","69","20","812.171320905","1","1","2","130","3","right","1","out","Female","Right-handed","3","no","right","s","1428.58315753","976.531135206","15","red","0"
"92","71","20","810.275524204","1","1","2","131","1","left","3","out","Female","Right-handed","3","no","left","d","722.120841066","849.13949313","15","green","1"
"93","73","20","807.606997031","1","1","2","132","1","left","3","in","Female","Right-handed","3","no","left","d","627.840961933","912.654271295","15","red","0"
"93","75","20","815.617747862","1","1","2","133","1","right","1","in","Female","Right-handed","3","no","right","d","662.331793694","1209.22622694","15","green","3"
"94","76","20","816.957186724","1","1","2","134","1","right","3","in","Female","Right-handed","3","no","right","s","675.82293526","1000.95348177","15","green","2"
"94","72","20","838.741991334","1","0","2","135","1","right","2","in","Female","Right-handed","3","no","right","s","704.621099238","1713.54624018","15","green","3"
"94","73","20","837.416471388","1","1","2","136","0","left","2","in","Female","Right-handed","3","no","left","s","890.172883915","736.941340827","15","green","1"
"95","75","20","833.701435129","1","1","2","137","2","right","2","out","Female","Right-handed","3","no","right","s","653.615758074","872.615734341","15","green","3"
"95","71","20","834.22846048","1","0","2","138","0","right","3","out","Female","Right-handed","3","no","right","d","840.314735575","849.223199402","15","red","2"
"95","72","20","855.185456183","1","1","2","139","2","left","3","in","Female","Right-handed","3","no","left","s","613.741105804","1976.82362608","15","red","2"
"95","73","20","865.737862193","1","1","2","140","0","left","3","out","Female","Right-handed","3","no","left","d","1410.27361367","785.50797519","15","green","2"
"95","75","20","884.679720087","1","1","2","141","2","left","1","in","Female","Right-handed","3","no","left","s","815.919970391","1824.76493291","15","red","3"
"96","76","20","880.890455112","1","1","2","142","2","left","0","out","Female","Right-handed","3","no","left","d","851.512132922","728.384058475","15","green","1"
"96","73","20","878.011279401","1","0","2","143","1","right","2","in","Female","Right-handed","3","no","right","s","778.943607631","833.120165644","15","red","0"
"92","70","20","891.918748211","0","0","2","144","0","left","3","out","Female","Right-handed","3","no","right","s","999.620916435","1507.40495811","15","green","1"
"92","67","20","897.658484329","1","0","2","145","0","left","1","in","Female","Right-handed","3","no","left","s","880.197084971","1225.06563405","15","green","3"
"93","68","20","909.721156709","1","1","2","146","3","right","0","in","Female","Right-handed","3","no","right","s","1310.61536616","1184.33660055","15","red","2"
"93","66","20","928.614149161","1","0","2","147","0","right","0","out","Female","Right-handed","3","no","right","s","799.890380065","2153.13148042","15","red","3"
"93","67","20","923.162056642","1","1","2","148","0","right","1","out","Female","Right-handed","3","no","right","s","614.693304717","904.505257458","15","green","3"
"93","65","20","928.758197041","1","0","2","149","2","left","3","out","Female","Right-handed","3","no","left","s","787.200060553","1417.27703825","15","red","1"
"93","66","20","922.179924299","1","1","2","150","2","left","0","out","Female","Right-handed","3","no","left","d","598.690654337","824.659738824","15","green","2"
"94","67","20","920.421697171","1","1","2","151","2","right","3","out","Female","Right-handed","3","no","right","d","836.51844777","888.281956071","15","green","1"
"94","68","20","917.576305344","1","1","2","152","1","right","0","out","Female","Right-handed","3","no","right","s","776.886550102","864.779416341","15","red","3"
"94","69","20","918.632155986","1","1","2","153","3","left","1","out","Female","Right-handed","3","no","left","s","542.62284777","1368.55100919","15","green","3"
"94","70","20","913.074839611","1","1","2","154","0","left","3","in","Female","Right-handed","3","no","left","s","713.066452514","712.956447722","15","red","0"
"94","71","20","920.932912539","1","1","2","155","2","left","3","in","Female","Right-handed","3","no","left","d","702.666349374","1720.69687234","15","red","1"
"94","71","20","915.401434761","1","1","2","156","1","right","3","in","Female","Right-handed","3","no","right","d","626.110711644","784.299846764","15","red","1"
"95","72","20","916.213587773","1","1","2","157","1","left","0","out","Female","Right-handed","3","no","left","d","854.900152212","1040.87495823","15","green","3"
"95","73","20","917.850744172","1","1","2","158","3","right","2","out","Female","Right-handed","3","no","right","d","702.344352841","1264.32964748","15","green","1"
"95","71","20","917.388509159","1","0","2","159","2","left","0","out","Female","Right-handed","3","no","left","s","747.88922293","1048.98452428","15","red","3"
"95","69","20","916.950003527","1","0","2","160","2","right","1","out","Female","Right-handed","3","no","right","s","716.635995748","1080.42953824","15","red","0"
"95","70","20","913.646125723","1","1","2","161","1","right","1","out","Female","Right-handed","3","no","right","d","758.087917882","785.070842445","15","green","0"
"95","71","20","913.70442329","1","1","2","162","2","right","1","out","Female","Right-handed","3","no","right","s","679.738528553","1152.80050391","15","green","2"
"95","71","20","919.987975189","1","1","2","163","3","right","3","out","Female","Right-handed","3","no","right","d","1125.27140395","1280.22421735","15","red","1"
"95","72","20","921.949283813","1","1","2","164","3","left","3","out","Female","Right-handed","3","no","left","s","647.716871401","1376.6220896","15","red","1"
"95","72","20","919.03937327","1","1","2","165","1","left","3","out","Female","Right-handed","3","no","left","s","668.094697769","896.452457724","15","red","1"
"95","73","20","925.792526368","1","1","2","166","2","left","2","in","Female","Right-handed","3","no","left","d","643.009436036","1856.87831417","15","green","0"
"96","72","20","922.017083776","1","0","2","167","3","right","0","in","Female","Right-handed","3","no","right","s","537.440435455","936.600358047","15","green","3"
"96","72","20","925.988954898","1","1","2","168","3","left","1","in","Female","Right-handed","3","no","left","d","705.083247649","1544.08177429","15","green","2"
"96","73","20","925.375965243","1","1","2","169","3","left","2","in","Female","Right-handed","3","no","left","s","627.658796566","1160.56818918","15","red","3"
"96","73","20","929.559866829","1","1","2","170","1","right","1","in","Female","Right-handed","3","no","right","s","1358.14288821","936.102610416","15","green","2"
"96","72","20","925.405309631","1","0","2","171","0","right","1","out","Female","Right-handed","3","no","right","s","537.713362792","872.71419344","15","green","0"
"96","72","20","925.085946892","1","1","2","172","1","left","3","in","Female","Right-handed","3","no","left","s","655.400850406","1160.27986759","15","red","0"
"96","73","20","926.368623857","1","1","2","173","2","right","2","out","Female","Right-handed","3","no","right","d","1000.96663103","992.865082811","15","green","1"
"96","73","20","923.651281671","1","1","2","174","3","right","2","out","Female","Right-handed","3","no","right","s","582.530854259","960.4293843","15","red","0"
"96","72","20","923.176795826","1","0","2","175","1","right","3","in","Female","Right-handed","3","no","right","s","856.240414669","936.021790571","15","green","2"
"96","71","20","928.437909566","1","0","2","176","2","right","3","in","Female","Right-handed","3","no","right","s","666.703441835","1800.46157113","15","red","0"
"96","70","20","925.774448699","1","0","2","177","0","right","2","in","Female","Right-handed","3","no","right","s","569.153566048","968.106949033","15","green","0"
"96","70","20","926.931037821","1","1","2","178","0","right","0","out","Female","Right-handed","3","no","right","d","767.836010116","1224.81676024","15","green","3"
"96","70","20","925.436780475","1","1","2","179","2","right","1","in","Female","Right-handed","3","no","right","s","580.284575659","1088.28958906","15","red","3"
"96","69","20","927.48491172","1","0","2","180","0","right","0","out","Female","Right-handed","3","no","right","d","532.943708979","1575.99438879","15","red","2"
"96","70","20","931.264950269","1","1","2","181","3","left","3","in","Female","Right-handed","3","no","left","s","722.511791038","1616.30296666","15","green","2"
"96","69","20","933.236851146","1","0","2","182","2","right","3","in","Female","Right-handed","3","no","right","d","694.848312054","1424.02870259","15","red","2"
"96","69","20","933.415748974","1","1","2","183","3","right","3","out","Female","Right-handed","3","no","right","s","785.589115749","1104.49909976","15","red","0"
"97","70","20","933.329205381","1","1","2","184","3","left","0","in","Female","Right-handed","3","no","left","s","1151.17705127","704.057605308","15","green","1"
"97","70","20","939.473030545","1","1","2","185","0","left","2","in","Female","Right-handed","3","no","left","s","1685.72946005","1016.48917303","15","red","3"
"97","71","20","935.78847137","1","1","2","186","0","left","2","out","Female","Right-handed","3","no","left","d","570.257141812","800.219753011","15","red","3"
"97","71","20","935.853718277","1","1","2","187","3","left","3","out","Female","Right-handed","3","no","left","s","784.788935121","1095.92257459","15","red","0"
"97","71","20","933.845858936","1","1","2","188","3","left","3","in","Female","Right-handed","3","no","left","s","714.362456489","872.228953645","15","green","0"
"97","70","20","932.396249393","1","0","2","189","1","right","2","in","Female","Right-handed","3","no","right","s","594.995712057","1063.95223162","15","green","1"
"97","69","20","933.464725041","1","0","2","190","2","right","3","in","Female","Right-handed","3","no","right","s","636.508890504","1384.28105294","15","red","0"
"97","70","20","931.066354689","1","1","2","191","0","left","3","in","Female","Right-handed","3","no","left","s","632.066685353","879.903952671","15","green","1"
"96","70","20","933.967632293","0","1","2","192","3","right","3","in","Female","Right-handed","3","no","left","d","606.767507601","1690.55684233","15","green","1"
"96","69","20","935.24669313","1","0","2","193","3","right","2","in","Female","Right-handed","3","no","right","s","822.17933924","1240.17317256","15","red","3"
"96","70","20","941.337846777","1","1","2","194","1","right","3","out","Female","Right-handed","3","no","right","d","1168.82977352","1639.70127445","15","red","0"
"96","70","20","940.906058408","1","1","2","195","2","left","3","in","Female","Right-handed","3","no","left","s","903.035747389","912.280960576","15","red","1"
"96","70","20","940.492902578","1","1","2","196","1","left","3","out","Female","Right-handed","3","no","left","s","696.674135019","1119.85936064","15","green","2"
"96","71","20","947.497763824","1","1","2","197","1","left","3","out","Female","Right-handed","3","no","left","d","657.466567205","2344.29703731","15","red","1"
"96","70","20","947.559740307","1","0","2","198","3","right","3","out","Female","Right-handed","3","no","right","s","856.936363351","1048.09935453","15","green","1"
"96","70","20","949.820584555","1","1","2","199","2","left","2","in","Female","Right-handed","3","no","left","d","793.561416347","1472.33652101","15","green","3"
"96","69","20","961.009373734","1","0","2","200","1","left","1","out","Female","Right-handed","3","no","left","d","837.056605324","2919.92356752","15","red","3"
"96","70","20","960.316634353","1","1","2","201","0","right","3","out","Female","Right-handed","3","no","right","s","925.329517268","880.309014043","15","green","2"
"96","70","20","962.066338983","1","1","2","202","1","right","3","out","Female","Right-handed","3","no","right","s","1170.00839629","1048.07465958","15","red","0"
"96","70","20","967.072742516","1","1","2","203","0","left","3","in","Female","Right-handed","3","no","left","s","1225.67531075","1559.55877495","15","green","2"
"96","70","20","964.755539022","1","0","2","204","2","left","3","out","Female","Right-handed","3","no","left","d","746.978396088","783.973680951","15","green","0"
"96","69","20","962.823324214","1","0","2","205","2","right","0","in","Female","Right-handed","3","no","right","s","677.73791663","911.703355243","15","red","3"
"96","69","20","964.311416167","1","1","2","206","0","left","0","out","Female","Right-handed","3","no","left","s","1238.25273906","952.274276904","15","red","1"
"96","70","20","962.110289229","1","1","2","207","0","right","3","in","Female","Right-handed","3","no","right","s","564.769730783","967.650252755","15","red","0"
"96","70","20","961.987213985","1","1","2","208","3","left","3","out","Female","Right-handed","3","no","left","s","901.358094143","1000.46278984","15","red","2"
"96","70","20","959.481818309","1","1","2","209","3","right","3","out","Female","Right-handed","3","no","right","s","615.109911785","847.871711961","15","red","2"
"96","70","20","960.735089957","1","1","2","210","2","left","3","out","Female","Right-handed","3","no","left","s","744.547707123","1407.52445602","15","green","0"
"96","71","20","965.361554654","1","1","2","211","0","left","3","in","Female","Right-handed","3","no","left","s","863.086368834","1928.15917405","15","green","1"
"96","70","20","963.371388768","1","0","2","212","1","left","2","in","Female","Right-handed","3","no","left","s","624.776222034","927.815368985","15","red","3"
"96","70","20","960.156896272","1","1","2","213","0","right","3","in","Female","Right-handed","3","no","right","s","509.303903793","800.256314371","15","red","0"
"100","0","20","1064.28753777","1","0","3","214","2","right","3","in","Female","Right-handed","3","no","right","d","728.420940548","1400.15413499","15","green","2"
"100","50","20","1024.57765216","1","1","3","215","0","left","3","in","Female","Right-handed","3","no","left","s","840.884323064","1128.85121002","15","green","2"
"100","66","20","955.040058207","1","1","3","216","0","left","2","in","Female","Right-handed","3","no","left","s","727.476759483","904.452981129","15","red","3"
"100","75","20","884.04777383","1","1","3","217","0","right","0","in","Female","Right-handed","3","no","right","s","540.97181376","801.17002764","15","green","3"
"100","60","20","897.558984056","1","0","3","218","3","right","1","out","Female","Right-handed","3","no","right","s","838.579353865","1064.62829606","15","red","0"
"100","66","20","858.265881902","1","1","3","219","1","left","2","out","Female","Right-handed","3","no","left","s","507.320289697","816.280452567","15","green","3"
"100","57","20","899.129569334","1","0","3","220","3","right","1","out","Female","Right-handed","3","no","right","d","655.732147632","1632.89124022","15","green","2"
"100","62","20","908.153656168","1","1","3","221","0","left","3","out","Female","Right-handed","3","no","left","s","1166.313454","776.331074012","15","green","1"
"100","66","20","916.2946388","1","1","3","222","3","left","3","in","Female","Right-handed","3","no","left","s","1041.94582119","920.899178524","15","green","1"
"100","70","20","928.365601406","1","1","3","223","1","right","3","in","Female","Right-handed","3","no","right","s","841.533126837","1232.47540287","15","green","1"
"100","72","20","927.567238643","1","1","3","224","3","right","3","in","Female","Right-handed","3","no","right","s","615.032940503","1224.13428153","15","red","0"
"100","75","20","930.744233194","1","1","3","225","2","right","3","in","Female","Right-handed","3","no","right","s","794.738435547","1136.64391096","15","red","1"
"100","76","20","918.965361393","1","1","3","226","3","right","3","out","Female","Right-handed","3","no","right","s","683.180427743","872.057371831","15","green","2"
"100","78","20","914.592710581","1","1","3","227","2","right","0","out","Female","Right-handed","3","no","right","d","706.68777818","1008.80872187","15","green","3"
"100","80","20","905.946865441","1","1","3","228","1","left","1","in","Female","Right-handed","3","no","left","s","609.484593875","960.325473068","15","green","2"
"100","75","20","910.014056079","1","0","3","229","2","right","3","out","Female","Right-handed","3","no","right","d","909.15432293","1032.88950837","15","green","1"
"100","76","20","897.836016531","1","1","3","230","3","right","3","out","Female","Right-handed","3","no","right","s","469.467416453","936.507351078","15","green","2"
"100","77","20","887.684938651","1","1","3","231","0","right","3","in","Female","Right-handed","3","no","right","s","646.140563673","784.092665726","15","green","2"
"100","73","20","897.55705471","1","0","3","232","2","right","3","out","Female","Right-handed","3","no","right","s","1109.77099119","1040.73929634","15","green","0"
"100","70","20","903.312258703","1","0","3","233","3","left","0","out","Female","Right-handed","3","no","left","s","665.285245952","1360.03702319","15","green","3"
"100","71","20","909.837152896","1","1","3","234","3","right","0","in","Female","Right-handed","3","no","right","s","1087.85021132","992.819862182","15","red","2"
"100","72","20","917.116207627","1","1","3","235","0","left","3","in","Female","Right-handed","3","no","left","d","531.602805087","1608.34990889","15","red","0"
"100","73","20","918.631182031","1","1","3","236","1","left","2","out","Female","Right-handed","3","no","left","d","679.984515944","1223.93672191","15","green","0"
"100","75","20","911.479116248","1","1","3","237","2","left","3","in","Female","Right-handed","3","no","left","d","653.539107505","840.42409894","15","red","0"
"100","72","20","916.30809167","1","0","3","238","0","right","3","in","Female","Right-handed","3","no","right","s","816.171730628","1248.23527299","15","red","2"
"100","69","20","931.127804696","1","0","3","239","2","right","3","in","Female","Right-handed","3","no","right","d","834.711867625","1768.52939308","15","green","1"
"100","70","20","942.352233133","1","1","3","240","2","right","3","out","Female","Right-handed","3","no","right","s","1100.08896598","1368.28577898","15","red","0"
"100","71","20","938.776732516","1","1","3","241","3","left","2","in","Female","Right-handed","3","no","left","s","699.762287023","984.714144692","15","red","3"
"100","68","20","951.791597288","1","0","3","242","0","right","1","in","Female","Right-handed","3","no","right","s","1384.21658949","1248.19903234","15","green","2"
"100","70","20","962.288844787","1","1","3","243","1","left","3","out","Female","Right-handed","3","no","left","d","1028.76288547","1504.65515903","15","red","1"
"100","70","20","960.660070545","1","1","3","244","3","left","1","out","Female","Right-handed","3","no","left","d","719.316520667","1104.27716589","15","red","3"
"100","68","20","966.180346802","1","0","3","245","0","left","2","out","Female","Right-handed","3","no","left","s","1146.86698015","1127.75084139","15","green","1"
"100","69","20","960.931306065","1","1","3","246","0","right","3","in","Female","Right-handed","3","no","right","s","521.517642781","1064.40636219","15","red","0"
"100","70","20","953.28780287","1","1","3","247","3","left","0","out","Female","Right-handed","3","no","left","s","674.113852073","727.990542796","15","red","3"
"100","71","20","961.883234381","1","1","3","248","0","right","3","in","Female","Right-handed","3","no","right","d","603.679997024","1904.57581447","15","red","0"
"100","72","20","966.767016195","1","1","3","249","1","left","0","in","Female","Right-handed","3","no","left","s","1171.26270748","1104.13605187","15","green","2"
"100","72","20","984.143231006","1","1","3","250","1","right","1","out","Female","Right-handed","3","no","right","s","1555.72111508","1663.65281333","15","red","3"
"100","73","20","977.617582327","1","1","3","251","0","right","2","out","Female","Right-handed","3","no","right","s","592.081066152","880.256096283","15","red","0"
"100","74","20","985.044656583","1","1","3","252","3","left","2","in","Female","Right-handed","3","no","left","d","510.912603597","2023.63435306","15","green","3"
"100","75","20","983.152738125","1","1","3","253","1","left","3","in","Female","Right-handed","3","no","left","d","986.335031619","832.400804862","15","red","1"
"100","73","20","978.953732014","1","0","3","254","0","left","0","out","Female","Right-handed","3","no","left","d","662.007231451","959.979743726","15","red","3"
"100","73","20","972.298546987","1","1","3","255","0","right","1","in","Female","Right-handed","3","no","right","d","502.525940927","896.345980785","15","red","3"
"100","72","20","976.885699092","1","0","3","256","3","right","3","in","Female","Right-handed","3","no","right","s","803.152679597","1535.93949544","15","green","0"
"100","72","20","975.358467509","1","1","3","257","1","left","0","in","Female","Right-handed","3","no","left","d","570.69010528","1248.68491356","15","red","3"
"100","73","20","973.188436319","1","1","3","258","3","left","3","out","Female","Right-handed","3","no","left","s","604.298653711","1151.11547424","15","green","1"
"100","73","20","974.721982376","1","1","3","259","1","left","1","out","Female","Right-handed","3","no","left","d","495.767541593","1591.69556831","15","red","0"
"100","74","20","968.807889245","1","1","3","260","2","right","3","in","Female","Right-handed","3","no","right","d","673.263640114","720.255570315","15","red","2"
"100","75","20","968.447440053","1","1","3","261","0","left","1","out","Female","Right-handed","3","no","left","d","479.075677522","1423.93697848","15","green","3"
"100","75","20","969.379066379","1","1","3","262","3","left","3","in","Female","Right-handed","3","no","left","s","995.613599029","1032.58066109","15","red","1"
"100","74","20","967.403579036","1","0","3","263","0","left","2","in","Female","Right-handed","3","no","left","d","605.182861316","1136.02653713","15","green","3"
"100","74","20","963.005070433","1","1","3","264","3","right","1","out","Female","Right-handed","3","no","right","d","598.589629532","887.569650993","15","green","3"
"100","75","20","966.863505097","1","1","3","265","0","right","3","out","Female","Right-handed","3","no","right","d","1391.04650798","936.240838011","15","red","1"
"100","75","20","963.625998038","1","1","3","266","2","left","3","in","Female","Right-handed","3","no","left","d","742.83734108","847.713920833","15","green","0"
"100","75","20","968.405313717","1","1","3","267","1","right","3","out","Female","Right-handed","3","no","right","s","1124.20727597","1319.21081344","15","green","0"
"100","76","20","965.90540416","1","1","3","268","1","left","0","out","Female","Right-handed","3","no","left","s","669.812119515","992.008456578","15","green","3"
"100","75","20","963.557273301","1","0","3","269","3","right","0","in","Female","Right-handed","3","no","right","d","933.446780455","735.373371656","15","red","1"
"100","75","20","962.180281238","1","1","3","270","0","left","3","in","Female","Right-handed","3","no","left","d","618.164709566","1151.9727419","15","red","0"
"100","75","20","967.884050261","1","1","3","271","0","left","3","in","Female","Right-handed","3","no","left","d","1610.49548339","975.502285725","15","green","2"
"100","76","20","965.032060442","1","1","3","272","2","left","3","in","Female","Right-handed","3","no","left","d","679.137831837","920.09547005","15","red","1"
"100","76","20","962.69467053","1","1","3","273","3","left","3","in","Female","Right-handed","3","no","left","s","561.943281147","1087.6340503","15","green","2"
"100","77","20","962.015876","1","1","3","274","2","left","1","out","Female","Right-handed","3","no","left","d","642.182636177","1200.39377225","15","green","0"
"100","77","20","962.352106767","1","1","3","275","3","left","2","out","Female","Right-handed","3","no","left","s","949.814723706","1015.90964341","15","red","1"
"100","77","20","959.362318988","1","1","3","276","1","right","3","out","Female","Right-handed","3","no","right","d","708.528033261","839.462920049","15","green","0"
"100","78","20","962.972475891","1","1","3","277","0","right","3","out","Female","Right-handed","3","no","right","s","964.906547244","1415.9181744","15","green","1"
"100","78","20","965.066842405","1","1","3","278","1","left","3","out","Female","Right-handed","3","no","left","s","726.562404787","1471.65019374","15","red","0"
"100","78","20","966.281347162","1","1","3","279","2","right","0","out","Female","Right-handed","3","no","right","d","1306.23281375","784.215499069","15","red","3"
"100","79","20","965.967841456","1","1","3","280","3","left","3","in","Female","Right-handed","3","no","left","s","554.811571091","1335.74135853","15","green","0"
"100","79","20","961.015677201","1","1","3","281","2","left","2","out","Female","Right-handed","3","no","left","s","531.15540951","727.285934845","15","green","3"
"100","79","20","957.201677691","1","1","3","282","1","left","2","in","Female","Right-handed","3","no","left","d","651.911485591","743.787936419","15","green","3"
"100","80","20","956.556594831","1","1","3","283","1","right","3","out","Female","Right-handed","3","no","right","d","992.798374366","831.293380536","15","red","2"
"100","80","20","956.691245049","1","1","3","284","1","right","3","out","Female","Right-handed","3","no","right","s","756.076080983","1176.15743963","15","red","2"
"100","80","20","954.2949802","1","1","3","285","0","right","0","in","Female","Right-handed","3","no","right","d","760.662928002","807.657423913","15","green","1"
"100","80","20","953.260873452","1","1","3","286","3","right","3","in","Female","Right-handed","3","no","right","d","694.401878613","1063.2084966","15","green","2"
"100","81","20","950.944415968","1","1","3","287","3","right","2","out","Female","Right-handed","3","no","right","s","707.747416171","855.938623099","15","green","0"
"100","80","20","953.132241581","1","0","3","288","0","left","1","in","Female","Right-handed","3","no","left","s","1070.44219361","1159.62048026","15","red","0"
"100","80","20","952.900569527","1","1","3","289","1","right","3","in","Female","Right-handed","3","no","right","d","927.027696191","944.022634689","15","green","2"
"100","79","20","950.111242246","1","0","3","290","3","left","3","out","Female","Right-handed","3","no","left","s","756.656252026","719.588485866","15","red","0"
"100","79","20","952.906126021","1","1","3","291","1","right","3","in","Female","Right-handed","3","no","right","d","1088.19241281","1248.03194052","15","green","2"
"100","79","20","952.011805235","1","1","3","292","2","left","2","out","Female","Right-handed","3","no","left","s","836.702216708","927.807351141","15","red","1"
"100","80","20","950.196681672","1","1","3","293","1","left","3","out","Female","Right-handed","3","no","left","d","638.320602073","975.283238287","15","red","1"
"100","80","20","947.14929015","1","1","3","294","2","right","1","out","Female","Right-handed","3","no","right","s","694.884873413","711.831063429","15","red","3"
"100","80","20","945.824128395","1","1","3","295","0","right","3","in","Female","Right-handed","3","no","right","s","901.547315211","775.42473716","15","red","1"
"100","80","20","943.2792938","1","1","3","296","1","right","1","out","Female","Right-handed","3","no","right","s","798.15082908","671.054885013","15","green","3"
"100","79","20","942.698982525","1","0","3","297","2","right","0","out","Female","Right-handed","3","no","right","s","589.570519486","1199.49577396","15","red","2"
"100","80","20","946.798288944","1","1","3","298","1","right","3","out","Female","Right-handed","3","no","right","d","687.248680744","1895.03137542","15","red","0"
"100","80","20","943.391375075","1","1","3","299","1","right","0","in","Female","Right-handed","3","no","right","d","667.69637138","639.911021197","15","red","1"
"100","80","20","941.96999711","1","1","3","300","3","left","3","in","Female","Right-handed","3","no","left","s","904.206993739","735.25599045","15","red","1"
"100","79","20","939.47436989","1","0","3","301","2","left","3","out","Female","Right-handed","3","no","left","s","764.911422087","679.7981813","15","green","2"
"100","79","20","938.834481956","1","1","3","302","0","left","0","out","Female","Right-handed","3","no","left","s","821.715907976","943.332779567","15","red","2"
"100","80","20","934.977423895","1","1","3","303","1","left","2","in","Female","Right-handed","3","no","left","d","544.139823465","639.258689578","15","green","1"
"100","80","20","932.689037999","1","1","3","304","2","left","2","out","Female","Right-handed","3","no","left","d","685.639980937","767.8286337","15","green","0"
"100","79","20","931.408498617","1","0","3","305","2","left","1","out","Female","Right-handed","3","no","left","s","558.459689179","1071.29914055","15","red","3"
"100","79","20","929.767099658","1","1","3","306","2","left","1","in","Female","Right-handed","3","no","left","s","534.732329157","1022.78446181","15","red","2"
"100","79","20","929.588936093","1","1","3","307","2","right","0","in","Female","Right-handed","3","no","right","s","770.440525892","1055.59892317","15","red","1"
"100","80","20","927.858169069","1","1","3","308","2","right","3","out","Female","Right-handed","3","no","right","d","523.137888282","1007.19424922","15","red","2"
"100","80","20","927.647386844","1","1","3","309","2","right","2","in","Female","Right-handed","3","no","right","d","1047.68403032","767.562120636","15","green","3"
"100","100","20","915.944953989","1","1","4","310","2","right","0","out","Female","Right-handed","3","no","right","s","744.046431646","1087.84347633","15","green","2"
"100","50","20","910.64026958","1","0","4","311","3","right","3","out","Female","Right-handed","3","no","right","s","794.404251894","1016.26691845","15","red","0"
"100","66","20","859.128174077","1","1","4","312","0","left","2","in","Female","Right-handed","3","no","left","s","632.043273253","880.164692888","15","red","0"
"100","75","20","940.482717382","1","1","4","313","2","left","3","in","Female","Right-handed","3","no","left","d","793.382137403","1575.71055719","15","green","0"
"100","80","20","1011.20345883","1","1","4","314","2","right","0","in","Female","Right-handed","3","no","right","s","1260.13118472","1328.04166455","15","red","1"
"100","83","20","959.965044347","1","1","4","315","1","left","3","in","Female","Right-handed","3","no","left","s","711.835874136","695.710069704","15","red","2"
"100","85","20","905.80797351","1","1","4","316","2","left","3","out","Female","Right-handed","3","no","left","d","609.36464696","552.366450014","15","green","1"
"100","87","20","875.505785514","1","1","4","317","0","right","1","in","Female","Right-handed","3","no","right","s","646.935292167","679.845646919","15","green","2"
"100","88","20","848.392622246","1","1","4","318","2","right","3","in","Female","Right-handed","3","no","right","s","438.416880316","824.557751876","15","green","2"
"100","90","20","830.067356286","1","1","4","319","1","left","3","out","Female","Right-handed","3","no","left","d","546.084951922","784.194973388","15","green","1"
"100","90","20","821.678165807","1","1","4","320","3","left","3","in","Female","Right-handed","3","no","left","d","795.832710617","679.73981141","15","red","1"
"100","91","20","814.517315759","1","1","4","321","2","right","1","out","Female","Right-handed","3","no","right","s","815.284315882","656.211614584","15","red","3"
"100","84","20","790.049453556","1","0","4","322","3","right","2","in","Female","Right-handed","3","no","right","s","496.896133027","495.974081201","15","red","3"
"100","85","20","785.900883804","1","1","4","323","2","right","1","in","Female","Right-handed","3","no","right","d","519.452888122","944.486065949","15","red","2"
"100","86","20","787.417996185","1","1","4","324","1","left","3","out","Female","Right-handed","3","no","left","s","649.096260928","968.218878108","15","green","1"
"100","87","20","778.283578882","1","1","4","325","2","left","3","out","Female","Right-handed","3","no","left","s","610.889640498","671.644998183","15","red","2"
"100","88","20","784.907891598","1","1","4","326","2","right","3","in","Female","Right-handed","3","no","right","s","829.412074101","952.381715986","15","red","1"
"100","83","20","789.934607907","1","0","4","327","1","left","3","in","Female","Right-handed","3","no","left","s","550.855247162","1199.92232315","15","red","1"
"100","84","20","780.624890008","1","1","4","328","1","left","0","out","Female","Right-handed","3","no","left","d","634.564724191","591.535211475","15","green","3"
"100","80","20","772.623920558","1","0","4","329","0","right","3","out","Female","Right-handed","3","no","right","d","585.040438789","656.17056323","15","green","2"
"100","80","20","776.551709751","1","1","4","330","2","left","3","in","Female","Right-handed","3","no","left","s","902.546979741","807.668007463","15","red","0"
"100","81","20","772.129236475","1","1","4","331","1","right","3","in","Female","Right-handed","3","no","right","d","622.301595296","736.213000062","15","green","0"
"100","82","20","771.728505051","1","1","4","332","1","left","0","in","Female","Right-handed","3","no","left","s","685.95684605","839.86798142","15","red","1"
"100","83","20","774.737454429","1","1","4","333","0","left","2","in","Female","Right-handed","3","no","left","s","656.547081089","1031.33949916","15","green","1"
"100","84","20","782.371421076","1","1","4","334","1","left","3","out","Female","Right-handed","3","no","left","d","723.126919871","1208.04632132","15","red","2"
"100","84","20","782.615261165","1","1","4","335","0","left","0","out","Female","Right-handed","3","no","left","s","881.67782002","695.74470678","15","red","3"
"100","85","20","784.269966939","1","1","4","336","3","left","3","out","Female","Right-handed","3","no","left","d","742.351780569","912.232853527","15","green","1"
"100","82","20","785.811513502","1","0","4","337","1","right","2","in","Female","Right-handed","3","no","right","s","574.981575002","1079.88496642","15","green","0"
"100","82","20","784.176344349","1","1","4","338","3","right","3","out","Female","Right-handed","3","no","right","d","581.382057866","895.40115829","15","red","2"
"100","83","20","778.604586548","1","1","4","339","3","right","1","in","Female","Right-handed","3","no","right","s","482.092951803","751.954268795","15","red","3"
"100","83","20","784.156291183","1","1","4","340","2","left","3","in","Female","Right-handed","3","no","left","d","669.720074689","1231.69478577","15","green","1"
"100","84","20","788.937216208","1","1","4","341","0","left","3","out","Female","Right-handed","3","no","left","d","946.059487258","928.232296763","15","green","1"
"100","84","20","787.430809183","1","1","4","342","3","right","0","out","Female","Right-handed","3","no","right","d","790.731118144","687.720450566","15","green","1"
"100","82","20","788.413094007","1","0","4","343","0","right","3","in","Female","Right-handed","3","no","right","d","642.388534357","999.268452099","15","red","0"
"100","82","20","784.786855064","1","1","4","344","3","left","3","out","Female","Right-handed","3","no","left","s","531.006919074","791.982542913","15","red","0"
"100","80","20","780.975747489","1","0","4","345","1","left","1","out","Female","Right-handed","3","no","left","s","671.539162667","623.634802054","15","red","2"
"100","81","20","782.288950334","1","1","4","346","3","right","1","in","Female","Right-handed","3","no","right","s","954.969233935","704.159271543","15","green","2"
"100","78","20","796.367525991","1","0","4","347","3","left","1","in","Female","Right-handed","3","no","left","d","570.905624867","2063.64402578","15","green","3"
"100","79","20","800.554882358","1","1","4","348","1","right","3","in","Female","Right-handed","3","no","right","d","736.10427813","1183.24457048","15","green","0"
"100","80","20","797.626674687","1","1","4","349","0","right","3","in","Female","Right-handed","3","no","right","d","534.79005762","832.06309336","15","green","0"
"100","80","20","794.401866097","1","1","4","350","3","right","2","out","Female","Right-handed","3","no","right","d","603.45742173","727.361623274","15","red","0"
"100","78","20","793.105258412","1","0","4","351","0","right","0","in","Female","Right-handed","3","no","right","d","599.912894166","879.975792534","15","red","3"
"100","79","20","795.488793675","1","1","4","352","2","left","1","in","Female","Right-handed","3","no","left","s","647.581530229","1143.61301918","15","red","0"
"100","79","20","801.84569118","1","1","4","353","0","right","1","in","Female","Right-handed","3","no","right","d","495.223931914","1655.16063586","15","green","0"
"100","80","20","801.420519275","1","1","4","354","1","left","3","in","Female","Right-handed","3","no","left","s","581.545621841","983.880289132","15","green","2"
"100","80","20","800.680329227","1","1","4","355","0","right","3","out","Female","Right-handed","3","no","right","s","607.395785693","927.34776844","15","green","2"
"100","80","20","799.389032938","1","1","4","356","1","right","3","out","Female","Right-handed","3","no","right","s","735.998442615","743.980364623","15","red","2"
"100","81","20","802.548899348","1","1","4","357","1","right","2","in","Female","Right-handed","3","no","right","s","750.543449325","1151.58179193","15","green","3"
"100","81","20","799.775918008","1","1","4","358","3","left","3","out","Female","Right-handed","3","no","left","d","589.137876734","744.207750624","15","green","2"
"100","82","20","797.844714286","1","1","4","359","2","right","2","in","Female","Right-handed","3","no","right","d","710.787461121","695.644002688","15","green","3"
"100","80","20","801.050998845","1","0","4","360","3","right","0","out","Female","Right-handed","3","no","right","s","491.300320777","1431.43013284","15","green","3"
"100","80","20","804.37461721","1","1","4","361","3","right","0","in","Female","Right-handed","3","no","right","s","1099.93726841","847.821039202","15","red","2"
"100","79","20","809.769610912","1","0","4","362","3","left","2","out","Female","Right-handed","3","no","left","s","1253.31698121","927.301585671","15","green","3"
"100","79","20","809.765035419","1","1","4","363","3","left","3","in","Female","Right-handed","3","no","left","d","731.085429787","887.959638825","15","red","2"
"100","80","20","806.9978325","1","1","4","364","0","left","3","in","Female","Right-handed","3","no","left","s","539.56356","775.574189735","15","green","1"
"100","78","20","806.920355156","1","0","4","365","2","left","1","in","Female","Right-handed","3","no","left","s","486.120153455","1119.19804903","15","red","3"
"100","78","20","804.267843251","1","1","4","366","3","left","0","out","Female","Right-handed","3","no","left","s","543.737007087","767.717346058","15","red","3"
"100","79","20","802.287576567","1","1","4","367","3","right","3","in","Female","Right-handed","3","no","right","s","811.429978905","567.394772239","15","red","0"
"100","79","20","808.359199797","1","1","4","368","1","right","1","in","Female","Right-handed","3","no","right","s","842.016121634","1479.01057265","15","red","3"
"100","80","20","807.671885427","1","1","4","369","0","left","3","out","Female","Right-handed","3","no","left","s","862.57579266","671.66488243","15","red","1"
"100","80","20","805.392696391","1","1","4","370","1","left","3","out","Female","Right-handed","3","no","left","s","450.230368635","887.052339829","15","green","0"
"100","80","20","802.018757591","1","1","4","371","0","left","2","in","Female","Right-handed","3","no","left","d","496.698894112","695.718087547","15","red","3"
"100","80","20","811.744639747","1","1","4","372","0","right","0","out","Female","Right-handed","3","no","right","s","782.305328401","2047.19333839","15","green","1"
"100","81","20","809.47935071","1","1","4","373","1","left","0","in","Female","Right-handed","3","no","left","s","613.81198353","719.720299189","15","red","3"
"100","80","20","808.702316475","1","0","4","374","2","right","3","out","Female","Right-handed","3","no","right","s","526.435466312","991.508784668","15","green","0"
"100","80","20","815.191367227","1","1","4","375","0","right","3","out","Female","Right-handed","3","no","right","d","1131.00416094","1342.95517128","15","green","1"
"100","80","20","813.740981831","1","1","4","376","2","right","3","in","Female","Right-handed","3","no","right","s","588.453794458","847.577296808","15","red","2"
"100","80","20","816.909242387","1","1","4","377","0","left","3","out","Female","Right-handed","3","no","left","s","1267.29368329","791.07171607","15","green","2"
"100","81","20","815.486855866","1","1","4","378","1","left","2","in","Female","Right-handed","3","no","left","d","541.776484377","895.752660483","15","green","1"
"100","81","20","826.91972106","1","1","4","379","0","left","0","in","Female","Right-handed","3","no","left","s","824.273599556","2407.3012393","15","green","2"
"100","81","20","828.933501537","1","1","4","380","0","right","2","out","Female","Right-handed","3","no","right","s","628.96538409","1310.83088575","15","red","3"
"100","81","20","832.350027425","1","1","4","381","2","left","3","in","Female","Right-handed","3","no","left","d","734.405137063","1415.44159387","15","green","0"
"100","80","20","836.624028472","1","0","4","382","2","right","2","out","Female","Right-handed","3","no","right","s","841.946526769","1446.75768093","15","red","3"
"100","81","20","835.829938348","1","1","4","383","0","right","3","out","Female","Right-handed","3","no","right","d","484.391827445","1071.33089121","15","green","0"
"98","80","20","841.04699332","0","0","4","384","3","left","3","out","Female","Right-handed","3","no","right","s","588.218390622","1865.99973188","15","red","2"
"98","80","20","840.040772246","1","1","4","385","1","right","1","out","Female","Right-handed","3","no","right","d","633.511821186","895.63656213","15","green","0"
"98","80","20","839.511204116","1","1","4","386","0","left","1","in","Female","Right-handed","3","no","left","d","647.180317417","951.347735088","15","green","3"
"98","80","20","838.859957774","1","1","4","387","1","left","2","in","Female","Right-handed","3","no","left","d","762.781562553","814.646416376","15","green","3"
"98","81","20","838.465679134","1","1","4","388","0","left","1","out","Female","Right-handed","3","no","left","s","616.225353955","999.198536519","15","red","3"
"98","81","20","836.852673517","1","1","4","389","3","left","3","in","Female","Right-handed","3","no","left","d","763.971410302","654.879049249","15","green","1"
"98","81","20","836.485202433","1","1","4","390","0","left","3","out","Female","Right-handed","3","no","left","d","742.590070833","871.58496058","15","green","2"
"98","81","20","833.956342467","1","1","4","391","1","right","3","in","Female","Right-handed","3","no","right","d","555.078084158","703.159286295","15","green","0"
"98","81","20","835.694922667","1","1","4","392","3","right","1","out","Female","Right-handed","3","no","right","d","637.796876635","1318.72012151","15","red","0"
"98","80","20","840.606806467","1","0","4","393","2","left","2","out","Female","Right-handed","3","no","left","d","1241.31747896","1255.26884465","15","red","1"
"98","81","20","841.280147888","1","1","4","394","2","left","3","out","Female","Right-handed","3","no","left","d","564.987174661","1230.69447981","15","green","2"
"98","81","20","841.611847127","1","1","4","395","3","right","2","out","Female","Right-handed","3","no","right","d","948.211155319","791.401409729","15","red","1"
"98","81","20","840.161974489","1","1","4","396","2","right","3","out","Female","Right-handed","3","no","right","d","647.984988034","782.96086716","15","green","1"
"98","81","20","838.269232849","1","1","4","397","1","right","1","out","Female","Right-handed","3","no","right","s","516.642474166","830.558946215","15","red","3"
"98","82","20","837.987406504","1","1","4","398","1","left","3","out","Female","Right-handed","3","no","left","s","651.204632643","975.168743502","15","red","1"
"98","82","20","836.70244299","1","1","4","399","2","right","0","out","Female","Right-handed","3","no","right","s","589.868141778","854.813238806","15","red","3"
"98","82","20","835.446078152","1","1","4","400","3","right","3","in","Female","Right-handed","3","no","right","s","853.415247882","591.331237578","15","green","1"
"98","82","20","833.386370196","1","1","4","401","2","left","2","out","Female","Right-handed","3","no","left","s","700.964321884","590.941570459","15","red","0"
"98","82","20","834.705234369","1","1","4","402","3","right","3","in","Female","Right-handed","3","no","right","d","601.545006073","1310.5364706","15","red","0"
"98","82","20","834.077402145","1","1","4","403","1","right","0","out","Female","Right-handed","3","no","right","s","760.180574627","791.197435832","15","green","2"
"98","83","20","833.474405715","1","1","4","404","0","left","3","in","Female","Right-handed","3","no","left","s","682.825076987","870.760405712","15","red","0"
"98","82","20","832.712478424","1","0","4","405","2","right","0","out","Female","Right-handed","3","no","right","s","601.326279342","919.332492205","15","red","3"
"100","100","20","603.34036124","1","1","5","406","2","right","3","in","Female","Right-handed","3","no","right","d","606.322998443","600.357724037","15","green","2"
"100","100","20","658.60405844","1","1","5","407","0","left","3","out","Female","Right-handed","3","no","left","s","747.839512311","679.895998968","15","green","1"
"100","100","20","679.422091058","1","1","5","408","0","right","0","out","Female","Right-handed","3","no","right","d","586.621236507","855.495076081","15","green","1"
"100","75","20","699.243051578","1","0","5","409","2","right","3","out","Female","Right-handed","3","no","right","s","485.183348803","1032.22851748","15","green","2"
"100","80","20","765.631392225","1","1","5","410","0","left","1","out","Female","Right-handed","3","no","left","d","894.615089066","1167.75442056","15","red","3"
"100","83","20","753.395422433","1","1","5","411","1","right","1","out","Female","Right-handed","3","no","right","s","729.37923302","655.051913924","15","red","2"
"100","85","20","751.544602889","1","1","5","412","3","right","2","out","Female","Right-handed","3","no","right","s","600.996906396","879.882464851","15","red","3"
"100","87","20","753.919702436","1","1","5","413","3","right","0","out","Female","Right-handed","3","no","right","d","581.564543951","959.526254585","15","green","3"
"100","88","20","754.05857814","1","1","5","414","3","left","3","out","Female","Right-handed","3","no","left","s","815.147050431","695.192117113","15","red","1"
"100","90","20","750.677780251","1","1","5","415","0","right","3","in","Female","Right-handed","3","no","right","d","696.729297772","743.771900735","15","green","2"
"100","90","20","766.462903662","1","1","5","416","2","left","2","out","Female","Right-handed","3","no","left","s","913.329694304","935.298581229","15","red","3"
"100","91","20","769.624657024","1","1","5","417","1","left","3","in","Female","Right-handed","3","no","left","s","584.896117634","1023.91177039","15","red","0"
"100","84","20","765.99886349","1","0","5","418","1","right","3","out","Female","Right-handed","3","no","right","s","837.483154512","607.495527649","15","red","2"
"100","85","20","773.893695878","1","1","5","419","0","left","2","out","Female","Right-handed","3","no","left","s","729.006563724","1024.04647013","15","red","3"
"100","86","20","773.302596135","1","1","5","420","1","left","3","in","Female","Right-handed","3","no","left","s","554.461351759","975.593047697","15","green","0"
"100","87","20","768.736273455","1","1","5","421","2","left","3","out","Female","Right-handed","3","no","left","s","713.247014315","687.235852198","15","green","1"
"100","82","20","753.068777124","1","0","5","422","3","left","3","in","Female","Right-handed","3","no","left","d","692.851227981","311.926443675","15","green","0"
"100","77","20","761.063606289","1","0","5","423","1","right","2","out","Female","Right-handed","3","no","right","s","770.546040691","1023.40536348","15","red","3"
"100","78","20","758.792483633","1","1","5","424","1","left","3","out","Female","Right-handed","3","no","left","d","723.937684048","711.886867608","15","green","2"
"100","80","20","755.358371878","1","1","5","425","1","left","3","in","Female","Right-handed","3","no","left","d","652.641109209","727.579387858","15","red","1"
"100","80","20","750.183746029","1","1","5","426","1","right","3","out","Female","Right-handed","3","no","right","s","758.206581944","535.175876176","15","red","2"
"100","81","20","752.300741613","1","1","5","427","0","left","0","in","Female","Right-handed","3","no","left","s","721.672162632","871.84313509","15","red","3"
"100","78","20","766.955218805","1","0","5","428","3","left","3","out","Female","Right-handed","3","no","left","d","675.272590593","1503.43484349","15","green","2"
"100","79","20","771.186499227","1","1","5","429","2","right","3","out","Female","Right-handed","3","no","right","d","753.976047821","983.035850015","15","red","1"
"100","80","20","770.901115635","1","1","5","430","1","left","3","in","Female","Right-handed","3","no","left","s","528.63171358","999.472105287","15","red","1"
"100","76","20","773.141169428","1","0","5","431","2","right","2","in","Female","Right-handed","3","no","right","s","691.164594748","967.120433758","15","green","0"
"100","74","20","797.218431268","1","0","5","432","2","left","0","out","Female","Right-handed","3","no","left","s","934.801475025","1911.65300319","15","green","1"
"100","75","20","801.821334121","1","1","5","433","0","left","2","out","Female","Right-handed","3","no","left","d","965.031625576","887.167796755","15","green","1"
"100","75","20","800.420630365","1","1","5","434","1","right","2","in","Female","Right-handed","3","no","right","s","634.59102271","887.81082768","15","green","3"
"100","76","20","794.456592366","1","1","5","435","0","right","1","in","Female","Right-handed","3","no","right","d","491.5751724","751.423808372","15","red","0"
"100","77","20","793.34483116","1","1","5","436","0","left","3","out","Female","Right-handed","3","no","left","d","577.110151676","942.873838296","15","red","1"
"100","75","20","803.023963165","1","0","5","437","2","right","0","out","Female","Right-handed","3","no","right","s","494.676473663","1711.47763696","15","green","3"
"100","75","20","815.054179522","1","1","5","438","3","right","0","in","Female","Right-handed","3","no","right","d","657.109612879","1742.93259304","15","red","3"
"100","76","20","820.879774403","1","1","5","439","0","left","2","out","Female","Right-handed","3","no","left","d","890.61290308","1135.63590787","15","red","3"
"100","77","20","832.399787743","1","1","5","440","3","left","3","in","Female","Right-handed","3","no","left","d","929.069359466","1519.09112309","15","green","1"
"100","77","20","827.757574598","1","1","5","441","1","left","1","in","Female","Right-handed","3","no","left","d","530.710900351","799.849328716","15","red","0"
"100","78","20","837.135453214","1","1","5","442","2","right","1","out","Female","Right-handed","3","no","right","s","574.330526233","1775.14764054","15","green","2"
"100","78","20","847.786992913","1","1","5","443","1","left","3","in","Female","Right-handed","3","no","left","s","484.907535039","1998.88038855","15","red","1"
"100","79","20","842.817515217","1","1","5","444","2","right","3","in","Female","Right-handed","3","no","right","d","684.607924322","623.346801167","15","green","0"
"100","80","20","838.333719259","1","1","5","445","1","left","2","out","Female","Right-handed","3","no","left","s","544.028856533","782.902497271","15","green","0"
"100","80","20","836.49882557","1","1","5","446","1","right","0","in","Female","Right-handed","3","no","right","s","750.638701287","775.567454744","15","red","2"
"100","80","20","832.160533048","1","1","5","447","3","right","3","in","Female","Right-handed","3","no","right","s","581.329781536","727.251297769","15","red","0"
"100","81","20","835.606983229","1","1","5","448","0","right","3","out","Female","Right-handed","3","no","right","d","465.922888889","1494.79289273","15","red","0"
"100","79","20","830.523948332","1","0","5","449","3","right","1","in","Female","Right-handed","3","no","right","s","512.393659363","711.513236172","15","red","3"
"100","80","20","830.555753329","1","1","5","450","2","right","3","out","Female","Right-handed","3","no","right","s","704.847523098","959.062823317","15","green","0"
"100","80","20","834.850691329","1","1","5","451","3","right","2","in","Female","Right-handed","3","no","right","s","697.451544973","1358.79425769","15","red","3"
"100","80","20","832.932036364","1","1","5","452","1","right","3","in","Female","Right-handed","3","no","right","s","674.095892107","815.251923803","15","green","2"
"100","81","20","828.970324417","1","1","5","453","1","left","3","in","Female","Right-handed","3","no","left","s","510.725627526","774.814098316","15","green","1"
"100","81","20","851.463806604","1","1","5","454","3","left","1","in","Female","Right-handed","3","no","left","d","2503.20328821","1359.09861496","15","green","2"
"100","80","20","848.101512935","1","0","5","455","2","left","3","out","Female","Right-handed","3","no","left","s","679.853985475","686.844260796","15","green","0"
"100","80","20","845.880296978","1","1","5","456","0","right","3","in","Female","Right-handed","3","no","right","s","614.428715933","855.210282338","15","green","2"
"100","80","20","848.074174807","1","1","5","457","1","left","1","in","Female","Right-handed","3","no","left","s","1000.99389168","918.929996544","15","red","3"
"100","79","20","851.206159968","1","0","5","458","1","left","3","in","Female","Right-handed","3","no","left","s","1069.55958956","958.579187092","15","green","0"
"100","79","20","849.215335977","1","1","5","459","2","right","3","in","Female","Right-handed","3","no","right","s","512.159859092","975.243469787","15","green","2"
"100","78","20","852.313074511","1","0","5","460","3","left","2","out","Female","Right-handed","3","no","left","d","552.690050117","1486.49186061","15","green","0"
"100","78","20","848.249458269","1","1","5","461","2","right","1","out","Female","Right-handed","3","no","right","d","498.309838917","751.191290957","15","green","3"
"100","78","20","851.864178073","1","1","5","462","3","left","3","in","Female","Right-handed","3","no","left","d","1013.78844315","1094.78853102","15","green","0"
"100","77","20","856.363223126","1","0","5","463","3","right","3","out","Female","Right-handed","3","no","right","s","466.3077453","1759.30983699","15","green","0"
"100","77","20","857.407366719","1","1","5","464","3","left","0","in","Female","Right-handed","3","no","left","d","796.980224153","1038.95516615","15","red","2"
"100","76","20","865.710584449","1","0","5","465","0","left","3","in","Female","Right-handed","3","no","left","d","672.595272808","2038.60558824","15","green","1"
"100","77","20","864.090552277","1","1","5","466","0","right","3","out","Female","Right-handed","3","no","right","s","774.811853324","758.965390505","15","red","2"
"100","77","20","861.471324587","1","1","5","467","2","right","1","in","Female","Right-handed","3","no","right","d","580.705031291","822.691839697","15","red","0"
"100","77","20","863.728501251","1","1","5","468","3","left","3","out","Female","Right-handed","3","no","left","d","984.169252152","1023.17765677","15","red","2"
"100","76","20","862.042202773","1","0","5","469","3","right","3","in","Female","Right-handed","3","no","right","d","976.863715288","534.747081987","15","red","1"
"100","76","20","872.431617553","1","1","5","470","1","right","2","out","Female","Right-handed","3","no","right","s","1515.35929874","1559.3490282","15","red","1"
"100","75","20","877.785704427","1","0","5","471","3","left","3","in","Female","Right-handed","3","no","left","s","732.728125244","1718.87457722","15","red","2"
"100","74","20","878.898802494","1","0","5","472","3","right","3","in","Female","Right-handed","3","no","right","d","497.267519466","1407.45903043","15","green","1"
"100","75","20","880.951721895","1","1","5","473","3","left","1","in","Female","Right-handed","3","no","left","d","614.12949007","1422.86515337","15","green","3"
"100","75","20","880.996549799","1","1","5","474","0","left","1","out","Female","Right-handed","3","no","left","s","681.681091301","1086.40860334","15","red","3"
"100","75","20","876.984409009","1","1","5","475","0","right","3","out","Female","Right-handed","3","no","right","s","505.209993695","695.083395178","15","red","0"
"100","74","20","880.114749637","1","0","5","476","2","left","0","in","Female","Right-handed","3","no","left","s","655.745938322","1542.73124899","15","red","3"
"100","73","20","881.519979892","1","0","5","477","1","right","0","in","Female","Right-handed","3","no","right","d","675.367521839","1287.2151341","15","red","1"
"100","73","20","879.716308806","1","1","5","478","1","left","3","out","Female","Right-handed","3","no","left","s","532.819592783","966.88438849","15","red","0"
"100","72","20","887.555164703","1","0","5","479","3","right","0","in","Female","Right-handed","3","no","right","s","1721.31488759","1198.26840271","15","red","1"
"100","73","20","892.426034339","1","1","5","480","1","left","0","out","Female","Right-handed","3","no","left","s","1162.90202261","1342.83875222","15","red","3"
"100","73","20","889.992674478","1","1","5","481","2","left","0","out","Female","Right-handed","3","no","left","s","656.461129824","758.52023992","15","red","2"
"100","72","20","892.401952268","1","0","5","482","2","right","3","out","Female","Right-handed","3","no","right","s","664.09475678","1486.91937194","15","green","1"
"100","71","20","892.839204918","1","0","5","483","0","left","3","in","Female","Right-handed","3","no","left","s","582.582489162","1270.43282877","15","green","0"
"100","72","20","895.482085718","1","1","5","484","1","left","0","in","Female","Right-handed","3","no","left","d","572.200987415","1631.0525887","15","green","3"
"100","72","20","891.709818024","1","1","5","485","0","right","3","in","Female","Right-handed","3","no","right","s","444.75867258","742.642667876","15","red","0"
"100","72","20","891.290064275","1","1","5","486","0","left","1","in","Female","Right-handed","3","no","left","d","821.195068962","894.224459807","15","green","2"
"100","71","20","896.027162055","1","0","5","487","2","right","3","in","Female","Right-handed","3","no","right","d","1440.69587171","1118.76829271","15","green","1"
"100","72","20","897.452493205","1","1","5","488","0","right","3","in","Female","Right-handed","3","no","right","s","1006.31356946","1022.3457255","15","red","2"
"100","71","20","897.297757802","1","0","5","489","0","right","0","out","Female","Right-handed","3","no","right","s","602.016775891","1166.89266291","15","red","3"
"100","71","20","896.111780564","1","1","5","490","2","left","1","in","Female","Right-handed","3","no","left","s","530.439576582","1062.53980858","15","red","3"
"100","72","20","894.618201107","1","1","5","491","0","left","0","out","Female","Right-handed","3","no","left","s","561.154004783","974.173889673","15","green","2"
"100","72","20","897.07874887","1","1","5","492","2","left","2","out","Female","Right-handed","3","no","left","s","714.702092275","1502.66962066","15","green","3"
"100","72","20","896.922232196","1","1","5","493","3","right","1","out","Female","Right-handed","3","no","right","d","720.331258744","1046.27930441","15","green","0"
"100","71","20","897.926369502","1","0","5","494","1","right","1","out","Female","Right-handed","3","no","right","s","757.781636323","1214.79926852","15","green","3"
"100","72","20","907.691843617","1","1","5","495","3","right","3","out","Female","Right-handed","3","no","right","d","1379.49375987","2174.14431987","15","red","2"
"100","71","20","912.412810903","1","0","5","496","3","left","2","out","Female","Right-handed","3","no","left","d","891.876835681","1782.72289761","15","green","1"
"100","70","20","915.509065753","1","0","5","497","2","right","3","in","Female","Right-handed","3","no","right","s","892.372017603","1502.16449661","15","green","0"
"100","70","20","915.909285798","1","1","5","498","2","left","2","out","Female","Right-handed","3","no","left","s","738.680571103","1166.77848883","15","red","1"
"100","71","20","918.935235435","1","1","5","499","0","left","2","in","Female","Right-handed","3","no","left","d","650.313690046","1750.3834132","15","red","0"
"100","71","20","917.198081916","1","1","5","500","2","right","3","in","Female","Right-handed","3","no","right","d","588.974954189","918.836348151","15","green","2"
"100","71","20","916.655880999","1","1","5","501","0","right","3","out","Female","Right-handed","3","no","right","s","867.598810281","862.694777435","15","green","1"
dis_reply=No
dis_loc=2
