"acc_1","acc_2","age","avg_rt","correct_1","correct_2","count_block_loop","count_trial_sequence","cue_position","detection","dis_position","dis_shape","gender","hand","high_loc","practice","response_keyboard_response_1","response_keyboard_response_2","response_time_keyboard_response_1","response_time_keyboard_response_2","subject_nr","tar_color","tar_position"
"100","100","19","1069.61715767","1","1","0","0","1","right","0","in","Female","Right-handed","2","yes","right","s","1177.96337834","961.27093699","6","green","2"
"100","50","19","1024.07509382","1","0","0","1","2","right","2","out","Female","Right-handed","2","yes","right","s","1371.44448799","585.621571972","6","green","0"
"100","33","19","965.419314959","1","0","0","2","2","right","3","in","Female","Right-handed","2","yes","right","s","926.164014258","770.0515002","6","green","2"
"100","50","19","893.989136144","1","1","0","3","2","left","1","in","Female","Right-handed","2","yes","left","d","781.759473721","577.637725677","6","red","2"
"100","60","19","839.148492356","1","1","0","4","0","left","3","out","Female","Right-handed","2","yes","left","d","685.190981789","554.380852624","6","red","0"
"100","50","19","815.856068191","1","0","0","5","3","left","3","out","Female","Right-handed","2","yes","left","d","796.940455657","601.847439069","6","red","2"
"100","57","19","844.441312649","1","1","0","6","3","left","1","out","Female","Right-handed","2","yes","left","d","1150.42209127","881.483467532","6","green","2"
"100","50","19","870.457692093","1","0","0","7","1","right","0","in","Female","Right-handed","2","yes","right","d","1359.00432515","746.140371248","6","green","3"
"100","55","19","839.698965313","1","1","0","8","3","right","0","out","Female","Right-handed","2","yes","right","d","729.706681686","457.551620471","6","red","3"
"100","60","19","836.010870269","1","1","0","9","3","left","0","in","Female","Right-handed","2","yes","left","s","1059.38109957","546.254930174","6","red","2"
"100","54","19","852.533780917","1","0","0","10","0","left","2","out","Female","Right-handed","2","yes","left","d","1033.68391615","1001.84185865","6","red","0"
"100","50","19","862.053336716","1","0","0","11","2","left","1","in","Female","Right-handed","2","yes","left","d","1308.40629035","625.130610646","6","red","0"
"100","46","19","857.239166403","1","0","0","12","1","right","1","out","Female","Right-handed","2","yes","right","s","1093.02204008","505.916205213","6","red","0"
"100","42","19","863.253827191","1","0","0","13","0","right","0","in","Female","Right-handed","2","yes","right","d","993.365396149","889.52343872","6","red","2"
"100","46","19","866.965197649","1","1","0","14","2","right","1","in","Female","Right-handed","2","yes","right","d","1188.03795711","649.810811003","6","green","3"
"100","50","19","875.511227625","1","1","0","15","1","right","3","in","Female","Right-handed","2","yes","right","s","757.74507496","1249.65827958","6","green","1"
"100","52","19","888.752678856","1","1","0","16","3","left","3","out","Female","Right-handed","2","yes","left","d","1552.00885427","649.22294283","6","green","0"
"100","55","19","876.975533894","1","1","0","17","3","right","2","out","Female","Right-handed","2","yes","right","d","687.878241693","665.649897404","6","red","3"
"100","57","19","890.599154592","1","1","0","18","2","right","2","in","Female","Right-handed","2","yes","right","d","1582.46061796","689.188036351","6","red","1"
"100","60","19","907.769120469","1","1","0","19","3","left","3","in","Female","Right-handed","2","yes","left","d","1377.98704702","1090.00989723","6","green","0"
"100","61","19","901.609968917","1","1","0","20","3","left","2","in","Female","Right-handed","2","yes","left","d","843.425658248","713.428217543","6","green","0"
"100","63","19","900.81120443","1","1","0","21","1","right","3","in","Female","Right-handed","2","yes","right","d","1150.08726619","617.987034188","6","red","0"
"100","100","19","946.29312717","1","1","1","22","0","right","2","in","Female","Right-handed","2","no","right","d","1123.2913177","769.294936636","6","green","3"
"100","100","19","996.053137125","1","1","1","23","0","right","2","in","Female","Right-handed","2","no","right","s","1185.72529078","905.901003385","6","red","3"
"100","100","19","981.288869161","1","1","1","24","2","right","2","out","Female","Right-handed","2","no","right","d","1342.36537883","561.15528764","6","green","1"
"100","100","19","1072.4525472","1","1","1","25","0","left","0","out","Female","Right-handed","2","no","left","s","1625.95227909","1065.93488358","6","green","1"
"100","100","19","1059.34046515","1","1","1","26","0","right","2","in","Female","Right-handed","2","no","right","d","1276.41029029","737.373983578","6","green","1"
"100","100","19","1048.94496959","1","1","1","27","3","right","3","out","Female","Right-handed","2","no","right","d","1311.87737448","682.057609156","6","red","0"
"100","100","19","1031.10682139","1","1","1","28","0","left","3","in","Female","Right-handed","2","no","left","s","1086.57280874","761.583055541","6","red","1"
"100","100","19","1087.41566433","1","1","1","29","1","right","1","out","Female","Right-handed","2","no","right","d","1905.19158473","1057.96354512","6","green","0"
"100","100","19","1083.44454971","1","1","1","30","1","left","2","out","Female","Right-handed","2","no","left","d","1285.65454134","817.696724163","6","green","0"
"100","90","19","1087.87453745","1","0","1","31","2","right","3","out","Female","Right-handed","2","no","right","d","974.18415251","1281.30470173","6","red","2"
"100","90","19","1069.63667747","1","1","1","32","2","right","2","in","Female","Right-handed","2","no","right","d","1076.66788752","697.848267791","6","red","3"
"100","83","19","1099.81805646","1","0","1","33","2","left","2","out","Female","Right-handed","2","no","left","d","1702.31196076","1161.31448991","6","red","0"
"100","84","19","1101.16169155","1","1","1","34","1","right","3","out","Female","Right-handed","2","no","right","d","1464.86260947","769.708015854","6","red","2"
"100","78","19","1102.57590583","1","0","1","35","3","right","0","in","Female","Right-handed","2","no","right","d","1520.48366188","721.437720931","6","red","2"
"100","73","19","1111.42419537","1","0","1","36","2","left","1","out","Female","Right-handed","2","no","left","s","1524.74177738","945.858720494","6","red","3"
"100","68","19","1087.11105649","1","0","1","37","2","left","3","in","Female","Right-handed","2","no","left","d","795.466455595","649.361491138","6","red","2"
"100","70","19","1080.07170667","1","1","1","38","3","right","0","out","Female","Right-handed","2","no","right","s","1181.03421181","753.850007342","6","red","1"
"100","72","19","1069.05061696","1","1","1","39","1","right","2","in","Female","Right-handed","2","no","right","d","1089.66416788","673.720015679","6","green","1"
"100","73","19","1057.47543578","1","1","1","40","1","right","3","out","Female","Right-handed","2","no","right","d","793.208952018","905.035397169","6","red","1"
"100","75","19","1041.29417911","1","1","1","41","3","right","0","out","Female","Right-handed","2","no","right","d","625.842595007","841.85800979","6","green","3"
"100","76","19","1043.09984064","1","1","1","42","0","right","2","out","Female","Right-handed","2","no","right","d","1213.18030587","945.245836654","6","green","3"
"100","77","19","1056.63458053","1","1","1","43","1","right","0","in","Female","Right-handed","2","no","right","s","1616.00534437","1065.72289184","6","red","2"
"100","78","19","1104.27091197","1","1","1","44","0","left","3","in","Female","Right-handed","2","no","left","s","1735.32815103","2569.21225665","6","red","2"
"100","79","19","1086.52908477","1","1","1","45","0","right","2","out","Female","Right-handed","2","no","right","d","748.035468369","608.898649989","6","green","0"
"100","80","19","1108.76425813","1","1","1","46","3","right","3","out","Female","Right-handed","2","no","right","s","971.44654056","2313.37029665","6","red","2"
"100","76","19","1108.27292527","1","0","1","47","0","right","0","in","Female","Right-handed","2","no","right","d","1119.06687714","1072.91233035","6","green","2"
"100","74","19","1101.70625972","1","0","1","48","2","left","2","out","Female","Right-handed","2","no","left","d","1140.6005556","721.345355392","6","green","1"
"100","75","19","1121.51861867","1","1","1","49","0","left","2","out","Female","Right-handed","2","no","left","d","2335.91101606","976.993604327","6","red","3"
"100","72","19","1145.84291373","1","0","1","50","0","right","2","in","Female","Right-handed","2","no","right","d","1860.38179039","1793.46456082","6","green","1"
"100","73","19","1156.71033504","1","1","1","51","1","left","2","out","Female","Right-handed","2","no","left","s","2118.82056903","824.910536921","6","green","3"
"100","74","19","1146.94350657","1","1","1","52","0","left","2","in","Female","Right-handed","2","no","left","d","778.516737726","929.360567483","6","green","0"
"100","75","19","1146.97721045","1","1","1","53","2","right","2","in","Female","Right-handed","2","no","right","d","1366.9872093","929.05685163","6","green","3"
"100","72","19","1144.92982095","1","0","1","54","2","left","2","out","Female","Right-handed","2","no","left","s","1101.4449434","1057.3817705","6","red","3"
"100","73","19","1133.90652068","1","1","1","55","3","right","1","out","Female","Right-handed","2","no","right","d","723.142955554","817.132268094","6","green","3"
"100","74","19","1137.58645639","1","1","1","56","3","left","2","in","Female","Right-handed","2","no","left","s","1700.82064216","824.587898958","6","green","0"
"100","75","19","1131.3386564","1","1","1","57","2","left","0","out","Female","Right-handed","2","no","left","s","1008.18429234","817.147020924","6","green","3"
"100","75","19","1118.85079847","1","1","1","58","0","right","2","in","Female","Right-handed","2","no","right","d","697.849229935","640.726596081","6","green","0"
"100","76","19","1111.0906689","1","1","1","59","3","left","1","in","Female","Right-handed","2","no","left","s","1119.52678055","528.404969009","6","green","2"
"100","76","19","1098.0767878","1","1","1","60","2","left","0","in","Female","Right-handed","2","no","left","s","661.973877228","545.12473517","6","green","2"
"100","77","19","1106.57851103","1","1","1","61","0","right","0","out","Female","Right-handed","2","no","right","d","1490.85035949","1385.44107432","6","red","2"
"100","78","19","1098.36088246","1","1","1","62","1","left","2","out","Female","Right-handed","2","no","left","d","730.149587274","809.161891771","6","green","1"
"100","78","19","1114.71534615","1","1","1","63","0","left","2","in","Female","Right-handed","2","no","left","s","601.849684063","2968.64703087","6","green","0"
"100","79","19","1111.65742158","1","1","1","64","3","right","2","out","Female","Right-handed","2","no","right","s","693.251157936","1273.1980221","6","green","3"
"100","79","19","1104.43010623","1","1","1","65","2","left","1","out","Female","Right-handed","2","no","left","s","674.711341653","912.599749972","6","green","2"
"100","77","19","1101.18421031","1","0","1","66","3","left","2","in","Female","Right-handed","2","no","left","d","1147.37755633","769.352023672","6","green","1"
"100","78","19","1099.04629443","1","1","1","67","1","left","2","in","Female","Right-handed","2","no","left","d","996.987215713","1008.69294424","6","red","3"
"100","78","19","1089.10709846","1","1","1","68","2","left","0","in","Female","Right-handed","2","no","left","s","670.433341907","593.374825134","6","green","2"
"100","79","19","1080.7741785","1","1","1","69","1","left","1","in","Female","Right-handed","2","no","left","s","793.130056449","585.123824345","6","red","3"
"100","79","19","1072.50927507","1","1","1","70","1","left","2","out","Female","Right-handed","2","no","left","s","758.86468641","592.723134938","6","red","3"
"100","80","19","1069.80765518","1","1","1","71","3","left","3","in","Female","Right-handed","2","no","left","d","1113.4736306","761.382930206","6","green","1"
"100","78","19","1062.35901097","1","0","1","72","2","right","2","out","Female","Right-handed","2","no","right","s","770.912295713","608.941304909","6","green","3"
"100","78","19","1061.42678719","1","1","1","73","2","right","2","out","Female","Right-handed","2","no","right","s","898.486103157","1129.28064563","6","green","0"
"100","79","19","1055.70408398","1","1","1","74","1","right","2","out","Female","Right-handed","2","no","right","s","747.232722031","769.014312165","6","red","1"
"100","79","19","1055.66660861","1","1","1","75","2","left","2","in","Female","Right-handed","2","no","left","d","1234.69602437","872.664803537","6","green","1"
"100","80","19","1056.64015511","1","1","1","76","0","right","2","in","Female","Right-handed","2","no","right","d","977.230932451","1241.19240062","6","green","1"
"100","80","19","1061.71478697","1","1","1","77","0","right","1","out","Female","Right-handed","2","no","right","d","664.904238103","2016.7348397","6","green","3"
"100","78","19","1064.54933016","1","0","1","78","2","right","3","in","Female","Right-handed","2","no","right","d","1165.24002532","1281.3274724","6","red","1"
"100","79","19","1069.7670056","1","1","1","79","1","left","0","out","Female","Right-handed","2","no","left","d","1829.7193178","904.629694367","6","red","1"
"100","79","19","1068.25905755","1","1","1","80","3","left","2","in","Female","Right-handed","2","no","left","d","1168.35832441","793.237816248","6","red","3"
"100","80","19","1067.32011811","1","1","1","81","1","left","2","in","Female","Right-handed","2","no","left","s","830.870679907","1192.97470275","6","red","3"
"100","78","19","1065.55364439","1","0","1","82","2","right","2","in","Female","Right-handed","2","no","right","s","958.500932953","960.629509635","6","green","1"
"100","79","19","1059.9803867","1","1","1","83","0","right","3","out","Female","Right-handed","2","no","right","d","599.056909359","840.966425767","6","red","0"
"100","79","19","1060.99031863","1","1","1","84","2","left","2","out","Female","Right-handed","2","no","left","d","1190.67999638","1056.53219997","6","red","0"
"100","79","19","1060.5248322","1","1","1","85","0","left","1","in","Female","Right-handed","2","no","left","d","989.142238439","1073.25613541","6","green","0"
"100","80","19","1061.87299057","1","1","1","86","0","right","0","in","Female","Right-handed","2","no","right","s","1279.67226911","1016.63798418","6","red","3"
"100","80","19","1061.39510858","1","1","1","87","3","left","2","out","Female","Right-handed","2","no","left","d","1427.36957697","633.295980879","6","red","0"
"100","80","19","1067.48389235","1","1","1","88","2","right","3","out","Female","Right-handed","2","no","right","s","857.774388191","2080.91285375","6","red","0"
"100","80","19","1067.54077007","1","1","1","89","3","right","3","in","Female","Right-handed","2","no","right","d","1118.41422481","1024.28892967","6","red","2"
"100","81","19","1070.23991159","1","1","1","90","2","left","1","out","Female","Right-handed","2","no","left","s","1466.71473096","1040.84833899","6","red","0"
"100","81","19","1071.62762695","1","1","1","91","3","left","2","in","Female","Right-handed","2","no","left","s","1470.310252","864.449722678","6","red","1"
"100","81","19","1076.01832713","1","1","1","92","3","right","1","out","Female","Right-handed","2","no","right","d","1629.83836672","1136.89631263","6","green","0"
"100","81","19","1080.76566845","1","1","1","93","0","right","1","in","Female","Right-handed","2","no","right","d","1643.30513405","1192.34866965","6","red","2"
"100","82","19","1081.52925007","1","1","1","94","1","right","3","in","Female","Right-handed","2","no","right","s","1464.00021039","809.01404277","6","red","2"
"100","82","19","1079.79313612","1","1","1","95","3","left","2","in","Female","Right-handed","2","no","left","d","881.511690332","1024.60194622","6","red","3"
"100","82","19","1080.60330091","1","1","1","96","3","left","2","out","Female","Right-handed","2","no","left","d","1224.11343515","1056.99755552","6","green","0"
"100","82","19","1083.84157519","1","1","1","97","0","left","3","out","Female","Right-handed","2","no","left","s","1508.82796469","1144.59632732","6","green","2"
"100","81","19","1081.04696622","1","0","1","98","1","right","2","out","Female","Right-handed","2","no","right","s","832.113445409","905.199923287","6","red","0"
"100","82","19","1076.54346294","1","1","1","99","3","left","2","in","Female","Right-handed","2","no","left","s","978.673181857","480.874239827","6","red","0"
"100","82","19","1078.6856698","1","1","1","100","1","left","2","in","Female","Right-handed","2","no","left","d","1659.25165953","832.30394933","6","green","1"
"100","82","19","1080.45004588","1","1","1","101","2","right","0","in","Female","Right-handed","2","no","right","s","1478.9836327","960.687879524","6","red","1"
"100","81","19","1078.96847759","1","0","1","102","1","left","1","out","Female","Right-handed","2","no","left","s","1168.41028003","752.475749236","6","green","2"
"100","81","19","1076.75990301","1","1","1","103","1","left","2","out","Female","Right-handed","2","no","left","s","971.064570567","824.666153098","6","red","0"
"100","80","19","1073.84782317","1","0","1","104","3","left","1","in","Female","Right-handed","2","no","left","s","709.550468466","960.564084045","6","red","2"
"100","80","19","1072.11244562","1","1","1","105","1","right","3","out","Female","Right-handed","2","no","right","s","1048.07594244","808.076275975","6","red","0"
"100","81","19","1078.55963224","1","1","1","106","3","right","2","out","Female","Right-handed","2","no","right","d","2279.74635397","960.500262023","6","green","1"
"100","80","19","1073.68950163","1","0","1","107","2","right","2","in","Female","Right-handed","2","no","right","d","607.195018933","712.261781897","6","green","0"
"100","80","19","1074.03412413","1","1","1","108","1","left","1","in","Female","Right-handed","2","no","left","s","1238.58852628","968.754790662","6","red","2"
"100","80","19","1072.26931583","1","1","1","109","3","left","2","out","Female","Right-handed","2","no","left","s","1021.32874243","816.133244985","6","red","1"
"100","80","19","1070.12447085","1","1","1","110","0","left","1","out","Female","Right-handed","2","no","left","d","986.909750529","775.846475644","6","red","2"
"100","81","19","1068.08891601","1","1","1","111","1","right","2","in","Female","Right-handed","2","no","right","s","1109.40152903","664.447541825","6","green","0"
"100","80","19","1072.17546424","1","0","1","112","3","right","0","in","Female","Right-handed","2","no","right","d","1512.09860278","1367.83100698","6","red","2"
"100","80","19","1076.50520027","1","1","1","113","1","left","0","out","Female","Right-handed","2","no","left","s","1004.54675781","1936.47560043","6","green","3"
"100","80","19","1074.37026024","1","1","1","114","1","left","0","out","Female","Right-handed","2","no","left","d","907.831379009","848.080175852","6","green","2"
"100","80","19","1070.81487143","1","1","1","115","3","right","2","in","Female","Right-handed","2","no","right","d","783.698508618","696.628914393","6","green","3"
"100","81","19","1070.23533497","1","1","1","116","0","left","2","in","Female","Right-handed","2","no","left","s","1095.21443878","936.303377177","6","green","1"
"100","81","19","1067.2621421","1","1","1","117","2","right","1","in","Female","Right-handed","2","no","right","s","760.874278312","808.743360423","6","red","2"
"100","100","19","1123.23294781","1","1","2","118","3","right","0","in","Female","Right-handed","2","no","right","d","1621.73072495","624.735170681","6","green","2"
"100","100","19","875.317666897","1","1","2","119","3","right","0","out","Female","Right-handed","2","no","right","d","597.370276126","657.434495836","6","red","3"
"100","100","19","788.024882677","1","1","2","120","2","left","3","out","Female","Right-handed","2","no","left","d","570.032642238","656.845986236","6","green","2"
"100","100","19","785.68128084","1","1","2","121","2","right","2","in","Female","Right-handed","2","no","right","s","923.645129031","633.655821628","6","green","1"
"100","80","19","937.382386276","1","0","2","122","0","right","3","out","Female","Right-handed","2","no","right","s","1663.20060705","1425.173009","6","green","1"
"100","83","19","889.433558709","1","1","2","123","0","right","2","out","Female","Right-handed","2","no","right","d","554.656345674","744.722496074","6","red","0"
"100","85","19","907.195357972","1","1","2","124","3","right","2","in","Female","Right-handed","2","no","right","s","1194.30823022","833.224076872","6","green","1"
"100","87","19","918.913760412","1","1","2","125","1","right","1","in","Female","Right-handed","2","no","right","s","944.984455007","1056.90069999","6","green","0"
"100","88","19","916.90958946","1","1","2","126","2","left","0","in","Female","Right-handed","2","no","left","d","840.391065431","961.361378246","6","red","2"
"100","90","19","963.769553111","1","1","2","127","2","left","2","in","Female","Right-handed","2","no","left","d","1410.04879338","1360.96965856","6","green","3"
"100","81","19","950.151662582","1","0","2","128","3","right","2","in","Female","Right-handed","2","no","right","s","842.518679969","785.426834627","6","red","0"
"100","83","19","948.224317943","1","1","2","129","2","right","2","out","Female","Right-handed","2","no","right","d","893.109017634","960.938036194","6","red","0"
"100","84","19","951.601370266","1","1","2","130","2","right","1","in","Female","Right-handed","2","no","right","s","999.741184063","984.510812221","6","red","2"
"100","85","19","947.758273244","1","1","2","131","0","left","2","out","Female","Right-handed","2","no","left","s","922.362915749","873.233108174","6","green","1"
"100","86","19","965.720443722","1","1","2","132","3","left","2","in","Female","Right-handed","2","no","left","d","1729.72239666","704.659264167","6","red","0"
"100","87","19","972.606842555","1","1","2","133","3","right","2","out","Female","Right-handed","2","no","right","s","830.554776934","1321.25087314","6","red","0"
"100","88","19","973.683405267","1","1","2","134","3","left","0","in","Female","Right-handed","2","no","left","d","1140.88534935","840.931467977","6","red","1"
"100","88","19","969.972184146","1","1","2","135","1","left","0","out","Female","Right-handed","2","no","left","s","1332.36969564","481.393154561","6","green","2"
"100","89","19","970.89958026","1","1","2","136","0","left","1","out","Female","Right-handed","2","no","left","s","1118.11115038","857.074270232","6","green","3"
"100","85","19","980.432344488","1","0","2","137","1","left","3","in","Female","Right-handed","2","no","left","s","1450.57866369","872.531065932","6","green","2"
"100","85","19","992.224067802","1","1","2","138","1","left","0","out","Female","Right-handed","2","no","left","d","1431.05008714","1025.06698105","6","red","2"
"100","81","19","992.836911031","1","0","2","139","2","right","1","in","Female","Right-handed","2","no","right","s","810.771874436","1200.64136322","6","red","0"
"100","82","19","1005.80867549","1","1","2","140","1","left","2","in","Female","Right-handed","2","no","left","d","1781.20592191","801.1690655","6","green","3"
"100","83","19","998.951600351","1","1","2","141","0","left","0","out","Female","Right-handed","2","no","left","s","681.832147442","1000.64559664","6","green","3"
"100","84","19","1013.34702567","1","1","2","142","2","right","2","in","Female","Right-handed","2","no","right","s","1292.42063779","1425.25382884","6","red","1"
"100","84","19","1001.60049694","1","1","2","143","3","right","2","in","Female","Right-handed","2","no","right","s","670.905432442","744.969124891","6","red","3"
"100","85","19","996.520422893","1","1","2","144","1","right","1","in","Female","Right-handed","2","no","right","d","872.541328768","856.335666631","6","green","3"
"100","85","19","1000.50294777","1","1","2","145","3","right","2","out","Female","Right-handed","2","no","right","s","695.056775945","1521.00546304","6","green","3"
"100","86","19","998.282252013","1","1","2","146","0","left","2","in","Female","Right-handed","2","no","left","s","1047.68210604","824.523435509","6","green","0"
"100","83","19","1002.96121887","1","0","2","147","1","left","2","out","Female","Right-handed","2","no","left","s","1652.10583808","625.196677662","6","red","1"
"100","80","19","1011.09586043","1","0","2","148","3","left","3","in","Female","Right-handed","2","no","left","s","733.637989946","1776.63222415","6","red","0"
"100","81","19","1003.4911989","1","1","2","149","3","right","1","in","Female","Right-handed","2","no","right","s","582.278773309","953.214609406","6","red","3"
"100","78","19","1007.16619163","1","0","2","150","0","left","0","in","Female","Right-handed","2","no","left","d","1392.76328829","856.768630096","6","red","2"
"100","79","19","999.467440789","1","1","2","151","1","left","2","in","Female","Right-handed","2","no","left","d","834.490895901","656.326430078","6","green","0"
"100","80","19","992.024629711","1","1","2","152","1","right","2","in","Female","Right-handed","2","no","right","d","957.066701387","520.871404719","6","green","0"
"100","80","19","993.983598489","1","1","2","153","0","left","2","out","Female","Right-handed","2","no","left","d","1220.60162037","904.493391055","6","green","3"
"100","78","19","993.771319984","1","0","2","154","0","left","2","out","Female","Right-handed","2","no","left","s","915.135953735","1057.12263385","6","red","3"
"100","76","19","998.437381684","1","0","2","155","1","left","2","out","Female","Right-handed","2","no","left","d","1093.63075465","1248.53257457","6","red","3"
"100","76","19","993.507780687","1","1","2","156","2","left","2","out","Female","Right-handed","2","no","left","s","843.126753101","769.23913246","6","green","3"
"100","77","19","1001.94140016","1","1","2","157","2","right","2","out","Female","Right-handed","2","no","right","s","1156.78857849","1504.91654068","6","red","0"
"100","78","19","998.118904768","1","1","2","158","0","left","2","out","Female","Right-handed","2","no","left","d","890.201748149","800.236430121","6","green","3"
"100","78","19","998.889204359","1","1","2","159","3","right","2","in","Female","Right-handed","2","no","right","s","1187.93725301","873.005722173","6","green","1"
"100","76","19","1002.50518777","1","0","2","160","1","right","3","out","Female","Right-handed","2","no","right","d","1508.50308174","800.249900098","6","green","2"
"100","77","19","1023.44589368","1","1","2","161","0","right","0","in","Female","Right-handed","2","no","right","d","1422.90460115","2424.88789454","6","green","2"
"100","77","19","1018.61348065","1","1","2","162","0","left","1","out","Female","Right-handed","2","no","left","s","707.569420079","904.405194793","6","red","0"
"100","78","19","1017.25419019","1","1","2","163","1","right","3","out","Female","Right-handed","2","no","right","s","1071.14872584","841.023512803","6","red","0"
"100","78","19","1011.91913618","1","1","2","164","0","left","3","in","Female","Right-handed","2","no","left","s","1020.4512698","512.562034044","6","green","2"
"100","79","19","1010.12014683","1","1","2","165","1","right","2","in","Female","Right-handed","2","no","right","s","1027.09581577","824.039478572","6","green","3"
"100","79","19","1009.99038487","1","1","2","166","2","left","3","out","Female","Right-handed","2","no","left","d","1366.75405045","640.769571713","6","green","0"
"100","80","19","1016.88594395","1","1","2","167","2","right","3","in","Female","Right-handed","2","no","right","d","1677.21547405","1032.32120373","6","red","1"
"100","80","19","1017.1884609","1","1","2","168","0","right","2","out","Female","Right-handed","2","no","right","d","1335.91454392","728.714072851","6","green","1"
"100","80","19","1017.88653177","1","1","2","169","2","left","2","out","Female","Right-handed","2","no","left","s","1442.46236264","664.513929558","6","red","1"
"100","79","19","1018.65251688","1","0","2","170","1","right","2","out","Female","Right-handed","2","no","right","s","987.94052429","1129.02696112","6","green","3"
"100","79","19","1016.71468523","1","1","2","171","0","left","2","in","Female","Right-handed","2","no","left","s","819.622930518","1008.39628408","6","red","0"
"100","80","19","1012.45918117","1","1","2","172","2","left","3","in","Female","Right-handed","2","no","left","s","957.166122629","608.157801395","6","red","2"
"100","80","19","1011.05429318","1","1","2","173","2","right","2","out","Female","Right-handed","2","no","right","s","1250.83690234","616.734005849","6","red","1"
"100","80","19","1004.59362702","1","1","2","174","3","right","2","out","Female","Right-handed","2","no","right","s","653.39029636","632.202347242","6","red","0"
"100","81","19","995.996857404","1","1","2","175","0","right","2","out","Female","Right-handed","2","no","right","d","611.949599206","400.012379549","6","red","1"
"100","81","19","996.216956585","1","1","2","176","0","left","1","in","Female","Right-handed","2","no","left","d","1233.46544599","784.499972098","6","red","2"
"100","81","19","998.312813538","1","1","2","177","1","left","3","in","Female","Right-handed","2","no","left","s","1340.06073034","903.876017223","6","green","1"
"100","81","19","1001.08846016","1","1","2","178","3","left","3","in","Female","Right-handed","2","no","left","d","1302.66198767","1032.5925275","6","red","1"
"100","82","19","1001.12190559","1","1","2","179","0","right","1","in","Female","Right-handed","2","no","right","d","1006.12498982","1000.19916319","6","red","2"
"100","82","19","998.941148521","1","1","2","180","3","right","0","out","Female","Right-handed","2","no","right","s","1214.8011928","512.667228129","6","green","2"
"100","82","19","993.174150574","1","1","2","181","1","right","2","out","Female","Right-handed","2","no","right","d","619.356481591","640.350078222","6","green","1"
"100","83","19","992.668791239","1","1","2","182","2","right","0","out","Female","Right-handed","2","no","right","d","936.788937688","983.862649875","6","green","2"
"100","83","19","990.735011898","1","1","2","183","0","right","0","out","Female","Right-handed","2","no","right","s","905.566819733","824.511889816","6","green","1"
"100","83","19","992.711125886","1","1","2","184","0","left","3","out","Female","Right-handed","2","no","left","s","1078.16754467","1168.10175347","6","red","0"
"100","83","19","988.299086898","1","1","2","185","3","left","3","out","Female","Right-handed","2","no","left","s","800.607816563","584.777132855","6","red","2"
"100","82","19","989.820338708","1","0","2","186","1","right","2","out","Female","Right-handed","2","no","right","d","1274.35772276","912.173200781","6","green","0"
"100","81","19","995.398100056","1","0","2","187","0","right","3","in","Female","Right-handed","2","no","right","s","1248.88760461","1511.63966151","6","green","2"
"100","80","19","1003.81155558","1","0","2","188","3","left","2","in","Female","Right-handed","2","no","left","d","1713.28325496","1472.2236298","6","red","3"
"100","80","19","1001.3171978","1","1","2","189","2","left","1","in","Female","Right-handed","2","no","left","s","680.675653919","967.759936833","6","green","2"
"100","79","19","1009.3116163","1","0","2","190","3","left","1","out","Female","Right-handed","2","no","left","s","761.344444563","2408.47505136","6","red","2"
"100","78","19","1005.94046244","1","0","2","191","1","right","0","out","Female","Right-handed","2","no","right","d","831.952767854","687.739693385","6","red","3"
"100","78","19","1002.63402357","1","1","2","192","0","left","2","in","Female","Right-handed","2","no","left","d","667.4600054","848.455090141","6","green","0"
"100","78","19","1006.43544277","1","1","2","193","1","right","1","out","Female","Right-handed","2","no","right","s","1167.07963898","1416.00412566","6","green","2"
"100","79","19","1010.26701738","1","1","2","194","3","left","2","out","Female","Right-handed","2","no","left","s","1466.52999988","1136.4033757","6","red","1"
"100","78","19","1007.13017227","1","0","2","195","2","left","2","out","Female","Right-handed","2","no","left","s","891.171586307","640.014611712","6","green","3"
"100","78","19","1017.34529789","1","1","2","196","1","left","2","out","Female","Right-handed","2","no","left","d","2020.73478069","1607.5154119","6","red","0"
"100","78","19","1018.32927778","1","1","2","197","1","right","2","in","Female","Right-handed","2","no","right","d","1288.14039305","903.986984158","6","red","1"
"100","77","19","1015.8769128","1","0","2","198","3","right","2","in","Female","Right-handed","2","no","right","d","591.843738035","1047.53169133","6","green","3"
"100","78","19","1017.87924975","1","1","2","199","0","left","2","in","Female","Right-handed","2","no","left","s","1072.08296478","1288.05412108","6","red","3"
"100","78","19","1025.08738887","1","1","2","200","2","left","0","in","Female","Right-handed","2","no","left","s","1392.81780961","1839.49178428","6","green","1"
"100","78","19","1022.69688407","1","1","2","201","3","left","2","out","Female","Right-handed","2","no","left","s","928.234221046","720.335748738","6","green","1"
"100","78","19","1022.17406822","1","1","2","202","3","right","1","in","Female","Right-handed","2","no","right","s","1140.74006605","815.77500781","6","red","2"
"100","79","19","1021.42688827","1","1","2","203","2","right","2","in","Female","Right-handed","2","no","right","s","1011.46647612","904.36670915","6","red","3"
"100","79","19","1024.05396451","1","1","2","204","1","left","0","in","Female","Right-handed","2","no","left","d","1187.93532873","1312.02971348","6","green","1"
"100","78","19","1024.29193818","1","0","2","205","2","left","2","in","Female","Right-handed","2","no","left","d","986.55824834","1103.43304749","6","red","0"
"100","78","19","1024.82320442","1","1","2","206","3","left","1","out","Female","Right-handed","2","no","left","d","1311.02267253","832.126594669","6","green","0"
"100","77","19","1026.8970018","1","0","2","207","0","right","2","in","Female","Right-handed","2","no","right","s","1575.46072124","847.469216296","6","green","1"
"100","78","19","1026.31714059","1","1","2","208","1","right","2","out","Female","Right-handed","2","no","right","d","1188.07451846","760.184743904","6","red","1"
"100","78","19","1032.34765563","1","1","2","209","2","right","2","out","Female","Right-handed","2","no","right","s","1178.61506854","1983.63398102","6","red","0"
"100","78","19","1031.51215002","1","1","2","210","1","left","1","in","Female","Right-handed","2","no","left","d","1077.07968388","832.211583795","6","green","2"
"100","78","19","1030.16406477","1","1","2","211","2","right","1","out","Female","Right-handed","2","no","right","d","681.797831079","1127.78644061","6","green","3"
"100","78","19","1029.47617632","1","1","2","212","3","left","3","out","Female","Right-handed","2","no","left","d","969.320208875","960.309116672","6","red","2"
"100","79","19","1027.64677849","1","1","2","213","2","right","0","in","Female","Right-handed","2","no","right","d","763.88161047","943.826357918","6","red","3"
"100","100","19","675.458604524","1","1","3","214","2","right","2","out","Female","Right-handed","2","no","right","d","782.421747466","568.495461582","6","green","0"
"100","100","19","900.233752165","1","1","3","215","2","right","2","in","Female","Right-handed","2","no","right","s","1360.98120426","889.036595356","6","green","0"
"100","100","19","972.683693571","1","1","3","216","1","left","3","out","Female","Right-handed","2","no","left","d","1170.56194809","1064.60520467","6","green","2"
"100","100","19","902.441424855","1","1","3","217","3","right","3","in","Female","Right-handed","2","no","right","d","686.22432126","697.204916156","6","green","2"
"100","100","19","883.019557763","1","1","3","218","1","left","0","out","Female","Right-handed","2","no","left","d","865.758234486","744.905944299","6","green","1"
"100","100","19","875.572634273","1","1","3","219","2","left","1","in","Female","Right-handed","2","no","left","d","956.415973338","720.260060309","6","red","2"
"100","100","19","875.624326445","1","1","3","220","2","right","1","out","Female","Right-handed","2","no","right","s","926.931802802","824.937156154","6","red","0"
"100","100","19","851.612175543","1","1","3","221","1","left","3","in","Female","Right-handed","2","no","left","s","774.497874631","592.556363827","6","red","2"
"100","100","19","860.7247224","1","1","3","222","3","right","3","out","Female","Right-handed","2","no","right","d","738.127660719","1129.12253379","6","red","2"
"100","100","19","885.022847643","1","1","3","223","2","left","2","in","Female","Right-handed","2","no","left","d","1022.60871071","1184.80323895","6","green","3"
"100","90","19","897.589343979","1","0","3","224","3","left","2","out","Female","Right-handed","2","no","left","d","582.208537013","1464.30007768","6","red","3"
"100","91","19","930.467377112","1","1","3","225","2","left","2","out","Female","Right-handed","2","no","left","d","1759.51605589","824.735427253","6","green","3"
"100","92","19","914.22807499","1","1","3","226","2","left","2","in","Female","Right-handed","2","no","left","s","742.448315388","696.264583654","6","green","1"
"100","92","19","894.059028819","1","1","3","227","0","right","3","in","Female","Right-handed","2","no","right","d","614.768993146","648.953864053","6","green","0"
"100","93","19","891.659381121","1","1","3","228","3","left","1","out","Female","Right-handed","2","no","left","d","635.563105869","1080.56552084","6","green","3"
"100","93","19","911.90222779","1","1","3","229","0","right","3","out","Female","Right-handed","2","no","right","d","1631.00063309","800.089222546","6","red","2"
"100","94","19","900.472424454","1","1","3","230","3","right","2","in","Female","Right-handed","2","no","right","d","714.703054415","720.488087733","6","green","3"
"100","94","19","892.291233392","1","1","3","231","3","right","2","in","Female","Right-handed","2","no","right","d","642.303224522","864.118746162","6","green","3"
"100","94","19","913.504145663","1","1","3","232","3","left","2","out","Female","Right-handed","2","no","left","d","1781.78769652","808.885436581","6","green","0"
"100","95","19","915.494495591","1","1","3","233","0","left","2","in","Female","Right-handed","2","no","left","d","1146.42792313","760.194365317","6","green","1"
"100","95","19","923.163188008","1","1","3","234","2","left","0","out","Female","Right-handed","2","no","left","d","792.006275726","1361.06779694","6","green","2"
"100","90","19","916.885053244","1","0","3","235","2","right","3","in","Female","Right-handed","2","no","right","s","665.579340392","904.509106022","6","green","2"
"100","91","19","920.088079689","1","1","3","236","3","left","0","out","Female","Right-handed","2","no","left","s","1317.07293606","664.03638689","6","red","2"
"100","91","19","914.884801518","1","1","3","237","3","right","1","in","Female","Right-handed","2","no","right","d","869.740856935","720.67795023","6","red","2"
"100","92","19","904.719872638","1","1","3","238","3","left","2","in","Female","Right-handed","2","no","left","s","473.232915741","848.290243313","6","green","3"
"100","92","19","908.663816032","1","1","3","239","2","right","2","in","Female","Right-handed","2","no","right","s","718.792474516","1295.73232723","6","green","3"
"100","92","19","908.335778478","1","1","3","240","2","left","2","in","Female","Right-handed","2","no","left","d","1031.11981029","768.493793868","6","red","1"
"100","92","19","903.96829113","1","1","3","241","1","right","2","in","Female","Right-handed","2","no","right","s","684.102800282","887.989465195","6","red","3"
"100","93","19","902.922955705","1","1","3","242","0","left","2","in","Female","Right-handed","2","no","left","s","714.691188008","1032.6159396","6","red","0"
"100","93","19","918.449326918","1","1","3","243","3","left","0","in","Female","Right-handed","2","no","left","d","1593.17822765","1144.24995654","6","green","2"
"100","93","19","913.554897378","1","1","3","244","1","left","2","out","Female","Right-handed","2","no","left","s","812.780183489","720.663838827","6","red","0"
"100","93","19","910.919536025","1","1","3","245","3","left","2","in","Female","Right-handed","2","no","left","s","890.217783828","768.228884372","6","green","1"
"100","93","19","913.385906663","1","1","3","246","3","left","0","out","Female","Right-handed","2","no","left","s","1152.80306962","831.816464542","6","green","1"
"100","94","19","925.592813765","1","1","3","247","2","right","3","out","Female","Right-handed","2","no","right","s","1848.38453314","808.45696311","6","green","1"
"100","94","19","915.67412045","1","1","3","248","2","left","3","out","Female","Right-handed","2","no","left","d","748.879266052","407.997829407","6","red","0"
"100","94","19","914.405416975","1","1","3","249","1","right","1","in","Female","Right-handed","2","no","right","s","827.434232851","912.567357889","6","red","2"
"100","94","19","911.398880945","1","1","3","250","3","right","2","out","Female","Right-handed","2","no","right","d","878.136178875","728.190988844","6","red","1"
"100","94","19","908.066179402","1","1","3","251","1","left","1","out","Female","Right-handed","2","no","left","s","881.808029771","687.704414879","6","green","0"
"100","92","19","906.764475622","1","0","3","252","0","left","2","in","Female","Right-handed","2","no","left","s","1130.41821705","584.181246846","6","green","3"
"100","92","19","902.467130055","1","1","3","253","0","right","1","out","Female","Right-handed","2","no","right","d","885.786162231","583.955143702","6","red","2"
"100","92","19","907.688770936","1","1","3","254","0","right","0","in","Female","Right-handed","2","no","right","s","904.583511594","1328.52530078","6","green","1"
"100","92","19","904.887761972","1","1","3","255","0","right","2","out","Female","Right-handed","2","no","right","s","1116.0059858","464.08680308","6","green","1"
"100","93","19","903.790327004","1","1","3","256","3","left","3","in","Female","Right-handed","2","no","left","s","803.756262736","911.639853933","6","red","1"
"100","90","19","901.357667736","1","0","3","257","0","right","2","in","Female","Right-handed","2","no","right","s","809.204546691","784.302091757","6","red","3"
"100","91","19","905.069766984","1","1","3","258","3","right","2","out","Female","Right-handed","2","no","right","d","888.880087081","1247.92418072","6","green","1"
"100","91","19","907.118164082","1","1","3","259","2","right","1","out","Female","Right-handed","2","no","right","d","846.246335045","1152.34573191","6","green","3"
"100","91","19","919.197393277","1","1","3","260","1","left","2","out","Female","Right-handed","2","no","left","s","1557.78202118","1391.90185135","6","red","0"
"100","89","19","921.047919514","1","0","3","261","1","left","2","in","Female","Right-handed","2","no","left","d","687.489216001","1328.55608929","6","green","1"
"100","89","19","918.027017365","1","1","3","262","0","left","0","out","Female","Right-handed","2","no","left","s","1066.05098193","479.996446491","6","green","2"
"100","90","19","918.107568009","1","1","3","263","1","left","3","in","Female","Right-handed","2","no","left","s","908.587621863","935.521477233","6","red","1"
"100","90","19","938.109083224","1","1","3","264","0","left","2","in","Female","Right-handed","2","no","left","d","1084.2787438","2792.09094413","6","green","0"
"100","90","19","935.195083222","1","1","3","265","0","right","2","out","Female","Right-handed","2","no","right","s","957.698828049","615.463338258","6","red","3"
"100","90","19","935.488697874","1","1","3","266","1","left","0","out","Female","Right-handed","2","no","left","s","813.325396739","1088.18792282","6","red","3"
"100","90","19","936.605133115","1","1","3","267","3","left","2","in","Female","Right-handed","2","no","left","d","895.700384149","1095.85201758","6","red","0"
"100","90","19","947.046617716","1","1","3","268","1","right","0","out","Female","Right-handed","2","no","right","s","1429.40001527","1592.37355703","6","red","2"
"100","91","19","946.04388969","1","1","3","269","0","left","2","out","Female","Right-handed","2","no","left","d","917.869717126","863.917979401","6","red","1"
"100","91","19","946.104817602","1","1","3","270","1","left","2","out","Female","Right-handed","2","no","left","s","779.598184247","1119.43537716","6","red","3"
"100","91","19","944.131154797","1","1","3","271","0","left","1","in","Female","Right-handed","2","no","left","d","535.149898366","1128.11485142","6","red","0"
"100","91","19","939.352548881","1","1","3","272","2","right","2","in","Female","Right-handed","2","no","right","s","604.716864341","719.669947139","6","green","3"
"100","91","19","935.084526228","1","1","3","273","1","left","2","in","Female","Right-handed","2","no","left","d","702.233706623","664.308672804","6","red","1"
"100","91","19","931.382338622","1","1","3","274","0","right","2","in","Female","Right-handed","2","no","right","d","954.642105986","463.860058513","6","red","1"
"100","91","19","930.826420384","1","1","3","275","3","right","2","out","Female","Right-handed","2","no","right","d","978.427515183","815.403300658","6","green","0"
"100","90","19","925.107985568","1","0","3","276","0","right","0","out","Female","Right-handed","2","no","right","s","709.077736505","432.052317381","6","red","3"
"100","90","19","927.786998352","1","1","3","277","0","right","3","out","Female","Right-handed","2","no","right","s","1289.58103889","903.54856856","6","green","2"
"100","90","19","925.251978569","1","1","3","278","3","right","1","in","Female","Right-handed","2","no","right","s","638.139719554","887.881705399","6","red","0"
"100","90","19","923.351046738","1","1","3","279","2","right","3","out","Female","Right-handed","2","no","right","d","759.768136839","839.812818667","6","red","2"
"100","91","19","929.067877958","1","1","3","280","0","left","1","out","Female","Right-handed","2","no","left","s","1301.38426438","1311.37321258","6","red","2"
"100","91","19","925.765735034","1","1","3","281","2","left","0","in","Female","Right-handed","2","no","left","d","937.024341525","472.019976616","6","green","1"
"100","91","19","926.580093774","1","1","3","282","1","left","1","in","Female","Right-handed","2","no","left","s","1100.49178236","863.421193917","6","red","3"
"100","91","19","936.443730648","1","1","3","283","1","right","2","in","Female","Right-handed","2","no","right","d","1354.01626532","1880.05308453","6","green","0"
"100","91","19","936.607079481","1","1","3","284","3","left","3","out","Female","Right-handed","2","no","left","d","760.640157328","1135.44283824","6","red","0"
"100","91","19","930.039077358","1","1","3","285","0","right","2","out","Female","Right-handed","2","no","right","s","511.24069369","416.181159609","6","green","0"
"100","91","19","928.3639036","1","1","3","286","0","left","0","in","Female","Right-handed","2","no","left","s","887.694729328","727.808056712","6","green","2"
"100","91","19","924.059987344","1","1","3","287","2","right","2","in","Female","Right-handed","2","no","right","d","828.483608006","391.264593276","6","red","0"
"100","90","19","921.184440512","1","0","3","288","1","right","2","in","Female","Right-handed","2","no","right","d","752.9157684","663.872181489","6","green","3"
"100","89","19","914.925225859","1","0","3","289","2","left","0","in","Female","Right-handed","2","no","left","s","475.466365795","415.501888041","6","red","2"
"100","89","19","914.629867552","1","1","3","290","2","right","2","in","Female","Right-handed","2","no","right","s","1304.05099861","480.314273747","6","green","1"
"100","89","19","913.766763313","1","1","3","291","1","right","0","in","Female","Right-handed","2","no","right","s","1046.85690975","647.75856418","6","red","2"
"100","89","19","910.064691034","1","1","3","292","1","right","3","out","Female","Right-handed","2","no","right","d","723.352381585","519.253724931","6","red","0"
"100","88","19","912.375751512","1","0","3","293","1","left","2","out","Female","Right-handed","2","no","left","d","893.950891041","1295.94816754","6","green","1"
"100","88","19","911.635985573","1","1","3","294","0","right","1","out","Female","Right-handed","2","no","right","d","793.511385015","911.39803582","6","green","3"
"100","87","19","909.849694719","1","0","3","295","1","right","2","out","Female","Right-handed","2","no","right","s","578.267286626","952.052984467","6","green","3"
"100","86","19","911.848238612","1","0","3","296","1","left","2","out","Female","Right-handed","2","no","left","d","879.786250749","1271.67142499","6","green","1"
"100","86","19","912.31610545","1","1","3","297","0","right","3","in","Female","Right-handed","2","no","right","s","1215.11036079","687.187745145","6","red","1"
"100","87","19","911.433748232","1","1","3","298","1","left","2","out","Female","Right-handed","2","no","left","s","1146.83971949","527.79176446","6","green","0"
"100","87","19","908.904822607","1","1","3","299","3","right","0","out","Female","Right-handed","2","no","right","s","1036.57098067","351.321308281","6","green","3"
"100","87","19","909.900754526","1","1","3","300","3","left","2","out","Female","Right-handed","2","no","left","s","1191.04111998","800.060679026","6","red","0"
"100","87","19","910.385810609","1","1","3","301","3","right","2","in","Female","Right-handed","2","no","right","s","1281.64690322","623.524476549","6","red","1"
"100","86","19","912.371421653","1","0","3","302","2","right","1","in","Female","Right-handed","2","no","right","s","1703.06884504","471.141541849","6","red","2"
"100","85","19","926.205521735","1","0","3","303","0","left","2","in","Female","Right-handed","2","no","left","None","1314.77983326","3000.10102481","6","red","0"
"100","85","19","923.730972806","1","1","3","304","2","right","2","in","Female","Right-handed","2","no","right","s","682.989282392","719.053856167","6","red","0"
"100","85","19","922.197152096","1","1","3","305","3","right","1","out","Female","Right-handed","2","no","right","d","1037.62035583","527.618579071","6","red","2"
"100","86","19","924.487542132","1","1","3","306","2","left","0","in","Female","Right-handed","2","no","left","s","679.313582932","1591.09326803","6","green","3"
"100","85","19","924.725410408","1","0","3","307","0","right","2","out","Female","Right-handed","2","no","right","d","806.901181062","1086.79313903","6","red","3"
"100","84","19","929.021086992","1","0","3","308","1","right","1","out","Female","Right-handed","2","no","right","d","1834.46876666","831.16060507","6","green","2"
"100","84","19","928.118635504","1","1","3","309","2","left","2","out","Female","Right-handed","2","no","left","d","1181.79045466","502.981033634","6","red","1"
"100","100","19","585.37414137","1","1","4","310","0","left","1","out","Female","Right-handed","2","no","left","s","514.90292318","655.845359561","6","red","0"
"100","100","19","591.205357458","1","1","4","311","3","left","2","out","Female","Right-handed","2","no","left","d","705.50113757","488.572009522","6","green","0"
"100","66","19","727.468367476","1","0","4","312","3","right","2","in","Female","Right-handed","2","no","right","s","928.012607899","1071.97616712","6","green","1"
"100","75","19","725.389234155","1","1","4","313","3","left","1","in","Female","Right-handed","2","no","left","s","741.64396548","696.659702906","6","green","2"
"100","80","19","767.850217733","1","1","4","314","1","right","0","out","Female","Right-handed","2","no","right","s","859.19514978","1016.1931543","6","red","2"
"100","83","19","745.363816527","1","1","4","315","3","right","1","out","Female","Right-handed","2","no","right","s","609.926537323","655.937083677","6","red","2"
"100","85","19","713.074355817","1","1","4","316","0","right","2","in","Female","Right-handed","2","no","right","s","454.334220856","584.340962254","6","green","0"
"100","87","19","733.818110766","1","1","4","317","3","left","0","in","Female","Right-handed","2","no","left","d","902.090924894","855.957865919","6","red","2"
"100","88","19","761.737853344","1","1","4","318","0","left","3","out","Female","Right-handed","2","no","left","d","1138.55151592","831.640072018","6","green","0"
"100","90","19","754.738544588","1","1","4","319","1","right","3","in","Female","Right-handed","2","no","right","s","631.228019087","752.261512498","6","green","1"
"100","90","19","771.790526386","1","1","4","320","0","right","0","in","Female","Right-handed","2","no","right","s","964.852346628","919.768342097","6","green","2"
"100","91","19","764.634459102","1","1","4","321","0","right","2","in","Female","Right-handed","2","no","right","d","651.396419424","720.43901854","6","red","0"
"100","92","19","796.884824169","1","1","4","322","3","right","2","in","Female","Right-handed","2","no","right","d","1631.89510354","735.883306403","6","red","1"
"100","92","19","810.894971218","1","1","4","323","0","right","2","in","Female","Right-handed","2","no","right","d","713.474721026","1272.5790447","6","red","1"
"100","93","19","808.2745091","1","1","4","324","1","right","0","in","Female","Right-handed","2","no","right","d","839.126812116","704.049266755","6","red","3"
"100","93","19","800.178461126","1","1","4","325","1","right","2","out","Female","Right-handed","2","no","right","s","693.697270661","663.77821238","6","green","0"
"100","88","19","818.209913214","1","0","4","326","2","left","2","in","Female","Right-handed","2","no","left","d","669.313089031","1544.11320423","6","green","3"
"100","88","19","811.573934801","1","1","4","327","3","right","3","out","Female","Right-handed","2","no","right","d","661.838215343","735.686388205","6","red","2"
"100","89","19","802.32858048","1","1","4","328","0","right","2","in","Female","Right-handed","2","no","right","d","608.398015935","663.426389478","6","green","3"
"100","85","19","811.239899924","1","0","4","329","3","right","2","out","Female","Right-handed","2","no","right","s","1073.04735081","888.062587914","6","green","3"
"100","80","19","797.048154364","1","0","4","330","0","left","2","in","Female","Right-handed","2","no","left","d","530.802303751","495.624182582","6","green","0"
"100","81","19","790.876270237","1","1","4","331","2","left","2","in","Female","Right-handed","2","no","left","d","666.337186812","656.196220323","6","red","3"
"100","82","19","805.129767865","1","1","4","332","0","right","1","in","Female","Right-handed","2","no","right","s","1381.70059069","855.712840672","6","red","2"
"100","83","19","801.947818441","1","1","4","333","2","left","2","out","Female","Right-handed","2","no","left","d","810.241734725","647.284228649","6","red","0"
"100","84","19","800.389724847","1","1","4","334","2","right","2","out","Female","Right-handed","2","no","right","s","758.048790812","767.942166345","6","red","0"
"100","80","19","803.107822853","1","0","4","335","1","right","2","in","Female","Right-handed","2","no","right","d","998.512529965","743.608016044","6","red","3"
"100","77","19","822.046985456","1","0","4","336","0","right","1","in","Female","Right-handed","2","no","right","s","1604.99364025","1023.93678605","6","red","2"
"100","75","19","845.386810934","1","0","4","337","2","left","3","in","Female","Right-handed","2","no","left","d","1415.51599944","1535.60819821","6","red","1"
"100","75","19","844.616075536","1","1","4","338","3","right","2","out","Female","Right-handed","2","no","right","s","966.022630837","680.048337963","6","red","1"
"100","76","19","841.916556074","1","1","4","339","1","left","1","out","Female","Right-handed","2","no","left","s","895.716419837","631.544563487","6","red","3"
"100","74","19","841.057953313","1","0","4","340","1","right","1","in","Female","Right-handed","2","no","right","s","903.262171243","727.337569748","6","green","0"
"100","75","19","868.050019347","1","1","4","341","1","left","2","out","Female","Right-handed","2","no","left","d","2553.83884651","855.769286278","6","green","1"
"100","75","19","871.862329319","1","1","4","342","0","left","2","out","Female","Right-handed","2","no","left","s","1124.28200225","863.43049461","6","red","3"
"100","76","19","885.433608288","1","1","4","343","0","left","0","in","Female","Right-handed","2","no","left","d","658.800094676","2007.77153384","6","green","3"
"100","77","19","884.390791999","1","1","4","344","1","left","3","in","Female","Right-handed","2","no","left","d","922.452074152","775.418002173","6","red","0"
"100","75","19","880.756610069","1","0","4","345","1","right","2","out","Female","Right-handed","2","no","right","s","747.04606667","760.074418402","6","green","3"
"100","75","19","881.117325194","1","1","4","346","0","right","3","in","Female","Right-handed","2","no","right","s","1028.62562002","759.580519338","6","green","2"
"100","76","19","886.196384564","1","1","4","347","2","left","0","out","Female","Right-handed","2","no","left","d","900.133609317","1248.10955323","6","red","2"
"100","74","19","893.424320297","1","0","4","348","3","right","0","in","Female","Right-handed","2","no","right","d","1232.68194247","1103.48981381","6","green","1"
"100","75","19","894.395736945","1","1","4","349","1","left","2","out","Female","Right-handed","2","no","left","d","1089.44223401","775.119738449","6","green","0"
"100","75","19","897.698371696","1","1","4","350","2","right","2","out","Female","Right-handed","2","no","right","s","779.870790877","1279.73673256","6","green","3"
"100","76","19","902.893193976","1","1","4","351","0","right","2","out","Female","Right-handed","2","no","right","d","680.439287938","1551.32252699","6","green","3"
"100","76","19","902.869998084","1","1","4","352","0","left","2","in","Female","Right-handed","2","no","left","s","1044.02597011","759.765571129","6","red","1"
"100","75","19","917.497313877","1","0","4","353","0","right","2","out","Female","Right-handed","2","no","right","s","1109.51891024","1983.42487571","6","green","1"
"100","75","19","914.786112128","1","1","4","354","1","left","2","out","Female","Right-handed","2","no","left","d","816.06621583","774.920254545","6","green","1"
"100","73","19","913.813435109","1","0","4","355","3","left","2","in","Female","Right-handed","2","no","left","s","1020.61739948","719.468538951","6","green","0"
"100","74","19","922.8180494","1","1","4","356","3","left","2","in","Female","Right-handed","2","no","left","s","1033.91354714","1640.14706646","6","red","0"
"100","75","19","922.045489387","1","1","4","357","1","right","3","in","Female","Right-handed","2","no","right","d","955.711044673","815.75929284","6","green","2"
"100","73","19","941.905289533","1","0","4","358","3","left","2","in","Female","Right-handed","2","no","left","None","790.27217687","3000.07921628","6","green","1"
"100","74","19","947.29251589","1","1","4","359","0","right","0","in","Female","Right-handed","2","no","right","s","1422.8494384","999.683776314","6","red","2"
"100","74","19","946.055135611","1","1","4","360","2","left","2","in","Female","Right-handed","2","no","left","s","689.106254365","1079.26598902","6","green","3"
"100","75","19","944.502113972","1","1","4","361","0","left","0","in","Female","Right-handed","2","no","left","s","1058.7322958","671.863724911","6","green","1"
"100","75","19","940.205488394","1","1","4","362","0","right","1","out","Female","Right-handed","2","no","right","s","754.375336346","679.186580313","6","green","3"
"100","75","19","940.248390011","1","1","4","363","3","left","3","in","Female","Right-handed","2","no","left","d","1053.99727906","831.047072428","6","red","0"
"100","74","19","937.598812613","1","0","4","364","2","left","1","out","Female","Right-handed","2","no","left","s","789.42100277","799.622263428","6","green","0"
"100","75","19","936.063537755","1","1","4","365","2","left","2","out","Female","Right-handed","2","no","left","d","880.193877834","823.0529633","6","red","1"
"100","75","19","933.154762208","1","1","4","366","2","right","2","out","Female","Right-handed","2","no","right","d","860.710521909","679.816141263","6","red","0"
"98","74","19","955.973529465","0","0","4","367","2","left","2","out","Female","Right-handed","2","no","None","s","3000.12988904","1513.1566372","6","green","1"
"98","74","19","952.40889511","1","1","4","368","0","left","2","out","Female","Right-handed","2","no","left","d","763.638509499","727.681695524","6","red","1"
"98","75","19","948.131735922","1","1","4","369","3","right","0","out","Female","Right-handed","2","no","right","d","640.311592582","751.247095133","6","red","3"
"98","75","19","942.186417443","1","1","4","370","1","left","2","in","Female","Right-handed","2","no","left","s","530.988317681","639.946299703","6","green","1"
"98","75","19","935.683360048","1","1","4","371","3","right","2","out","Female","Right-handed","2","no","right","s","590.62342249","487.37029537","6","red","3"
"98","76","19","936.912817163","1","1","4","372","2","left","1","out","Female","Right-handed","2","no","left","s","1251.07455118","775.203765436","6","red","2"
"98","76","19","935.955107181","1","1","4","373","1","right","1","in","Female","Right-handed","2","no","right","d","799.654976225","951.583780352","6","red","2"
"98","76","19","939.913438885","1","1","4","374","2","right","0","out","Female","Right-handed","2","no","right","s","699.293082911","1687.20025298","6","red","3"
"98","77","19","938.889434912","1","1","4","375","3","right","2","in","Female","Right-handed","2","no","right","d","785.779298956","958.879054382","6","green","0"
"98","77","19","943.478113125","1","1","4","376","1","right","2","out","Female","Right-handed","2","no","right","d","949.334294619","1543.32745572","6","red","1"
"98","77","19","942.235615718","1","1","4","377","3","right","2","in","Female","Right-handed","2","no","right","d","742.976210098","975.000368821","6","green","3"
"98","76","19","944.710156501","1","0","4","378","0","right","2","out","Female","Right-handed","2","no","right","d","1266.52974331","959.428116199","6","green","0"
"98","77","19","945.898878427","1","1","4","379","0","right","3","out","Female","Right-handed","2","no","right","s","937.028190088","1118.81319262","6","green","1"
"98","77","19","946.56274348","1","1","4","380","1","left","2","out","Female","Right-handed","2","no","left","s","738.66453542","1247.40205885","6","green","0"
"98","76","19","943.299360757","1","0","4","381","2","right","3","in","Female","Right-handed","2","no","right","s","560.253120064","862.945254816","6","red","2"
"98","76","19","938.661466231","1","1","4","382","2","left","3","in","Female","Right-handed","2","no","left","d","674.865284222","534.600836552","6","red","2"
"98","77","19","940.894116102","1","1","4","383","1","right","3","out","Female","Right-handed","2","no","right","d","968.472883338","1239.28222996","6","green","2"
"98","77","19","947.005678129","1","1","4","384","2","left","2","out","Female","Right-handed","2","no","left","s","1223.74974583","1574.77279039","6","green","1"
"98","77","19","948.938706957","1","1","4","385","2","left","3","in","Female","Right-handed","2","no","left","s","1092.49350394","1095.33823427","6","red","0"
"98","77","19","952.328017269","1","1","4","386","1","left","2","in","Female","Right-handed","2","no","left","s","1044.93423125","1374.89697073","6","red","3"
"98","78","19","951.984154376","1","1","4","387","3","left","3","out","Female","Right-handed","2","no","left","s","1051.57524937","799.438173777","6","green","2"
"98","78","19","950.612172178","1","1","4","388","2","left","1","in","Female","Right-handed","2","no","left","s","1032.175279","655.019842554","6","green","2"
"98","78","19","948.956654263","1","1","4","389","2","left","1","out","Female","Right-handed","2","no","left","s","669.638613414","966.702864549","6","red","3"
"98","79","19","954.112922478","1","1","4","390","3","left","0","out","Female","Right-handed","2","no","left","d","1774.19031021","959.03844908","6","green","2"
"98","79","19","957.456403708","1","1","4","391","1","left","1","in","Female","Right-handed","2","no","left","s","1729.87216994","726.684596699","6","red","2"
"98","78","19","961.833700622","1","0","4","392","3","right","3","in","Female","Right-handed","2","no","right","s","1322.39133098","1319.15276426","6","red","1"
"98","78","19","959.303738471","1","1","4","393","3","left","1","out","Female","Right-handed","2","no","left","d","699.841503298","798.792256432","6","green","3"
"98","77","19","970.862132321","1","0","4","394","1","right","0","out","Female","Right-handed","2","no","right","s","1540.36406134","2343.17037016","6","green","2"
"98","77","19","966.607377647","1","1","4","395","2","right","0","in","Female","Right-handed","2","no","right","s","674.995173256","534.911287392","6","green","2"
"98","78","19","961.685544205","1","1","4","396","1","left","0","in","Female","Right-handed","2","no","left","s","590.33638375","486.479352774","6","red","1"
"98","78","19","961.685176972","1","1","4","397","1","left","2","out","Female","Right-handed","2","no","left","d","1020.24376805","903.062687339","6","red","0"
"98","78","19","965.444039942","1","1","4","398","2","left","2","in","Female","Right-handed","2","no","left","s","1545.7748218","1046.6731408","6","green","0"
"98","78","19","963.479822156","1","1","4","399","1","right","2","out","Female","Right-handed","2","no","right","d","906.054304523","671.274573884","6","green","3"
"98","79","19","961.083412884","1","1","4","400","0","right","2","out","Female","Right-handed","2","no","right","s","723.817095706","766.996060996","6","red","3"
"98","79","19","957.994287267","1","1","4","401","3","left","2","out","Female","Right-handed","2","no","left","s","570.472982119","783.2947301","6","red","3"
"98","79","19","958.349250905","1","1","4","402","3","left","1","in","Female","Right-handed","2","no","left","s","1439.06760837","542.944202876","6","green","0"
"98","79","19","958.803052064","1","1","4","403","2","right","0","in","Female","Right-handed","2","no","right","s","1219.49612033","782.516999428","6","red","1"
"98","78","19","956.995715636","1","0","4","404","0","left","3","out","Female","Right-handed","2","no","left","d","887.098843316","687.113339573","6","red","2"
"98","78","19","960.117024212","1","0","4","405","2","right","2","out","Female","Right-handed","2","no","right","s","994.776857045","1518.50582063","6","red","1"
"100","100","19","797.444938271","1","1","5","406","2","right","2","out","Female","Right-handed","2","no","right","d","1011.5222803","583.367596242","6","green","3"
"100","100","19","895.202315809","1","1","5","407","1","left","2","out","Female","Right-handed","2","no","left","s","993.993994958","991.925391736","6","red","0"
"100","66","19","834.935779224","1","0","5","408","2","right","1","out","Female","Right-handed","2","no","right","d","533.41579951","895.389612597","6","red","3"
"100","75","19","822.086693076","1","1","5","409","1","left","2","in","Female","Right-handed","2","no","left","s","615.157056695","951.921812572","6","green","1"
"100","80","19","797.809589724","1","1","5","410","1","right","0","in","Female","Right-handed","2","no","right","s","713.812432528","687.589920101","6","green","2"
"100","83","19","763.32038826","1","1","5","411","0","left","2","out","Female","Right-handed","2","no","left","s","726.352658043","455.39610384","6","green","0"
"100","85","19","725.675768918","1","1","5","412","2","right","1","in","Female","Right-handed","2","no","right","d","511.828561863","487.787543865","6","red","2"
"100","87","19","706.59767768","1","1","5","413","1","right","2","in","Female","Right-handed","2","no","right","d","682.473574798","463.628503236","6","green","1"
"100","88","19","715.328000649","1","1","5","414","3","right","3","in","Female","Right-handed","2","no","right","d","882.143816994","688.197351803","6","red","1"
"100","90","19","710.866533079","1","1","5","415","3","right","2","in","Female","Right-handed","2","no","right","s","685.773397825","655.653252066","6","red","0"
"100","90","19","713.866254116","1","1","5","416","2","left","2","out","Female","Right-handed","2","no","left","s","568.313296211","919.413632768","6","green","3"
"100","91","19","758.197107526","1","1","5","417","3","left","2","out","Female","Right-handed","2","no","left","d","1539.92243861","951.750551467","6","green","0"
"100","92","19","751.830905045","1","1","5","418","3","right","2","out","Female","Right-handed","2","no","right","d","567.52947198","783.343478575","6","red","0"
"100","85","19","763.310373594","1","0","5","419","1","left","0","in","Female","Right-handed","2","no","left","s","930.046574042","895.040355404","6","red","2"
"100","86","19","760.46290957","1","1","5","420","2","left","2","out","Female","Right-handed","2","no","left","s","793.620106954","647.576719519","6","red","0"
"100","87","19","754.795942314","1","1","5","421","1","left","3","out","Female","Right-handed","2","no","left","s","452.316290397","887.26657657","6","green","1"
"100","88","19","750.762355277","1","1","5","422","1","right","3","out","Female","Right-handed","2","no","right","s","828.62728773","543.822637639","6","green","2"
"100","83","19","741.801302269","1","0","5","423","2","left","3","out","Female","Right-handed","2","no","left","s","539.427898115","639.498904122","6","green","1"
"100","84","19","749.732254718","1","1","5","424","0","left","2","in","Female","Right-handed","2","no","left","s","601.905488246","1183.07330937","6","green","0"
"100","85","19","743.703620793","1","1","5","425","1","right","0","out","Female","Right-handed","2","no","right","d","762.660012071","495.659140372","6","green","3"
"100","85","19","745.703490492","1","1","5","426","0","left","0","in","Female","Right-handed","2","no","left","s","812.202578152","759.199190775","6","green","2"
"100","86","19","745.912613511","1","1","5","427","1","right","0","out","Female","Right-handed","2","no","right","s","644.774323406","855.83407044","6","red","1"
"100","86","19","759.869482362","1","1","5","428","1","left","2","out","Female","Right-handed","2","no","left","s","1006.39310645","1127.44808768","6","green","3"
"100","87","19","759.700954006","1","1","5","429","2","left","1","out","Female","Right-handed","2","no","left","s","568.771596055","942.878007576","6","red","2"
"100","88","19","769.294301624","1","1","5","430","0","right","2","in","Female","Right-handed","2","no","right","d","1383.57580356","615.49348534","6","red","1"
"100","88","19","776.036554008","1","1","5","431","0","left","3","in","Female","Right-handed","2","no","left","s","1050.08777933","839.097947879","6","green","2"
"100","88","19","775.543715994","1","1","5","432","0","left","0","in","Female","Right-handed","2","no","left","s","709.785872306","815.673983001","6","red","1"
"100","89","19","764.621977995","1","1","5","433","3","left","3","in","Female","Right-handed","2","no","left","s","484.246864864","455.223239169","6","red","2"
"100","89","19","764.893025289","1","1","5","434","2","right","2","in","Female","Right-handed","2","no","right","d","961.962074969","583.00262408","6","green","1"
"100","90","19","758.951407388","1","1","5","435","2","left","2","out","Female","Right-handed","2","no","left","s","541.644350342","631.644626152","6","red","1"
"100","90","19","758.005639305","1","1","5","436","2","right","2","in","Female","Right-handed","2","no","right","d","860.155687249","599.109506402","6","red","3"
"100","90","19","760.014109197","1","1","5","437","1","left","2","in","Female","Right-handed","2","no","left","s","1004.79402805","639.759323629","6","red","1"
"100","90","19","755.660572116","1","1","5","438","0","left","2","out","Female","Right-handed","2","no","left","s","657.357524549","575.337246468","6","red","1"
"100","91","19","747.980914027","1","1","5","439","0","right","2","in","Female","Right-handed","2","no","right","d","510.07489947","479.029494753","6","green","0"
"100","88","19","751.228301314","1","0","5","440","2","right","0","in","Female","Right-handed","2","no","right","d","579.66110827","1143.61782988","6","red","2"
"100","88","19","753.837860314","1","1","5","441","0","left","2","in","Female","Right-handed","2","no","left","d","803.15909387","887.185756721","6","red","3"
"100","86","19","756.078382319","1","0","5","442","2","right","2","in","Female","Right-handed","2","no","right","d","1018.81178148","654.662567519","6","red","0"
"100","86","19","755.42884702","1","1","5","443","2","left","2","in","Female","Right-handed","2","no","left","s","879.368360827","583.423721135","6","green","1"
"100","84","19","775.581919755","1","0","5","444","3","left","1","in","Female","Right-handed","2","no","left","s","1187.85611245","1894.94125488","6","red","0"
"100","85","19","771.387902071","1","1","5","445","3","left","3","out","Female","Right-handed","2","no","left","s","800.280367897","415.362056876","6","green","2"
"100","85","19","768.806423216","1","1","5","446","3","right","2","in","Female","Right-handed","2","no","right","s","772.078410645","559.016127408","6","green","3"
"100","85","19","781.174026175","1","1","5","447","3","right","3","in","Female","Right-handed","2","no","right","d","913.857589018","1662.63390598","6","green","0"
"100","86","19","786.80276343","1","1","5","448","0","right","2","out","Female","Right-handed","2","no","right","d","727.15283867","1319.26661762","6","red","1"
"100","86","19","784.971851252","1","1","5","449","0","right","2","in","Female","Right-handed","2","no","right","d","581.776214974","830.709040212","6","green","3"
"100","86","19","787.110713284","1","1","5","450","2","right","3","out","Female","Right-handed","2","no","right","d","643.25285772","1119.18842762","6","red","2"
"100","86","19","811.461848082","1","1","5","451","0","left","1","in","Female","Right-handed","2","no","left","s","1063.77455625","2750.75127179","6","red","2"
"100","87","19","814.120967959","1","1","5","452","3","left","0","in","Female","Right-handed","2","no","left","s","801.465084224","1071.41588033","6","red","2"
"100","87","19","820.772415106","1","1","5","453","0","right","0","out","Female","Right-handed","2","no","right","s","1187.97605937","1078.80480275","6","red","3"
"100","85","19","828.103323396","1","0","5","454","2","right","0","in","Female","Right-handed","2","no","right","s","816.465183641","1543.50865895","6","green","2"
"100","84","19","834.473205334","1","0","5","455","2","left","2","out","Female","Right-handed","2","no","left","s","1022.19242436","1271.00241626","6","red","0"
"100","84","19","842.893908682","1","1","5","456","3","right","2","in","Female","Right-handed","2","no","right","s","1337.44947958","1190.40867261","6","red","1"
"100","84","19","837.688645635","1","1","5","457","3","left","1","out","Female","Right-handed","2","no","left","d","617.221169927","527.219290543","6","green","3"
"100","84","19","841.263424787","1","1","5","458","3","right","1","in","Female","Right-handed","2","no","right","s","767.697141095","1286.60674025","6","red","2"
"100","85","19","844.169503142","1","1","5","459","1","right","2","out","Female","Right-handed","2","no","right","d","941.192657199","1055.19065466","6","green","1"
"100","85","19","844.778956261","1","1","5","460","0","left","3","in","Female","Right-handed","2","no","left","d","724.57173499","1030.80711446","6","red","0"
"100","85","19","845.306681194","1","1","5","461","1","left","2","in","Female","Right-handed","2","no","left","d","669.36728964","1079.29581539","6","green","3"
"100","85","19","848.879785384","1","1","5","462","0","left","2","in","Female","Right-handed","2","no","left","s","562.958019218","1534.98922081","6","red","0"
"100","86","19","851.659854745","1","1","5","463","3","right","0","out","Female","Right-handed","2","no","right","s","1221.67504905","798.572567564","6","red","1"
"100","86","19","854.717138853","1","1","5","464","2","left","2","out","Female","Right-handed","2","no","left","d","729.09315642","1334.98607782","6","green","3"
"100","86","19","864.674323813","1","1","5","465","0","right","3","out","Female","Right-handed","2","no","right","d","937.720290207","1966.57618265","6","green","2"
"100","86","19","869.067253059","1","1","5","466","3","right","2","out","Female","Right-handed","2","no","right","s","1018.23257258","1247.05344309","6","green","1"
"100","85","19","870.119485295","1","0","5","467","1","right","2","out","Female","Right-handed","2","no","right","d","653.767134933","1214.84416843","6","red","0"
"100","85","19","869.899564388","1","1","5","468","3","left","0","out","Female","Right-handed","2","no","left","s","729.239081142","983.289855249","6","green","3"
"100","85","19","875.038513203","1","1","5","469","3","left","2","out","Female","Right-handed","2","no","left","s","710.843906727","1686.74067028","6","green","1"
"100","86","19","882.667500489","1","1","5","470","1","left","2","in","Female","Right-handed","2","no","left","d","1423.39657593","1318.44879774","6","green","0"
"100","86","19","884.435554326","1","1","5","471","0","left","2","out","Female","Right-handed","2","no","left","d","1079.91383065","918.804276778","6","red","3"
"100","86","19","888.040681257","1","1","5","472","3","left","1","in","Female","Right-handed","2","no","left","d","645.417033618","1606.54108374","6","green","2"
"100","85","19","897.012008765","1","0","5","473","3","left","2","out","Female","Right-handed","2","no","left","d","877.085520868","2119.0963828","6","green","0"
"100","85","19","895.403707731","1","1","5","474","0","right","1","in","Female","Right-handed","2","no","right","d","573.492822106","998.58565268","6","green","2"
"100","85","19","892.056953068","1","1","5","475","2","right","0","out","Female","Right-handed","2","no","right","s","651.216499052","671.045263603","6","green","1"
"100","85","19","893.087983786","1","1","5","476","0","left","2","in","Female","Right-handed","2","no","left","d","1035.7252587","894.795009437","6","green","3"
"100","86","19","892.466505643","1","1","5","477","3","right","2","in","Female","Right-handed","2","no","right","s","874.376773146","822.306341856","6","red","3"
"100","86","19","892.266704897","1","1","5","478","1","left","3","out","Female","Right-handed","2","no","left","s","652.84187597","1102.92022632","6","red","2"
"100","85","19","894.835540713","1","0","5","479","2","right","2","in","Female","Right-handed","2","no","right","s","854.312925465","1310.40818512","6","green","1"
"100","85","19","894.385802305","1","1","5","480","1","left","2","out","Female","Right-handed","2","no","left","d","748.151887434","974.058432752","6","red","3"
"100","85","19","893.684569979","1","1","5","481","1","left","2","in","Female","Right-handed","2","no","left","s","723.585540432","958.598750625","6","green","3"
"100","85","19","890.639930497","1","1","5","482","0","right","3","out","Female","Right-handed","2","no","right","d","800.320457107","518.17420269","6","red","1"
"100","85","19","898.295179836","1","1","5","483","1","left","2","out","Female","Right-handed","2","no","left","s","1696.77323554","1278.72552233","6","red","0"
"100","86","19","897.212849557","1","1","5","484","0","left","1","in","Female","Right-handed","2","no","left","d","835.258043019","790.324132486","6","red","3"
"100","86","19","897.939131992","1","1","5","485","1","right","1","out","Female","Right-handed","2","no","right","d","639.802299262","1270.82858944","6","green","0"
"100","86","19","897.488541078","1","1","5","486","0","right","2","out","Female","Right-handed","2","no","right","d","588.539425011","1134.34311104","6","green","1"
"100","86","19","901.159611485","1","1","5","487","1","right","3","out","Female","Right-handed","2","no","right","d","1309.95886527","1087.07376351","6","green","0"
"100","85","19","898.609722822","1","0","5","488","3","right","2","in","Female","Right-handed","2","no","right","d","532.56109756","846.476607465","6","green","3"
"100","85","19","896.414579149","1","1","5","489","1","right","1","out","Female","Right-handed","2","no","right","d","902.210551096","526.224757428","6","red","2"
"100","84","19","896.482899113","1","0","5","490","1","left","1","in","Female","Right-handed","2","no","left","s","973.747981908","830.695570239","6","red","2"
"100","84","19","894.016844315","1","1","5","491","2","left","0","in","Female","Right-handed","2","no","left","s","658.385732604","710.418640392","6","green","3"
"100","85","19","890.297730008","1","1","5","492","1","right","1","out","Female","Right-handed","2","no","right","d","686.965490568","453.942308741","6","red","3"
"100","85","19","891.681091007","1","1","5","493","2","right","3","out","Female","Right-handed","2","no","right","d","1025.49128525","998.575710557","6","red","2"
"100","85","19","890.06180167","1","1","5","494","3","left","2","out","Female","Right-handed","2","no","left","s","529.13491334","965.993766607","6","red","3"
"100","85","19","888.207445375","1","1","5","495","0","left","1","out","Female","Right-handed","2","no","left","d","871.623766936","574.715703358","6","red","0"
"100","85","19","889.065468397","1","1","5","496","2","left","1","in","Female","Right-handed","2","no","left","d","1158.2378836","774.337197075","6","green","0"
"100","85","19","896.339995291","1","1","5","497","3","right","0","in","Female","Right-handed","2","no","right","d","1549.82415269","1566.81973262","6","red","2"
"100","86","19","894.447628246","1","1","5","498","2","right","3","in","Female","Right-handed","2","no","right","s","1026.41558207","414.284138205","6","red","0"
"100","85","19","895.942367738","1","0","5","499","0","right","0","in","Female","Right-handed","2","no","right","d","1263.978466","805.927815047","6","green","2"
"100","85","19","897.77398713","1","1","5","500","3","right","2","out","Female","Right-handed","2","no","right","d","1085.4230502","1054.4693696","6","green","1"
"100","85","19","900.282340286","1","1","5","501","2","right","2","out","Female","Right-handed","2","no","right","d","823.192473748","1453.95930656","6","green","0"
dis_reply=Yes
dis_loc=1
