"acc_1","acc_2","age","avg_rt","correct_1","correct_2","count_block_loop","count_trial_sequence","cue_position","detection","dis_position","dis_shape","gender","hand","high_loc","practice","response_keyboard_response_1","response_keyboard_response_2","response_time_keyboard_response_1","response_time_keyboard_response_2","subject_nr","tar_color","tar_position"
"100","100","18","1611.05288376","1","1","0","0","2","right","0","out","Female","Right-handed","2","yes","right","d","1902.31478304","1319.79098448","2","red","1"
"100","100","18","1587.2030913","1","1","0","1","3","left","1","in","Female","Right-handed","2","yes","left","d","1684.82472677","1441.88187089","2","green","3"
"100","100","18","1610.70870453","1","1","0","2","0","left","0","in","Female","Right-handed","2","yes","left","d","1778.23130255","1537.20855946","2","green","1"
"100","100","18","1585.46221736","1","1","0","3","1","right","0","in","Female","Right-handed","2","yes","right","d","1897.66315186","1121.78235985","2","green","3"
"100","100","18","1527.83647194","1","1","0","4","0","left","1","in","Female","Right-handed","2","yes","left","d","1433.33677566","1161.33020488","2","red","0"
"100","100","18","1467.08662519","1","1","0","5","0","left","0","out","Female","Right-handed","2","yes","left","d","1108.82424441","1217.85053845","2","red","3"
"100","100","18","1421.90129423","1","1","0","6","0","right","2","in","Female","Right-handed","2","yes","right","s","1340.11493095","961.463685911","2","red","0"
"100","87","18","1389.96854921","1","0","0","7","0","left","3","in","Female","Right-handed","2","yes","left","d","1058.98854603","1273.89012221","2","red","0"
"100","77","18","1385.52102111","1","0","0","8","3","right","3","in","Female","Right-handed","2","yes","right","s","1594.5066237","1105.37496881","2","green","1"
"100","70","18","1373.81366407","1","0","0","9","0","left","1","in","Female","Right-handed","2","yes","left","s","1007.05505948","1529.839842","2","green","2"
"100","72","18","1346.68364272","1","1","0","10","0","right","1","in","Female","Right-handed","2","yes","right","d","1229.40040012","921.366458351","2","green","2"
"100","66","18","1324.59101256","1","0","0","11","2","right","2","out","Female","Right-handed","2","yes","right","s","810.073039333","1353.07112211","2","red","3"
"100","69","18","1299.66996342","1","1","0","12","0","right","2","in","Female","Right-handed","2","yes","right","s","615.64678648","1385.58796118","2","green","3"
"100","64","18","1281.91581019","1","0","0","13","1","right","1","in","Female","Right-handed","2","yes","right","s","1421.07492962","681.148706595","2","red","2"
"100","66","18","1275.26492553","1","1","0","14","1","left","2","out","Female","Right-handed","2","yes","left","s","842.707580325","1521.59750048","2","green","3"
"100","62","18","1237.75828876","1","0","0","15","0","left","0","out","Female","Right-handed","2","yes","left","s","533.162756419","817.154718052","2","red","3"
"100","64","18","1219.08448432","1","1","0","16","2","left","2","in","Female","Right-handed","2","yes","left","s","959.875511779","880.731714671","2","green","1"
"100","66","18","1193.62907446","1","1","0","17","2","right","3","in","Female","Right-handed","2","yes","right","s","792.441804901","729.332408824","2","red","0"
"100","68","18","1174.09822994","1","1","0","18","3","left","3","out","Female","Right-handed","2","yes","left","s","811.94761078","833.138446322","2","green","1"
"95","65","18","1157.74541973","0","0","0","19","2","right","1","out","Female","Right-handed","2","yes","left","s","760.542981085","933.541070273","2","green","2"
"95","61","18","1139.14014006","1","0","0","20","2","left","1","in","Female","Right-handed","2","yes","left","d","717.019248594","817.049844678","2","green","3"
"95","59","18","1119.75805156","1","0","0","21","1","right","2","out","Female","Right-handed","2","yes","right","s","633.561211091","791.907175198","2","red","0"
"100","100","18","974.229693853","1","1","1","22","2","right","2","in","Female","Right-handed","2","no","right","d","1011.20252876","937.256858942","2","red","3"
"100","100","18","1185.22666118","1","1","1","23","2","left","2","in","Female","Right-handed","2","no","left","s","1542.83708451","1249.61017252","2","red","1"
"100","100","18","1089.10409489","1","1","1","24","0","left","2","out","Female","Right-handed","2","no","left","s","584.337434408","1209.38049022","2","green","3"
"100","100","18","1017.9085315","1","1","1","25","1","right","2","out","Female","Right-handed","2","no","right","s","782.797303184","825.846379432","2","green","3"
"100","80","18","1018.62368291","1","0","1","26","2","right","1","out","Female","Right-handed","2","no","right","d","769.442785642","1273.52579147","2","red","2"
"100","83","18","979.11662197","1","1","1","27","3","right","1","out","Female","Right-handed","2","no","right","d","778.010651544","785.151983006","2","red","0"
"100","85","18","933.693936157","1","1","1","28","3","right","2","out","Female","Right-handed","2","no","right","d","504.604486272","817.711156282","2","red","3"
"100","87","18","965.960111718","1","1","1","29","3","right","2","in","Female","Right-handed","2","no","right","d","1214.34321367","1169.30346762","2","green","1"
"100","88","18","977.224090558","1","1","1","30","1","left","0","out","Female","Right-handed","2","no","left","d","964.821558116","1169.85028444","2","green","1"
"100","90","18","963.685301628","1","1","1","31","0","left","1","in","Female","Right-handed","2","no","left","d","970.314421276","713.357981249","2","red","2"
"100","90","18","951.717168089","1","1","1","32","2","right","1","in","Female","Right-handed","2","no","right","d","807.048709352","857.022956045","2","red","3"
"100","91","18","965.877521264","1","1","1","33","2","left","1","out","Female","Right-handed","2","no","left","d","961.611214203","1281.67159818","2","green","0"
"100","92","18","978.466777937","1","1","1","34","1","left","0","out","Female","Right-handed","2","no","left","s","1170.07863258","1088.99708343","2","green","3"
"100","92","18","967.125702627","1","1","1","35","2","right","3","out","Female","Right-handed","2","no","right","d","973.631562843","665.751884353","2","red","2"
"100","86","18","970.53422774","1","0","1","36","3","right","3","out","Female","Right-handed","2","no","right","d","883.306404075","1153.20075458","2","green","1"
"100","87","18","964.858740859","1","1","1","37","1","left","2","out","Female","Right-handed","2","no","left","d","917.749128781","841.703746511","2","green","0"
"100","88","18","953.889504177","1","1","1","38","3","left","2","out","Female","Right-handed","2","no","left","d","555.337862237","1001.4255723","2","green","1"
"100","83","18","967.196950697","1","0","1","39","2","right","3","in","Female","Right-handed","2","no","right","d","1241.95505775","1144.89202533","2","red","2"
"100","78","18","946.29111005","1","0","1","40","0","left","2","in","Female","Right-handed","2","no","left","s","674.505443474","465.466513322","2","green","3"
"100","80","18","945.606479186","1","1","1","41","1","left","3","out","Female","Right-handed","2","no","left","s","784.114794971","1081.08219058","2","red","2"
"100","76","18","933.887066879","1","0","1","42","2","right","1","out","Female","Right-handed","2","no","right","s","941.430626745","457.567014726","2","green","2"
"100","77","18","934.285534186","1","1","1","43","2","right","0","out","Female","Right-handed","2","no","right","d","796.184533518","1089.12216176","2","green","2"
"100","78","18","926.960172019","1","1","1","44","1","left","2","out","Female","Right-handed","2","no","left","d","642.798085724","888.806322935","2","green","0"
"100","79","18","924.667470696","1","1","1","45","0","right","2","out","Female","Right-handed","2","no","right","s","846.486228875","897.384451673","2","green","3"
"100","80","18","913.780143077","1","1","1","46","0","left","2","out","Female","Right-handed","2","no","left","s","856.061456438","448.907103999","2","green","0"
"100","80","18","905.849158785","1","1","1","47","1","right","3","out","Female","Right-handed","2","no","right","s","805.600045671","609.549057328","2","green","2"
"100","81","18","894.23398619","1","1","1","48","0","right","3","out","Female","Right-handed","2","no","right","d","495.241891877","689.237105546","2","green","0"
"100","82","18","886.254696279","1","1","1","49","2","right","3","in","Female","Right-handed","2","no","right","d","580.732291954","760.895445417","2","red","0"
"100","82","18","880.813784194","1","1","1","50","0","right","2","out","Female","Right-handed","2","no","right","d","527.527817101","929.408674534","2","red","0"
"100","83","18","876.156691295","1","1","1","51","3","right","2","in","Female","Right-handed","2","no","right","d","481.207140627","1000.99485383","2","red","0"
"100","83","18","868.865086164","1","1","1","52","2","left","2","in","Female","Right-handed","2","no","left","s","698.710025445","601.523838968","2","green","3"
"100","84","18","871.172758316","1","1","1","53","2","right","2","out","Female","Right-handed","2","no","right","d","892.18247582","993.238714245","2","red","1"
"100","84","18","867.70418902","1","1","1","54","0","right","2","out","Female","Right-handed","2","no","right","s","864.697634352","648.722308781","2","green","1"
"100","85","18","882.458705945","1","1","1","55","3","left","2","in","Female","Right-handed","2","no","left","s","793.346217472","1945.36931142","2","green","0"
"100","85","18","875.244711409","1","1","1","56","2","right","2","in","Female","Right-handed","2","no","right","s","483.020776474","776.917017902","2","green","0"
"100","86","18","873.29314399","1","1","1","57","1","left","0","out","Female","Right-handed","2","no","left","d","888.506455645","721.470113014","2","red","2"
"100","86","18","866.018961702","1","1","1","58","1","right","1","in","Female","Right-handed","2","no","right","d","471.079323395","737.217475304","2","green","3"
"100","84","18","871.945459635","1","0","1","59","3","left","1","out","Female","Right-handed","2","no","left","d","1173.71616711","1008.73559915","2","red","2"
"100","82","18","865.002986667","1","0","1","60","3","right","2","in","Female","Right-handed","2","no","right","s","601.180354619","601.197673157","2","red","3"
"100","82","18","861.389007731","1","1","1","61","2","right","2","in","Female","Right-handed","2","no","right","d","647.953558093","792.934100396","2","red","3"
"100","82","18","861.694952544","1","1","1","62","0","left","0","out","Female","Right-handed","2","no","left","s","699.488718255","1048.37677186","2","red","3"
"100","80","18","861.966742114","1","0","1","63","3","left","2","in","Female","Right-handed","2","no","left","s","849.144945263","897.075283687","2","red","1"
"100","81","18","870.478766898","1","1","1","64","0","left","0","out","Female","Right-handed","2","no","left","d","775.399080065","1680.56853555","2","red","2"
"100","81","18","869.687931888","1","1","1","65","0","right","0","in","Female","Right-handed","2","no","right","s","622.258298947","1049.10575405","2","green","2"
"100","82","18","864.821932283","1","1","1","66","2","right","2","out","Female","Right-handed","2","no","right","s","564.562229036","736.873670241","2","green","3"
"100","82","18","870.050234081","1","1","1","67","2","right","0","out","Female","Right-handed","2","no","right","d","937.325170957","1273.322459","2","green","1"
"100","82","18","866.835211485","1","1","1","68","2","left","2","in","Female","Right-handed","2","no","left","s","933.029211243","504.859132932","2","red","1"
"100","81","18","864.349670034","1","0","1","69","2","right","2","out","Female","Right-handed","2","no","right","s","654.508304238","840.550139415","2","red","0"
"100","81","18","860.722034877","1","1","1","70","0","left","0","out","Female","Right-handed","2","no","left","s","604.040158483","769.150936196","2","green","1"
"100","82","18","857.652177037","1","1","1","71","1","left","1","out","Female","Right-handed","2","no","left","s","901.704464912","512.753820824","2","red","0"
"100","80","18","858.438315812","1","0","1","72","2","right","0","in","Female","Right-handed","2","no","right","d","874.187552075","921.302957045","2","green","2"
"100","80","18","856.168288014","1","1","1","73","3","left","2","in","Female","Right-handed","2","no","left","d","615.92227953","864.871461165","2","green","0"
"100","81","18","857.881446047","1","1","1","74","3","left","1","out","Female","Right-handed","2","no","left","d","549.535189666","1344.39613784","2","red","3"
"100","79","18","853.751866583","1","0","1","75","0","right","1","out","Female","Right-handed","2","no","right","d","580.930813721","688.837496304","2","red","3"
"100","78","18","855.539623213","1","0","1","76","3","right","3","out","Female","Right-handed","2","no","right","s","895.694290592","1008.46267181","2","red","2"
"100","76","18","868.263675506","1","0","1","77","2","right","0","in","Female","Right-handed","2","no","right","d","1471.14090042","1665.03220286","2","green","3"
"100","77","18","866.9694969","1","1","1","78","3","right","0","in","Female","Right-handed","2","no","right","s","460.518863416","1128.47212645","2","green","3"
"100","77","18","864.611741146","1","1","1","79","3","left","2","in","Female","Right-handed","2","no","left","d","499.225155756","961.214170669","2","green","3"
"100","77","18","858.894978088","1","1","1","80","0","left","3","in","Female","Right-handed","2","no","left","s","653.904721097","400.74072031","2","red","1"
"100","78","18","855.130405923","1","1","1","81","1","right","2","out","Female","Right-handed","2","no","right","d","553.611781224","712.429515152","2","red","3"
"100","78","18","855.580362262","1","1","1","82","0","left","1","in","Female","Right-handed","2","no","left","d","908.173901218","856.981583978","2","green","0"
"100","77","18","856.506883767","1","0","1","83","1","left","1","in","Female","Right-handed","2","no","left","s","745.570463039","1080.47892815","2","red","2"
"100","77","18","855.185287033","1","1","1","84","0","left","2","in","Female","Right-handed","2","no","left","s","745.263219336","801.229359669","2","red","1"
"100","78","18","855.155660789","1","1","1","85","3","left","3","in","Female","Right-handed","2","no","left","d","681.725670502","1024.85274431","2","green","2"
"100","78","18","852.197313021","1","1","1","86","2","left","3","in","Female","Right-handed","2","no","left","s","645.395225087","680.330886717","2","green","1"
"100","78","18","848.929002913","1","1","1","87","3","left","0","in","Female","Right-handed","2","no","left","s","647.951954525","625.025737272","2","red","2"
"100","77","18","843.940250525","1","0","1","88","1","left","2","out","Female","Right-handed","2","no","left","s","556.60436055","472.760825209","2","green","3"
"100","77","18","839.79746686","1","1","1","89","0","right","2","in","Female","Right-handed","2","no","right","s","444.302297015","680.159625612","2","red","3"
"100","76","18","841.740226532","1","0","1","90","3","right","0","out","Female","Right-handed","2","no","right","d","882.877289174","1064.81847926","2","red","1"
"100","77","18","838.299423513","1","1","1","91","0","left","2","out","Female","Right-handed","2","no","left","d","657.515957108","544.252073252","2","red","0"
"100","77","18","838.260851304","1","1","1","92","1","right","0","in","Female","Right-handed","2","no","right","d","878.136820304","792.984773156","2","red","2"
"100","77","18","836.014722397","1","1","1","93","1","right","2","in","Female","Right-handed","2","no","right","s","568.630482039","784.448657909","2","green","3"
"100","78","18","840.758414391","1","1","1","94","2","left","2","in","Female","Right-handed","2","no","left","s","828.215170653","1536.39330529","2","green","0"
"100","78","18","837.59075612","1","1","1","95","3","left","2","in","Female","Right-handed","2","no","left","d","507.828941587","704.874463045","2","green","3"
"100","78","18","835.221004864","1","1","1","96","3","left","0","out","Female","Right-handed","2","no","left","s","559.403549531","760.315274372","2","green","2"
"100","78","18","835.006795501","1","1","1","97","2","left","2","out","Female","Right-handed","2","no","left","s","765.991265043","871.890921429","2","red","1"
"100","79","18","839.96142156","1","1","1","98","1","left","3","in","Female","Right-handed","2","no","left","s","1544.55899624","888.467007864","2","green","0"
"100","79","18","839.219956821","1","1","1","99","0","right","1","out","Female","Right-handed","2","no","right","s","772.105350594","792.148993312","2","red","2"
"100","79","18","834.124508942","1","1","1","100","2","right","2","out","Female","Right-handed","2","no","right","d","520.717782867","352.64136578","2","green","0"
"100","78","18","832.134175538","1","0","1","101","1","left","2","in","Female","Right-handed","2","no","left","s","589.465966827","760.329706491","2","red","0"
"100","79","18","834.11952134","1","1","1","102","1","right","2","in","Female","Right-handed","2","no","right","d","897.882840727","1088.0115303","2","green","1"
"100","79","18","841.862476317","1","1","1","103","0","right","2","out","Female","Right-handed","2","no","right","d","729.611750436","2208.47190837","2","green","1"
"100","79","18","852.201182392","1","1","1","104","0","left","3","in","Female","Right-handed","2","no","left","d","919.870329046","2480.07983205","2","red","2"
"100","79","18","852.145532888","1","1","1","105","1","left","3","out","Female","Right-handed","2","no","left","s","798.435622824","896.617625269","2","red","1"
"100","78","18","850.645417411","1","0","1","106","1","right","1","in","Female","Right-handed","2","no","right","d","777.146648896","672.124785844","2","red","2"
"98","77","18","865.877133486","0","0","1","107","1","left","2","in","Female","Right-handed","2","no","right","d","1333.63811823","2987.50788154","2","green","0"
"98","78","18","863.896478683","1","1","1","108","1","right","2","in","Female","Right-handed","2","no","right","d","698.968841383","688.151489747","2","green","1"
"98","78","18","862.076279285","1","1","1","109","3","left","1","in","Female","Right-handed","2","no","left","d","822.67195545","584.765907879","2","red","2"
"98","78","18","859.321107377","1","1","1","110","3","left","2","in","Female","Right-handed","2","no","left","s","881.35261635","352.379342705","2","red","1"
"98","78","18","856.722456236","1","1","1","111","0","right","2","in","Female","Right-handed","2","no","right","s","722.890874606","527.994134787","2","green","1"
"98","78","18","857.780039447","1","0","1","112","1","left","2","out","Female","Right-handed","2","no","left","d","881.520670317","1024.40438659","2","red","1"
"98","78","18","855.288661971","1","1","1","113","0","left","2","out","Female","Right-handed","2","no","left","s","561.092748472","696.053874766","2","red","0"
"98","78","18","859.211126842","1","1","1","114","0","right","3","in","Female","Right-handed","2","no","right","d","799.746379624","1640.40941025","2","green","2"
"98","77","18","859.652550607","1","0","1","115","3","left","2","out","Female","Right-handed","2","no","left","d","681.209321479","1120.20059999","2","green","0"
"98","77","18","856.637915642","1","1","1","116","1","right","2","in","Female","Right-handed","2","no","right","s","593.742683719","552.781774228","2","red","1"
"98","77","18","855.833482465","1","0","1","117","3","right","3","in","Female","Right-handed","2","no","right","d","638.456905383","920.367755962","2","red","0"
"100","100","18","790.285005416","1","1","2","118","0","right","2","in","Female","Right-handed","2","no","right","s","1035.68901806","544.880992775","2","green","1"
"100","100","18","917.667908042","1","1","2","119","2","left","2","in","Female","Right-handed","2","no","left","s","760.62893235","1329.47268899","2","red","1"
"100","66","18","877.959839805","1","0","2","120","3","left","3","in","Female","Right-handed","2","no","left","d","619.978345412","977.109061252","2","green","2"
"100","75","18","813.260532397","1","1","2","121","0","right","0","out","Female","Right-handed","2","no","right","d","621.607570896","616.717649451","2","green","3"
"100","80","18","832.841657884","1","1","2","122","0","left","1","out","Female","Right-handed","2","no","left","d","813.159908481","1009.17241118","2","red","2"
"100","66","18","831.087963423","1","0","2","123","0","right","2","in","Female","Right-handed","2","no","right","s","563.780970517","1080.85801172","2","green","3"
"100","71","18","809.26234388","1","1","2","124","2","right","2","in","Female","Right-handed","2","no","right","d","595.270242968","761.347010275","2","green","0"
"100","75","18","779.482987903","1","1","2","125","2","right","2","out","Female","Right-handed","2","no","right","d","453.05104543","689.003946704","2","green","3"
"100","77","18","754.656940775","1","1","2","126","0","right","1","in","Female","Right-handed","2","no","right","d","535.486647728","576.610479769","2","red","3"
"100","80","18","761.616441836","1","1","2","127","0","right","2","in","Female","Right-handed","2","no","right","d","535.242905333","1113.26099743","2","red","3"
"100","81","18","764.767086357","1","1","2","128","1","left","1","out","Female","Right-handed","2","no","left","d","663.809000895","928.738062234","2","green","0"
"100","83","18","768.780672254","1","1","2","129","1","right","3","in","Female","Right-handed","2","no","right","d","641.444674004","984.415560257","2","red","1"
"100","84","18","755.605273303","1","1","2","130","1","left","3","in","Female","Right-handed","2","no","left","d","553.956869142","641.04410262","2","green","0"
"100","78","18","738.647102338","1","0","2","131","1","left","2","in","Female","Right-handed","2","no","left","s","403.70122827","632.680531333","2","red","0"
"100","80","18","725.950279972","1","1","2","132","1","right","2","out","Female","Right-handed","2","no","right","d","487.221484225","609.168049477","2","green","0"
"100","81","18","732.951682721","1","1","2","133","2","left","2","out","Female","Right-handed","2","no","left","d","938.996089217","736.949358668","2","red","0"
"100","82","18","728.298767505","1","1","2","134","1","right","1","out","Female","Right-handed","2","no","right","d","491.204106675","816.500141434","2","green","2"
"100","83","18","726.97212542","1","1","2","135","3","left","2","in","Female","Right-handed","2","no","left","d","535.862844872","872.975575086","2","green","1"
"100","84","18","717.217052974","1","1","2","136","0","right","3","in","Female","Right-handed","2","no","right","s","706.646726829","376.604771065","2","green","2"
"100","85","18","707.973150492","1","1","2","137","3","right","0","out","Female","Right-handed","2","no","right","s","504.35497103","560.323035645","2","red","3"
"100","85","18","692.539990628","1","1","2","138","1","left","2","in","Female","Right-handed","2","no","left","s","399.887301213","367.866285489","2","red","0"
"100","86","18","693.058890087","1","1","2","139","0","right","3","in","Female","Right-handed","2","no","right","d","455.418233087","952.493324345","2","green","0"
"100","86","18","686.067206416","1","1","2","140","2","right","2","in","Female","Right-handed","2","no","right","s","495.230666898","569.2696644","2","red","3"
"100","87","18","681.223118849","1","1","2","141","2","right","1","out","Female","Right-handed","2","no","right","d","442.798470582","696.819739029","2","red","0"
"100","84","18","675.932054883","1","0","2","142","3","right","1","out","Female","Right-handed","2","no","right","s","433.399635542","664.493403883","2","red","0"
"100","84","18","680.398804005","1","1","2","143","3","left","0","out","Female","Right-handed","2","no","left","s","767.075597987","817.059466088","2","red","2"
"100","85","18","672.238657017","1","1","2","144","2","right","2","out","Female","Right-handed","2","no","right","s","399.586792499","520.562878161","2","red","3"
"100","85","18","676.417143255","1","1","2","145","1","right","2","out","Female","Right-handed","2","no","right","d","842.232282654","736.240260727","2","green","1"
"100","86","18","687.607022984","1","1","2","146","1","left","3","out","Female","Right-handed","2","no","left","d","760.976585978","1240.87072481","2","green","2"
"100","83","18","683.700764304","1","0","2","147","2","right","0","in","Female","Right-handed","2","no","right","d","476.416640422","664.421884732","2","green","3"
"100","83","18","684.388147515","1","1","2","148","1","left","2","in","Female","Right-handed","2","no","left","d","480.972378215","929.046909507","2","green","3"
"100","84","18","689.019947308","1","1","2","149","0","right","3","in","Female","Right-handed","2","no","right","s","720.509575549","944.701906257","2","red","1"
"100","84","18","692.462382084","1","1","2","150","3","left","3","in","Female","Right-handed","2","no","left","s","613.118600561","992.121989219","2","green","1"
"100","82","18","691.00353517","1","0","2","151","2","right","3","out","Female","Right-handed","2","no","right","s","692.911201439","592.811972627","2","green","2"
"100","82","18","689.693852221","1","1","2","152","2","left","0","in","Female","Right-handed","2","no","left","d","594.144858671","696.184405233","2","green","2"
"100","83","18","683.647979287","1","1","2","153","1","right","0","out","Female","Right-handed","2","no","right","s","574.946296494","369.138556647","2","green","1"
"100","81","18","678.906848643","1","0","2","154","3","right","2","in","Female","Right-handed","2","no","right","d","415.661924168","600.790366787","2","red","0"
"100","81","18","678.256173055","1","1","2","155","2","left","3","out","Female","Right-handed","2","no","left","d","676.101956162","632.260396414","2","green","1"
"100","82","18","672.529337366","1","1","2","156","1","right","2","in","Female","Right-handed","2","no","right","s","564.975628968","344.843533418","2","green","1"
"100","82","18","669.403173494","1","1","2","157","3","right","2","out","Female","Right-handed","2","no","right","s","470.510698045","624.454866927","2","red","3"
"100","82","18","664.615556682","1","1","2","158","0","right","0","out","Female","Right-handed","2","no","right","s","474.132838323","472.088930055","2","green","2"
"100","80","18","674.630865429","1","0","2","159","2","left","2","out","Female","Right-handed","2","no","left","s","785.761018278","1384.7560299","2","green","1"
"100","79","18","672.841435473","1","0","2","160","2","right","1","out","Female","Right-handed","2","no","right","d","467.151542985","728.219211647","2","green","3"
"100","79","18","677.579382029","1","1","2","161","3","right","2","in","Female","Right-handed","2","no","right","d","1097.78143106","664.840736796","2","green","3"
"100","80","18","674.765214425","1","1","2","162","0","right","2","out","Female","Right-handed","2","no","right","d","485.436712606","616.446967107","2","red","0"
"100","80","18","673.596540911","1","1","2","163","3","left","0","out","Female","Right-handed","2","no","left","d","538.075769247","703.936696253","2","green","2"
"100","80","18","675.494626811","1","1","2","164","2","right","1","out","Female","Right-handed","2","no","right","s","612.894742411","912.718414031","2","red","2"
"100","79","18","679.760036414","1","0","2","165","3","left","1","in","Female","Right-handed","2","no","left","s","584.281309512","1176.187266","2","red","2"
"100","79","18","677.539879208","1","1","2","166","0","right","2","in","Female","Right-handed","2","no","right","s","429.049475217","712.895191411","2","red","3"
"100","80","18","675.859358714","1","1","2","167","1","left","0","out","Female","Right-handed","2","no","left","d","626.372093293","560.655615729","2","red","2"
"100","80","18","675.432431772","1","1","2","168","0","right","1","in","Female","Right-handed","2","no","right","d","612.013741938","696.158427427","2","red","0"
"100","78","18","685.907869371","1","0","2","169","2","right","2","out","Female","Right-handed","2","no","right","d","807.685326001","1632.62504787","2","red","1"
"100","79","18","686.471092279","1","1","2","170","3","right","2","out","Female","Right-handed","2","no","right","s","871.278037592","560.239329376","2","red","1"
"100","79","18","684.624657855","1","1","2","171","3","left","1","in","Female","Right-handed","2","no","left","s","660.800385884","512.726880874","2","green","2"
"100","80","18","683.856597136","1","1","2","172","0","right","2","in","Female","Right-handed","2","no","right","d","436.348597808","848.414038794","2","green","0"
"100","80","18","681.814871855","1","1","2","173","1","left","2","in","Female","Right-handed","2","no","left","d","539.079603059","599.960359788","2","green","0"
"100","78","18","678.733257157","1","0","2","174","1","right","2","out","Female","Right-handed","2","no","right","s","531.729486993","480.596181069","2","green","3"
"100","79","18","683.801390247","1","1","2","175","1","right","3","in","Female","Right-handed","2","no","right","d","929.257297679","1016.11265517","2","red","2"
"100","79","18","681.617932448","1","1","2","176","3","right","1","in","Female","Right-handed","2","no","right","s","518.046237932","591.908522198","2","red","3"
"100","80","18","679.499901541","1","1","2","177","0","left","2","in","Female","Right-handed","2","no","left","s","484.464950165","624.607205924","2","red","3"
"100","80","18","676.895459633","1","1","2","178","1","left","0","in","Female","Right-handed","2","no","left","s","697.067009274","344.190881083","2","red","2"
"100","80","18","674.34447883","1","1","2","179","0","left","3","in","Female","Right-handed","2","no","left","s","692.624162697","344.845136988","2","red","2"
"100","79","18","674.27860218","1","0","2","180","2","left","0","out","Female","Right-handed","2","no","left","d","532.146735486","808.241764235","2","green","2"
"100","79","18","674.734996794","1","1","2","181","2","left","2","out","Female","Right-handed","2","no","left","d","663.013951686","743.961763232","2","green","1"
"100","80","18","672.149700362","1","1","2","182","0","left","2","out","Female","Right-handed","2","no","left","s","452.657209035","560.724248455","2","green","0"
"100","80","18","678.786939486","1","1","2","183","0","left","2","out","Female","Right-handed","2","no","left","d","1348.24790911","872.167055906","2","red","1"
"100","79","18","689.017914501","1","0","2","184","3","left","2","out","Female","Right-handed","2","no","left","d","808.873249465","1919.6512816","2","red","0"
"100","77","18","706.550151922","1","0","2","185","1","left","0","out","Female","Right-handed","2","no","left","None","762.33641197","3000.08370627","2","red","3"
"100","76","18","704.733290927","1","0","2","186","0","right","0","out","Female","Right-handed","2","no","right","s","562.702731133","599.670755339","2","red","2"
"100","77","18","703.834883404","1","1","2","187","3","right","2","in","Female","Right-handed","2","no","right","s","723.285031714","560.404496921","2","red","1"
"100","77","18","700.322655125","1","1","2","188","2","left","1","out","Female","Right-handed","2","no","left","s","517.003597766","391.929753441","2","green","2"
"100","77","18","698.471450104","1","1","2","189","3","right","2","out","Female","Right-handed","2","no","right","s","493.600158561","640.471628705","2","red","0"
"100","78","18","707.989115663","1","1","2","190","2","right","0","out","Female","Right-handed","2","no","right","s","546.258458022","2240.26361381","2","red","1"
"100","78","18","705.13375572","1","1","2","191","2","left","2","in","Female","Right-handed","2","no","left","s","529.575894647","463.809065037","2","green","0"
"100","78","18","705.12340314","1","1","2","192","2","left","2","in","Female","Right-handed","2","no","left","d","584.397728577","824.316895904","2","red","3"
"100","78","18","710.626538814","1","1","2","193","3","left","0","in","Female","Right-handed","2","no","left","s","903.84426657","1342.87916214","2","red","1"
"100","79","18","707.806975199","1","1","2","194","2","left","2","in","Female","Right-handed","2","no","left","s","482.385121964","504.655159033","2","green","0"
"100","79","18","705.137127547","1","1","2","195","3","right","2","out","Female","Right-handed","2","no","right","s","591.101285869","408.016430803","2","green","3"
"100","79","18","703.974859149","1","1","2","196","3","right","3","in","Female","Right-handed","2","no","right","d","634.802373024","591.833475197","2","green","2"
"100","80","18","703.729587376","1","1","2","197","1","left","1","out","Female","Right-handed","2","no","left","s","768.429971847","600.276262761","2","red","2"
"100","80","18","703.462400316","1","1","2","198","1","left","2","in","Female","Right-handed","2","no","left","d","524.013757333","840.161113723","2","red","1"
"100","80","18","703.391866291","1","1","2","199","3","left","2","out","Female","Right-handed","2","no","left","d","515.582194746","879.775025769","2","red","1"
"100","79","18","701.141166499","1","0","2","200","3","right","2","in","Female","Right-handed","2","no","right","d","393.051609886","640.115957236","2","green","0"
"100","79","18","700.911598848","1","1","2","201","2","right","3","out","Female","Right-handed","2","no","right","d","699.803017658","663.911949983","2","green","2"
"100","80","18","701.12861973","1","1","2","202","2","left","3","in","Female","Right-handed","2","no","left","d","679.316790065","759.399957536","2","red","0"
"100","80","18","698.750254501","1","1","2","203","0","left","2","out","Female","Right-handed","2","no","left","s","640.980280599","352.198139475","2","red","1"
"100","80","18","698.180914232","1","1","2","204","1","left","2","out","Female","Right-handed","2","no","left","d","618.735259199","679.700042911","2","green","3"
"100","80","18","697.03450057","1","1","2","205","1","left","1","in","Female","Right-handed","2","no","left","d","378.136820304","816.45620366","2","green","3"
"100","80","18","699.865538809","1","1","2","206","0","left","2","out","Female","Right-handed","2","no","left","s","690.001045526","1207.99276213","2","red","1"
"100","81","18","700.743588916","1","1","2","207","0","right","0","in","Female","Right-handed","2","no","right","s","630.427838461","927.352258433","2","green","1"
"100","81","18","699.433217167","1","1","2","208","3","left","3","out","Female","Right-handed","2","no","left","s","571.008573959","591.990945611","2","red","0"
"100","81","18","698.902525115","1","1","2","209","1","right","2","in","Female","Right-handed","2","no","right","s","501.55481991","799.664276921","2","red","3"
"100","81","18","710.046252154","1","1","2","210","0","left","1","in","Female","Right-handed","2","no","left","s","814.195172234","2656.34310719","2","green","2"
"100","81","18","707.787863624","1","1","2","211","3","left","2","out","Female","Right-handed","2","no","left","s","491.76439347","503.751067175","2","green","3"
"100","82","18","707.443205743","1","1","2","212","0","left","2","in","Female","Right-handed","2","no","left","d","542.632789893","807.457940004","2","red","0"
"100","82","18","706.178189201","1","1","2","213","1","left","2","out","Female","Right-handed","2","no","left","d","612.024966918","559.97826844","2","green","1"
"100","100","18","413.918845328","1","1","3","214","1","right","1","out","Female","Right-handed","2","no","right","d","475.416013747","352.421676909","2","red","3"
"50","100","18","608.196206855","0","1","3","215","0","right","1","in","Female","Right-handed","2","no","left","d","689.973784863","914.973351901","2","red","2"
"66","100","18","601.657202406","1","1","3","216","0","left","2","in","Female","Right-handed","2","no","left","d","600.475105242","576.683281774","2","red","3"
"75","100","18","635.186427654","1","1","3","217","2","left","1","out","Female","Right-handed","2","no","left","d","695.171912153","776.37629464","2","red","0"
"80","100","18","622.526640082","1","1","3","218","0","right","2","out","Female","Right-handed","2","no","right","s","542.8556859","600.919293687","2","green","3"
"83","100","18","722.245144341","1","1","3","219","1","right","2","in","Female","Right-handed","2","no","right","d","761.327767454","1680.34756383","2","green","1"
"85","100","18","713.200029762","1","1","3","220","2","left","3","in","Female","Right-handed","2","no","left","s","685.018117116","632.840567457","2","red","2"
"87","100","18","675.378325881","1","1","3","221","1","right","0","in","Female","Right-handed","2","no","right","s","428.588930376","392.663867051","2","green","3"
"88","100","18","649.258417327","1","1","3","222","1","right","2","in","Female","Right-handed","2","no","right","s","504.17440923","376.423888551","2","green","3"
"90","100","18","642.969282685","1","1","3","223","1","left","3","out","Female","Right-handed","2","no","left","d","579.725251007","593.008890824","2","green","1"
"90","100","18","632.98227917","1","1","3","224","2","right","2","in","Female","Right-handed","2","no","right","d","473.626752139","592.597735889","2","red","0"
"91","100","18","614.708257992","1","1","3","225","1","right","2","out","Female","Right-handed","2","no","right","d","339.154072775","488.233977305","2","red","3"
"92","100","18","616.325280937","1","1","3","226","1","left","2","in","Female","Right-handed","2","no","left","d","542.846705917","728.612406616","2","red","1"
"92","100","18","620.761218954","1","1","3","227","1","left","2","in","Female","Right-handed","2","no","left","s","460.406292916","896.450533443","2","green","3"
"93","100","18","636.920558581","1","1","3","228","2","right","2","in","Female","Right-handed","2","no","right","d","958.161617886","768.141008825","2","red","3"
"93","100","18","636.586663571","1","1","3","229","3","left","0","out","Female","Right-handed","2","no","left","d","598.516827526","664.63964932","2","green","2"
"94","100","18","640.042391179","1","1","3","230","0","left","2","in","Female","Right-handed","2","no","left","d","622.258298948","768.409766886","2","green","0"
"94","100","18","639.69637466","1","1","3","231","2","left","2","in","Female","Right-handed","2","no","left","s","578.798067765","688.830119889","2","green","1"
"94","100","18","641.211633318","1","1","3","232","1","left","2","in","Female","Right-handed","2","no","left","d","488.498566088","848.474012251","2","green","0"
"90","100","18","641.879617876","0","1","3","233","1","right","3","in","Female","Right-handed","2","no","left","s","578.145736145","730.996912811","2","green","2"
"90","100","18","651.440792452","1","1","3","234","3","left","3","in","Female","Right-handed","2","no","left","s","820.778141182","864.550426773","2","green","2"
"90","100","18","645.456175263","1","1","3","235","0","left","3","in","Female","Right-handed","2","no","left","s","543.232203758","496.326224822","2","green","1"
"91","100","18","640.494225076","1","1","3","236","3","right","0","in","Female","Right-handed","2","no","right","d","534.686467101","527.976174822","2","red","1"
"91","100","18","644.26626617","1","1","3","237","0","left","2","in","Female","Right-handed","2","no","left","d","685.481227667","776.565194996","2","red","1"
"92","100","18","645.800145348","1","1","3","238","3","left","2","out","Female","Right-handed","2","no","left","d","533.183923522","832.042567685","2","red","1"
"92","100","18","641.314655446","1","1","3","239","0","left","0","out","Female","Right-handed","2","no","left","s","529.618549565","528.736266238","2","green","1"
"92","100","18","656.095801309","1","1","3","240","0","left","2","in","Female","Right-handed","2","no","left","s","624.459356919","1456.3518306","2","green","1"
"92","100","18","653.465589622","1","1","3","241","1","right","2","out","Female","Right-handed","2","no","right","d","460.905644111","703.994104","2","red","0"
"93","100","18","650.661382382","1","1","3","242","2","left","3","out","Female","Right-handed","2","no","left","s","583.6854235","560.60173583","2","red","1"
"93","100","18","655.529023626","1","1","3","243","3","right","2","out","Female","Right-handed","2","no","right","d","633.161601849","960.219637556","2","red","1"
"93","100","18","650.614974685","1","1","3","244","0","right","2","out","Female","Right-handed","2","no","right","s","405.771114347","600.615898547","2","red","0"
"93","100","18","655.63601872","1","1","3","245","2","right","3","in","Female","Right-handed","2","no","right","s","486.21219828","1136.36456935","2","green","0"
"93","100","18","650.93430503","1","1","3","246","2","left","2","out","Female","Right-handed","2","no","left","d","472.9388213","528.020112597","2","green","3"
"94","100","18","649.514259326","1","1","3","247","2","left","1","out","Female","Right-handed","2","no","left","s","629.608094301","575.697407927","2","red","2"
"94","100","18","650.735547657","1","1","3","248","0","right","2","out","Female","Right-handed","2","no","right","d","528.189128703","856.329573072","2","red","1"
"94","100","18","650.056526677","1","1","3","249","3","left","0","out","Female","Right-handed","2","no","left","s","700.778628667","551.802956083","2","red","2"
"94","100","18","647.767596168","1","1","3","250","3","right","2","in","Female","Right-handed","2","no","right","s","610.398307145","520.333888597","2","green","0"
"94","100","18","644.855712942","1","1","3","251","0","left","1","out","Female","Right-handed","2","no","left","d","490.155372948","584.076694186","2","green","0"
"94","97","18","662.463927729","1","0","3","252","3","right","2","out","Female","Right-handed","2","no","right","d","1311.44922172","1351.70295756","2","green","1"
"95","97","18","658.453114547","1","1","3","253","2","right","0","in","Female","Right-handed","2","no","right","s","531.996320773","472.066480097","2","green","2"
"95","97","18","654.56962313","1","1","3","254","1","right","2","in","Female","Right-handed","2","no","right","d","462.629800843","535.830132076","2","green","0"
"95","97","18","668.244589415","1","1","3","255","3","left","2","out","Female","Right-handed","2","no","left","d","649.411843186","1808.42457103","2","red","1"
"95","95","18","669.051849094","1","0","3","256","0","left","1","in","Female","Right-handed","2","no","left","d","525.952792228","879.960718989","2","green","3"
"95","95","18","664.529389414","1","1","3","257","1","right","2","out","Female","Right-handed","2","no","right","s","475.549109924","464.578136436","2","green","3"
"95","95","18","660.055432152","1","1","3","258","0","right","2","in","Female","Right-handed","2","no","right","s","470.237770707","456.164854526","2","red","0"
"95","95","18","655.688663042","1","1","3","259","2","right","2","in","Female","Right-handed","2","no","right","s","382.605644688","535.76246149","2","green","3"
"95","95","18","651.237297674","1","1","3","260","0","right","1","in","Female","Right-handed","2","no","right","s","517.486271852","375.462709658","2","red","2"
"95","93","18","655.692095172","1","0","3","261","3","left","2","in","Female","Right-handed","2","no","left","s","1010.00370104","720.131454122","2","red","0"
"95","93","18","661.515934096","1","1","3","262","1","left","3","out","Female","Right-handed","2","no","left","s","682.466519096","1199.6538858","2","red","2"
"96","94","18","660.470442065","1","1","3","263","3","left","2","out","Female","Right-handed","2","no","left","s","522.288638461","696.194026643","2","red","3"
"96","94","18","661.634656486","1","1","3","264","1","left","1","out","Female","Right-handed","2","no","left","d","599.8269429","839.863812143","2","green","2"
"96","94","18","659.515628476","1","1","3","265","3","left","0","in","Female","Right-handed","2","no","left","s","551.404629694","551.485770255","2","red","3"
"96","94","18","658.81701686","1","1","3","266","0","left","3","in","Female","Right-handed","2","no","left","d","613.011161479","631.967264113","2","red","2"
"96","94","18","658.666428341","1","1","3","267","1","right","0","out","Female","Right-handed","2","no","right","d","597.688424096","703.68204959","2","green","2"
"96","92","18","661.82223214","1","0","3","268","3","right","3","out","Female","Right-handed","2","no","right","s","680.17950986","984.291764779","2","green","2"
"96","92","18","660.948673006","1","1","3","269","3","right","3","in","Female","Right-handed","2","no","right","s","665.960027531","559.845813692","2","red","1"
"96","92","18","659.659579198","1","1","3","270","3","right","1","out","Female","Right-handed","2","no","right","d","575.434101998","599.506549936","2","red","2"
"96","91","18","659.52913216","1","0","3","271","2","right","3","out","Female","Right-handed","2","no","right","s","552.122707619","752.0645943","2","green","2"
"96","91","18","658.397033683","1","1","3","272","2","left","1","in","Female","Right-handed","2","no","left","s","609.729619125","575.741024988","2","red","2"
"96","91","18","655.170882662","1","1","3","273","2","right","2","out","Female","Right-handed","2","no","right","s","458.329671852","471.32627293","2","green","0"
"96","91","18","650.945837737","1","1","3","274","1","right","1","in","Female","Right-handed","2","no","right","s","426.909352844","367.976931708","2","red","0"
"96","91","18","653.343466989","1","1","3","275","0","right","3","out","Female","Right-handed","2","no","right","d","799.662031927","799.535670736","2","green","2"
"96","92","18","652.635267637","1","1","3","276","1","left","2","in","Female","Right-handed","2","no","left","d","489.21728544","728.236530185","2","green","0"
"96","92","18","650.497965112","1","1","3","277","3","left","2","out","Female","Right-handed","2","no","left","s","519.830047409","511.865764647","2","green","3"
"96","92","18","648.84204353","1","1","3","278","3","right","1","out","Female","Right-handed","2","no","right","d","366.447127462","719.278997167","2","green","3"
"96","92","18","646.572256432","1","1","3","279","0","left","0","out","Female","Right-handed","2","no","left","d","413.948671701","584.123518384","2","green","3"
"97","91","18","648.087999353","1","0","3","280","3","left","2","in","Female","Right-handed","2","no","left","d","696.700433542","799.553630703","2","red","0"
"97","91","18","644.826135173","1","1","3","281","3","right","1","out","Female","Right-handed","2","no","right","s","389.21491216","463.347558054","2","red","0"
"97","91","18","645.399568665","1","1","3","282","1","left","0","out","Female","Right-handed","2","no","left","d","720.911750499","647.874341816","2","green","1"
"97","91","18","644.414281069","1","1","3","283","2","left","2","in","Female","Right-handed","2","no","left","s","401.41999188","751.438881914","2","red","0"
"97","91","18","645.191644175","1","1","3","284","1","left","3","in","Female","Right-handed","2","no","left","s","912.077628104","487.136495099","2","green","0"
"97","91","18","645.727139244","1","1","3","285","1","right","1","out","Female","Right-handed","2","no","right","s","743.650029539","623.844548798","2","red","2"
"97","91","18","648.494373615","1","1","3","286","2","right","1","out","Female","Right-handed","2","no","right","s","424.2961778","1271.17431879","2","green","3"
"97","91","18","651.222872152","1","1","3","287","0","right","2","in","Female","Right-handed","2","no","right","d","492.858668538","1207.94786222","2","red","3"
"97","92","18","662.958825281","1","1","3","288","1","left","0","out","Female","Right-handed","2","no","left","s","815.405224939","2247.43348879","2","red","2"
"97","90","18","663.736751698","1","0","3","289","2","right","2","out","Female","Right-handed","2","no","right","s","516.073848816","928.088617037","2","red","0"
"97","90","18","661.636777998","1","1","3","290","3","right","2","out","Female","Right-handed","2","no","right","d","500.52244258","503.555111118","2","red","3"
"97","91","18","661.984318927","1","1","3","291","2","right","0","in","Female","Right-handed","2","no","right","s","370.209419618","1007.2805212","2","green","3"
"97","91","18","666.975528824","1","1","3","292","1","right","2","in","Female","Right-handed","2","no","right","d","768.877367429","1343.70243415","2","green","1"
"97","91","18","665.755785033","1","1","3","293","2","right","2","out","Female","Right-handed","2","no","right","s","379.398187199","759.393863978","2","green","3"
"97","90","18","666.203502664","1","0","3","294","0","left","0","in","Female","Right-handed","2","no","left","s","716.039789022","688.002037174","2","green","2"
"97","89","18","668.89636854","1","0","3","295","2","right","0","in","Female","Right-handed","2","no","right","s","926.596336296","847.44067278","2","red","1"
"97","89","18","671.867697123","1","1","3","296","1","left","2","out","Female","Right-handed","2","no","left","s","751.912576017","1079.12070572","2","red","1"
"97","89","18","670.889686926","1","1","3","297","0","right","3","in","Female","Right-handed","2","no","right","s","563.593994444","615.835686838","2","red","0"
"97","89","18","669.460370184","1","1","3","298","3","left","2","in","Female","Right-handed","2","no","left","s","651.438112203","447.357415509","2","green","0"
"97","89","18","669.848785291","1","1","3","299","0","left","2","out","Female","Right-handed","2","no","left","d","470.027703248","935.700435466","2","green","0"
"97","89","18","669.472985074","1","1","3","300","2","left","0","in","Female","Right-handed","2","no","left","d","587.618014615","686.690318231","2","red","2"
"97","89","18","669.839655334","1","1","3","301","3","left","3","out","Female","Right-handed","2","no","left","s","476.248907167","927.231028663","2","red","0"
"97","89","18","668.827216818","1","1","3","302","2","right","2","in","Female","Right-handed","2","no","right","s","639.785622148","519.679632693","2","green","1"
"97","90","18","668.06192974","1","1","3","303","2","left","2","out","Female","Right-handed","2","no","left","d","552.407822079","647.494937535","2","green","1"
"97","90","18","670.226049855","1","1","3","304","2","left","2","in","Female","Right-handed","2","no","left","d","739.045543267","990.948177159","2","red","1"
"97","90","18","669.740602106","1","1","3","305","0","left","0","out","Female","Right-handed","2","no","left","d","611.619905543","639.509808387","2","green","2"
"97","90","18","670.781861116","1","1","3","306","3","right","2","in","Female","Right-handed","2","no","right","d","502.086242476","1031.06913753","2","red","3"
"97","89","18","670.877511586","1","0","3","307","0","right","2","out","Female","Right-handed","2","no","right","d","479.759439084","879.786571462","2","green","3"
"97","89","18","674.487527394","1","1","3","308","0","right","2","out","Female","Right-handed","2","no","right","d","964.37961467","1063.27841218","2","red","1"
"97","88","18","681.038357703","1","0","3","309","3","left","1","out","Female","Right-handed","2","no","left","d","1127.7604628","1478.97401129","2","red","2"
"100","100","18","545.789574625","1","1","4","310","2","left","2","out","Female","Right-handed","2","no","left","s","523.819084132","567.760065118","2","red","1"
"100","100","18","541.14115058","1","1","4","311","3","right","2","out","Female","Right-handed","2","no","right","s","600.438543883","472.546909187","2","green","1"
"100","100","18","553.109222892","1","1","4","312","0","right","3","in","Female","Right-handed","2","no","right","d","618.141297468","535.949437564","2","red","0"
"100","100","18","570.902738446","1","1","4","313","1","left","0","out","Female","Right-handed","2","no","left","d","680.709970284","567.856599935","2","green","2"
"100","100","18","555.711237102","1","1","4","314","3","left","0","in","Female","Right-handed","2","no","left","d","485.427732625","504.462730825","2","green","3"
"100","100","18","537.995804638","1","1","4","315","2","left","2","out","Female","Right-handed","2","no","left","s","450.995270756","447.842013877","2","green","0"
"100","100","18","524.591614657","1","1","4","316","2","right","1","out","Female","Right-handed","2","no","right","s","368.585325554","519.747623992","2","red","3"
"100","100","18","550.119309497","1","1","4","317","3","right","2","in","Female","Right-handed","2","no","right","d","441.315169821","1016.31117694","2","red","0"
"100","100","18","572.530093099","1","1","4","318","1","left","2","in","Female","Right-handed","2","no","left","d","503.759726444","999.872997383","2","green","3"
"100","100","18","634.968807388","1","1","4","319","3","left","2","in","Female","Right-handed","2","no","left","s","1425.39686714","968.437604833","2","red","1"
"100","90","18","662.238713838","1","0","4","320","2","left","3","in","Female","Right-handed","2","no","left","s","878.074601849","991.800954829","2","green","1"
"100","91","18","660.347137278","1","1","4","321","2","left","0","out","Female","Right-handed","2","no","left","s","607.564481088","671.515109143","2","green","3"
"100","84","18","647.452973383","1","0","4","322","0","left","2","out","Female","Right-handed","2","no","left","s","482.211936578","503.234076726","2","green","0"
"100","78","18","664.195964854","1","0","4","323","1","right","3","in","Female","Right-handed","2","no","right","s","739.942579423","1023.76712851","2","red","2"
"100","80","18","664.231305974","1","1","4","324","2","right","0","out","Female","Right-handed","2","no","right","d","729.312203861","600.139959448","2","green","1"
"100","81","18","669.681969894","1","1","4","325","0","right","3","in","Female","Right-handed","2","no","right","d","926.932123515","575.951733874","2","green","1"
"100","82","18","684.464037074","1","1","4","326","0","left","0","in","Female","Right-handed","2","no","left","d","610.445131342","1231.50909255","2","red","1"
"100","83","18","689.276784955","1","1","4","327","1","left","2","out","Female","Right-handed","2","no","left","d","678.06472387","864.122274015","2","red","3"
"100","84","18","683.03446082","1","1","4","328","0","right","2","out","Female","Right-handed","2","no","right","d","445.654425879","695.690826884","2","green","3"
"100","80","18","699.568944781","1","0","4","329","1","left","2","in","Female","Right-handed","2","no","left","d","691.201797538","1336.24648257","2","red","1"
"100","80","18","691.157287059","1","1","4","330","1","right","1","in","Female","Right-handed","2","no","right","d","509.979968223","535.868297004","2","green","2"
"100","81","18","684.580707393","1","1","4","331","3","left","2","out","Female","Right-handed","2","no","left","s","501.513127132","591.431941672","2","red","3"
"100","82","18","674.455077482","1","1","4","332","3","left","2","in","Female","Right-handed","2","no","left","s","383.136105111","520.246333761","2","green","3"
"100","79","18","684.260938849","1","0","4","333","1","left","2","in","Female","Right-handed","2","no","left","s","603.808282496","1215.78321808","2","red","0"
"100","80","18","678.924210868","1","1","4","334","0","left","2","out","Female","Right-handed","2","no","left","s","509.291395958","592.394082705","2","green","1"
"100","76","18","677.834636475","1","0","4","335","3","left","1","in","Female","Right-handed","2","no","left","s","717.054206383","584.13634693","2","green","0"
"100","77","18","672.952737898","1","1","4","336","0","right","2","in","Female","Right-handed","2","no","right","d","508.575883743","583.47086605","2","green","0"
"100","78","18","664.232640754","1","1","4","337","0","left","2","in","Female","Right-handed","2","no","left","s","514.235197301","343.344838402","2","green","1"
"100","75","18","662.531968795","1","0","4","338","1","left","2","in","Female","Right-handed","2","no","left","s","533.875061497","695.951246389","2","red","3"
"100","76","18","658.627630894","1","1","4","339","2","right","3","in","Female","Right-handed","2","no","right","s","419.431913448","671.371750128","2","green","0"
"100","77","18","652.579811513","1","1","4","340","0","right","1","in","Female","Right-handed","2","no","right","s","558.187723978","384.102736136","2","red","2"
"100","78","18","649.365825785","1","1","4","341","1","left","2","out","Female","Right-handed","2","no","left","s","651.730282363","447.734254079","2","green","0"
"100","78","18","645.120354027","1","1","4","342","2","left","2","in","Female","Right-handed","2","no","left","s","603.117144519","415.413371067","2","green","1"
"100","79","18","645.850228184","1","1","4","343","0","left","2","out","Female","Right-handed","2","no","left","d","595.954325241","743.917825457","2","red","3"
"100","80","18","644.142467063","1","1","4","344","1","left","3","out","Female","Right-handed","2","no","left","s","540.486894677","631.670283248","2","green","1"
"100","80","18","651.269051551","1","1","4","345","2","right","3","in","Female","Right-handed","2","no","right","s","666.250914837","1135.14810237","2","green","2"
"100","78","18","652.093876326","1","0","4","346","0","left","0","out","Female","Right-handed","2","no","left","d","555.753186451","807.821950028","2","green","2"
"100","78","18","648.54572636","1","1","4","347","3","left","2","in","Female","Right-handed","2","no","left","d","563.165841684","471.362513576","2","red","1"
"100","76","18","641.044826282","1","0","4","348","0","right","2","in","Female","Right-handed","2","no","right","s","400.946618491","311.074628149","2","red","0"
"100","77","18","640.757003745","1","1","4","349","1","left","3","in","Female","Right-handed","2","no","left","d","787.514359956","471.549489648","2","red","2"
"100","75","18","643.355470452","1","0","4","350","3","right","1","out","Female","Right-handed","2","no","right","s","527.326729625","967.261547777","2","green","2"
"100","73","18","640.768850107","1","0","4","351","0","right","2","out","Female","Right-handed","2","no","right","d","469.711158847","599.723673095","2","green","3"
"100","74","18","635.748142743","1","1","4","352","0","right","0","in","Female","Right-handed","2","no","right","s","458.422037391","391.33482957","2","red","3"
"100","75","18","632.254882326","1","1","4","353","2","right","2","in","Female","Right-handed","2","no","right","d","356.990563964","607.098804829","2","green","3"
"100","73","18","647.384897108","1","0","4","354","0","right","2","out","Female","Right-handed","2","no","right","s","962.57367595","1663.63741907","2","red","1"
"100","73","18","647.968335325","1","1","4","355","0","left","1","in","Female","Right-handed","2","no","left","s","613.320008748","735.12610141","2","red","0"
"100","74","18","646.932784459","1","1","4","356","2","right","1","out","Female","Right-handed","2","no","right","s","430.829115414","767.765773823","2","green","0"
"100","75","18","649.649715853","1","1","4","357","0","right","1","in","Female","Right-handed","2","no","right","s","555.3955907","999.29539205","2","green","2"
"100","75","18","649.555054934","1","1","4","358","1","right","0","in","Female","Right-handed","2","no","right","d","571.029741062","718.992920567","2","red","3"
"100","76","18","650.168114903","1","1","4","359","1","left","2","out","Female","Right-handed","2","no","left","d","560.723607028","799.692499726","2","red","1"
"100","76","18","648.709445645","1","1","4","360","1","left","2","in","Female","Right-handed","2","no","left","s","488.2291666","663.322798957","2","red","1"
"100","76","18","650.443813455","1","1","4","361","3","right","0","in","Female","Right-handed","2","no","right","d","757.895168961","719.897974564","2","red","2"
"100","77","18","653.235927184","1","1","4","362","0","right","3","in","Female","Right-handed","2","no","right","s","829.368136327","767.483545784","2","red","2"
"100","77","18","656.529661585","1","1","4","363","2","left","2","in","Female","Right-handed","2","no","left","s","663.119787199","999.075382467","2","red","1"
"100","76","18","657.577499148","1","0","4","364","1","left","1","in","Female","Right-handed","2","no","left","s","524.642035428","903.67941974","2","green","2"
"100","76","18","658.89229413","1","1","4","365","0","right","3","out","Female","Right-handed","2","no","right","s","663.28559617","799.126440086","2","green","2"
"100","77","18","658.69822307","1","1","4","366","3","left","0","in","Female","Right-handed","2","no","left","s","663.833375133","631.827112237","2","green","2"
"100","77","18","668.961545368","1","1","4","367","1","right","2","out","Female","Right-handed","2","no","right","d","476.469237465","2031.47259534","2","green","3"
"100","77","18","668.138328419","1","1","4","368","2","left","3","out","Female","Right-handed","2","no","left","s","506.090994168","734.692496519","2","red","2"
"100","78","18","667.735797783","1","1","4","369","1","right","2","in","Female","Right-handed","2","no","right","d","600.413207504","687.559773012","2","green","0"
"100","78","18","668.457064793","1","1","4","370","3","left","2","out","Female","Right-handed","2","no","left","s","480.209400375","943.256770426","2","red","0"
"100","79","18","666.236653423","1","1","4","371","3","left","2","out","Female","Right-handed","2","no","left","s","526.806852753","534.776266932","2","red","0"
"100","79","18","665.374994875","1","1","4","372","0","right","2","out","Female","Right-handed","2","no","right","d","544.386131571","679.518198256","2","red","1"
"100","79","18","667.987361416","1","1","4","373","3","left","3","out","Female","Right-handed","2","no","left","s","770.011090279","895.121816677","2","green","2"
"100","78","18","667.751659952","1","0","4","374","2","right","1","in","Female","Right-handed","2","no","right","s","601.566814601","703.766718003","2","green","2"
"100","78","18","666.048457038","1","1","4","375","3","right","3","out","Female","Right-handed","2","no","right","s","407.385266284","703.295268895","2","red","0"
"100","79","18","663.069162307","1","1","4","376","1","left","2","out","Female","Right-handed","2","no","left","s","477.878453365","454.992966748","2","green","1"
"100","79","18","665.795885798","1","1","4","377","3","left","3","out","Female","Right-handed","2","no","left","d","625.490130678","1071.48258878","2","green","2"
"100","79","18","664.800938087","1","1","4","378","2","right","2","in","Female","Right-handed","2","no","right","d","451.161721154","743.127266243","2","red","3"
"100","80","18","661.034960448","1","1","4","379","1","right","1","out","Female","Right-handed","2","no","right","s","339.621994032","462.743012773","2","red","3"
"100","80","18","666.263217141","1","1","4","380","2","right","2","in","Female","Right-handed","2","no","right","d","1185.31445655","879.167914778","2","red","1"
"100","80","18","667.188619268","1","1","4","381","2","left","2","out","Female","Right-handed","2","no","left","s","498.900914226","966.883426352","2","red","3"
"100","80","18","666.804497397","1","1","4","382","0","right","2","in","Female","Right-handed","2","no","right","d","526.652268759","751.643176529","2","green","3"
"100","81","18","667.458018276","1","1","4","383","3","left","1","in","Female","Right-handed","2","no","left","d","767.181433501","663.14865143","2","red","2"
"100","81","18","667.368897059","1","1","4","384","3","right","1","out","Female","Right-handed","2","no","right","d","466.843337141","854.704516867","2","red","3"
"100","81","18","663.651216094","1","1","4","385","0","right","1","out","Female","Right-handed","2","no","right","s","482.291152855","287.359134534","2","green","3"
"100","81","18","663.369306606","1","1","4","386","0","right","0","out","Female","Right-handed","2","no","right","d","700.973301869","582.915069246","2","red","2"
"100","82","18","660.751010367","1","1","4","387","1","right","3","out","Female","Right-handed","2","no","right","s","375.711583472","542.572816437","2","red","0"
"100","82","18","657.909182525","1","1","4","388","1","left","2","out","Female","Right-handed","2","no","left","s","489.19804262","383.295179096","2","red","0"
"100","82","18","655.602258594","1","1","4","389","1","left","1","out","Female","Right-handed","2","no","left","d","459.981026579","486.729509443","2","green","0"
"100","82","18","656.292951134","1","1","4","390","2","right","2","in","Female","Right-handed","2","no","right","s","368.659731126","1054.43697752","2","green","0"
"100","82","18","655.016699952","1","1","4","391","2","right","1","out","Female","Right-handed","2","no","right","s","704.186852922","399.093855574","2","red","2"
"100","83","18","653.285645167","1","1","4","392","2","right","2","out","Female","Right-handed","2","no","right","s","503.801739937","518.876565644","2","red","0"
"100","83","18","654.185013398","1","1","4","393","3","right","2","in","Female","Right-handed","2","no","right","d","490.378268954","967.286884157","2","red","3"
"100","83","18","652.241222642","1","1","4","394","3","left","2","in","Female","Right-handed","2","no","left","s","634.938997051","342.986601225","2","green","1"
"100","83","18","651.92038726","1","1","4","395","3","left","0","out","Female","Right-handed","2","no","left","d","658.587461506","590.711298037","2","red","1"
"100","83","18","649.849243191","1","1","4","396","3","right","2","out","Female","Right-handed","2","no","right","s","376.255193156","567.206513311","2","green","0"
"100","84","18","649.628592788","1","1","4","397","2","left","0","in","Female","Right-handed","2","no","left","s","670.052013344","590.812002133","2","green","2"
"100","84","18","647.593394832","1","1","4","398","2","right","2","out","Female","Right-handed","2","no","right","s","450.473790315","486.51815913","2","red","3"
"100","84","18","659.120241758","1","1","4","399","2","right","0","out","Female","Right-handed","2","no","right","d","547.063770067","2822.95546634","2","red","2"
"100","84","18","659.449175104","1","1","4","400","0","left","2","in","Female","Right-handed","2","no","left","d","475.678357536","902.427994968","2","red","0"
"100","84","18","658.283339532","1","1","4","401","2","left","2","in","Female","Right-handed","2","no","left","d","449.254757626","655.129847346","2","green","0"
"100","84","18","658.336640995","1","1","4","402","1","right","0","in","Female","Right-handed","2","no","right","s","791.650604257","534.830146828","2","green","1"
"100","84","18","656.001999193","1","0","4","403","3","left","2","out","Female","Right-handed","2","no","left","s","526.503778326","351.256844833","2","red","3"
"100","84","18","656.622239495","1","1","4","404","3","right","3","out","Female","Right-handed","2","no","right","d","518.958347631","910.891308211","2","green","1"
"100","84","18","653.997778176","1","1","4","405","1","right","0","out","Female","Right-handed","2","no","right","s","450.694762039","358.653143669","2","green","2"
"100","100","18","485.630744383","1","1","5","406","1","right","2","in","Female","Right-handed","2","no","right","s","547.669918917","423.591569848","2","green","1"
"100","50","18","619.393443842","1","0","5","407","3","right","1","in","Female","Right-handed","2","no","right","d","563.163596687","943.148689917","2","red","3"
"100","66","18","613.998318177","1","1","5","408","3","right","2","in","Female","Right-handed","2","no","right","d","390.718097167","815.698036528","2","green","3"
"75","50","18","675.593063733","0","0","5","409","3","right","2","out","Female","Right-handed","2","no","left","s","750.354869684","970.399731114","2","green","1"
"80","40","18","678.06757822","1","0","5","410","3","left","2","in","Female","Right-handed","2","no","left","s","727.912930086","648.018342255","2","red","1"
"66","33","18","704.728859035","0","0","5","411","0","left","3","out","Female","Right-handed","2","no","right","s","561.58440254","1114.48612368","2","green","2"
"71","42","18","695.501353824","1","1","5","412","2","left","0","out","Female","Right-handed","2","no","left","s","601.10626976","679.166375352","2","green","2"
"75","50","18","669.400603775","1","1","5","413","2","left","1","out","Female","Right-handed","2","no","left","s","581.673907312","391.716799559","2","red","2"
"77","55","18","671.672900272","1","1","5","414","1","left","2","out","Female","Right-handed","2","no","left","s","844.371442885","535.331101595","2","red","0"
"80","50","18","672.788711263","1","0","5","415","2","right","1","in","Female","Right-handed","2","no","right","s","453.850263915","911.811756467","2","red","3"
"81","54","18","661.521729256","1","1","5","416","0","right","2","out","Female","Right-handed","2","no","right","d","434.349910168","663.353908185","2","green","3"
"83","58","18","663.833682484","1","1","5","417","0","left","2","out","Female","Right-handed","2","no","left","s","699.19975523","679.330580755","2","green","0"
"84","61","18","668.675596585","1","1","5","418","2","left","3","out","Female","Right-handed","2","no","left","d","829.742409187","623.814722425","2","red","0"
"85","64","18","687.466204796","1","1","5","419","1","right","3","out","Female","Right-handed","2","no","right","d","1088.31203901","775.176184059","2","red","2"
"86","66","18","691.291864627","1","1","5","420","3","right","0","in","Female","Right-handed","2","no","right","s","561.831352072","927.870852451","2","green","1"
"87","62","18","685.928092065","1","0","5","421","3","left","2","in","Female","Right-handed","2","no","left","s","667.495283905","543.447723349","2","red","3"
"88","64","18","669.908512839","1","1","5","422","2","right","1","out","Female","Right-handed","2","no","right","d","372.183412304","455.007078151","2","red","0"
"88","66","18","663.680608518","1","1","5","423","0","left","2","in","Female","Right-handed","2","no","left","s","499.74888119","615.863588928","2","green","1"
"89","68","18","658.635323803","1","1","5","424","0","right","0","in","Female","Right-handed","2","no","right","s","584.305363038","551.335034826","2","red","2"
"90","70","18","671.931828459","1","1","5","425","1","left","2","out","Female","Right-handed","2","no","left","s","482.117326042","1367.01350782","2","red","1"
"90","71","18","664.771500821","1","1","5","426","1","left","2","in","Female","Right-handed","2","no","left","s","563.476613239","479.653282858","2","red","3"
"90","68","18","667.33559765","1","0","5","427","2","left","2","out","Female","Right-handed","2","no","left","d","491.147340354","951.215921767","2","red","3"
"91","69","18","662.053909236","1","1","5","428","2","right","2","out","Female","Right-handed","2","no","right","d","531.877977426","559.835550854","2","green","0"
"91","70","18","660.712597195","1","1","5","429","3","right","3","out","Female","Right-handed","2","no","right","s","724.404963879","535.319876615","2","red","2"
"92","68","18","658.589142046","1","0","5","430","3","right","2","in","Female","Right-handed","2","no","right","s","576.157311342","639.095125602","2","green","1"
"92","69","18","655.226992753","1","1","5","431","3","right","0","in","Female","Right-handed","2","no","right","s","582.699228938","559.647291926","2","red","2"
"92","70","18","666.41171711","1","1","5","432","1","right","0","in","Female","Right-handed","2","no","right","s","627.221663825","1287.20743697","2","green","2"
"92","67","18","667.086757677","1","0","5","433","2","left","2","in","Female","Right-handed","2","no","left","s","619.829213552","750.796492419","2","red","0"
"93","68","18","664.664100972","1","1","5","434","3","left","2","out","Female","Right-handed","2","no","left","d","450.221709367","743.437717083","2","green","0"
"93","66","18","663.263354678","1","0","5","435","3","right","1","in","Female","Right-handed","2","no","right","s","518.11230495","727.171119348","2","red","2"
"93","67","18","659.957348598","1","1","5","436","0","right","2","out","Female","Right-handed","2","no","right","d","497.698558649","623.855773776","2","green","3"
"93","68","18","653.512147512","1","1","5","437","0","right","1","out","Female","Right-handed","2","no","right","d","436.194975957","471.226851689","2","red","3"
"93","69","18","648.72320289","1","1","5","438","1","left","2","out","Female","Right-handed","2","no","left","s","471.971869563","518.982080444","2","red","3"
"94","70","18","646.465786208","1","1","5","439","3","right","2","out","Female","Right-handed","2","no","right","d","360.48024949","783.461821924","2","red","3"
"94","71","18","648.796879291","1","1","5","440","3","right","3","in","Female","Right-handed","2","no","right","s","849.022753351","607.085334854","2","red","1"
"94","72","18","643.26715175","1","1","5","441","0","left","2","out","Female","Right-handed","2","no","left","d","460.704877349","438.748498258","2","red","3"
"94","72","18","643.376449502","1","1","5","442","3","left","1","out","Female","Right-handed","2","no","left","s","615.304264273","679.31807292","2","green","2"
"94","73","18","640.011370819","1","1","5","443","0","left","2","in","Female","Right-handed","2","no","left","s","480.003181481","551.003737597","2","green","3"
"94","74","18","636.63994727","1","1","5","444","3","left","2","out","Female","Right-handed","2","no","left","d","369.373319059","647.678385758","2","red","0"
"95","75","18","634.541492492","1","1","5","445","2","left","2","out","Female","Right-handed","2","no","left","d","634.191734182","471.211778146","2","green","0"
"95","75","18","638.181916871","1","1","5","446","3","right","3","in","Female","Right-handed","2","no","right","d","1040.86629896","526.731485039","2","red","2"
"95","76","18","638.758784768","1","1","5","447","1","left","3","in","Female","Right-handed","2","no","left","s","669.304429761","655.516307328","2","red","0"
"95","76","18","636.197078495","1","1","5","448","1","left","1","out","Female","Right-handed","2","no","left","s","650.074116931","407.136713184","2","green","2"
"95","77","18","632.640853949","1","1","5","449","2","right","2","in","Female","Right-handed","2","no","right","d","568.647159151","390.799237728","2","green","1"
"95","77","18","631.544542105","1","1","5","450","3","right","2","out","Female","Right-handed","2","no","right","d","535.314745197","631.29889681","2","red","0"
"95","78","18","634.597740268","1","1","5","451","0","left","1","in","Female","Right-handed","2","no","left","d","472.997191189","1070.986124","2","green","0"
"95","78","18","635.128784488","1","1","5","452","0","right","2","in","Female","Right-handed","2","no","right","d","624.516443953","694.597193242","2","red","1"
"95","77","18","635.232764099","1","0","5","453","3","right","3","in","Female","Right-handed","2","no","right","d","617.085508038","663.154103564","2","green","0"
"95","77","18","635.20087286","1","1","5","454","0","right","0","in","Female","Right-handed","2","no","right","d","548.567275788","718.772910983","2","green","2"
"96","78","18","642.316168523","1","1","5","455","2","left","1","out","Female","Right-handed","2","no","left","d","518.455789297","1463.47552281","2","green","2"
"96","78","18","646.269915046","1","1","5","456","2","left","0","out","Female","Right-handed","2","no","left","d","792.922233988","894.99224835","2","green","1"
"96","78","18","645.180420933","1","1","5","457","3","left","2","in","Female","Right-handed","2","no","left","d","572.519456095","606.712986275","2","red","1"
"96","79","18","645.208521316","1","1","5","458","0","left","3","in","Female","Right-handed","2","no","left","s","470.071961736","823.267520747","2","red","0"
"96","79","18","645.394108528","1","1","5","459","1","left","0","in","Female","Right-handed","2","no","left","d","751.739390631","558.721070823","2","green","3"
"96","78","18","645.01279735","1","0","5","460","0","right","0","out","Female","Right-handed","2","no","right","s","746.431579266","502.412408283","2","green","1"
"96","78","18","643.288459801","1","1","5","461","2","right","2","out","Female","Right-handed","2","no","right","s","521.900895626","574.998893537","2","green","1"
"96","78","18","640.567432071","1","1","5","462","1","left","3","out","Female","Right-handed","2","no","left","s","673.744389915","302.635368432","2","red","2"
"96","79","18","637.234239781","1","1","5","463","3","right","0","out","Female","Right-handed","2","no","right","s","455.222277029","439.262281571","2","red","2"
"96","79","18","633.086011266","1","1","5","464","0","left","3","in","Female","Right-handed","2","no","left","s","497.989445954","286.98806881","2","green","2"
"96","78","18","629.510327408","1","0","5","465","0","right","0","out","Female","Right-handed","2","no","right","s","342.574484148","494.515475398","2","red","3"
"96","77","18","628.488493366","1","0","5","466","2","left","3","in","Female","Right-handed","2","no","left","s","575.137121132","559.219780593","2","red","2"
"96","77","18","627.468533177","1","1","5","467","0","right","2","out","Female","Right-handed","2","no","right","s","563.767500544","566.734422777","2","green","1"
"96","77","18","628.133882973","1","1","5","468","1","left","1","out","Female","Right-handed","2","no","left","d","572.320934329","766.450206317","2","red","2"
"96","78","18","625.843582207","1","1","5","469","0","right","2","out","Female","Right-handed","2","no","right","d","492.020322985","471.088944807","2","green","0"
"96","78","18","625.648215384","1","1","5","470","0","left","1","in","Female","Right-handed","2","no","left","d","563.731259897","662.558217551","2","green","2"
"96","78","18","627.414288832","1","1","5","471","3","left","2","in","Female","Right-handed","2","no","left","s","525.286028493","959.132097474","2","green","3"
"97","79","18","626.816104625","1","1","5","472","1","right","2","in","Female","Right-handed","2","no","right","s","511.82663758","662.845256293","2","red","3"
"97","79","18","628.465153289","1","1","5","473","2","left","2","in","Female","Right-handed","2","no","left","s","679.539044644","798.363782959","2","red","1"
"97","79","18","626.429257019","1","1","5","474","2","right","2","in","Female","Right-handed","2","no","right","s","489.058211457","486.918409799","2","green","0"
"97","80","18","626.940281097","1","1","5","475","1","left","1","in","Female","Right-handed","2","no","left","s","509.771825047","814.63005998","2","green","0"
"97","78","18","627.720662687","1","0","5","476","2","left","2","in","Female","Right-handed","2","no","left","s","574.287871314","790.406876613","2","green","3"
"97","79","18","625.028855322","1","1","5","477","2","left","2","in","Female","Right-handed","2","no","left","s","460.899871266","406.921193595","2","green","3"
"97","79","18","625.975377062","1","1","5","478","1","left","3","in","Female","Right-handed","2","no","left","d","629.619639993","758.63024471","2","red","1"
"97","79","18","627.679803313","1","1","5","479","2","right","0","in","Female","Right-handed","2","no","right","s","578.149905421","926.055933747","2","red","3"
"97","80","18","627.494392321","1","1","5","480","0","right","2","in","Female","Right-handed","2","no","right","s","484.819018064","742.728939855","2","green","0"
"97","80","18","632.339825799","1","1","5","481","0","right","1","out","Female","Right-handed","2","no","right","s","537.254742234","1454.23993103","2","red","2"
"97","79","18","632.963638208","1","0","5","482","0","right","3","out","Female","Right-handed","2","no","right","d","697.783483631","662.963278925","2","red","1"
"97","79","18","631.97170682","1","1","5","483","1","right","0","in","Female","Right-handed","2","no","right","s","560.658822866","550.527157071","2","green","2"
"97","79","18","632.06843101","1","1","5","484","3","left","1","out","Female","Right-handed","2","no","left","s","617.053115959","662.172719709","2","green","0"
"97","78","18","630.803570569","1","0","5","485","3","right","2","out","Female","Right-handed","2","no","right","s","446.828879368","614.930312126","2","red","0"
"97","79","18","629.514150929","1","1","5","486","2","right","0","out","Female","Right-handed","2","no","right","d","518.371120888","534.350038455","2","green","2"
"97","79","18","631.606504249","1","1","5","487","0","right","2","out","Female","Right-handed","2","no","right","d","500.166129685","1102.00811662","2","green","0"
"97","79","18","631.659753793","1","1","5","488","1","right","2","out","Female","Right-handed","2","no","right","s","521.603594047","750.448838791","2","green","0"
"97","78","18","635.154402102","1","0","5","489","1","left","2","in","Female","Right-handed","2","no","left","s","652.175753661","1198.2446699","2","red","3"
"97","77","18","636.655367987","1","0","5","490","1","left","2","out","Female","Right-handed","2","no","left","d","502.817790371","1022.65521419","2","green","0"
"97","76","18","636.737809214","1","0","5","491","1","right","1","out","Female","Right-handed","2","no","right","s","521.327138857","766.163488288","2","red","3"
"97","77","18","639.205425302","1","1","5","492","1","right","0","in","Female","Right-handed","2","no","right","s","535.861241304","1166.97957631","2","red","1"
"97","77","18","639.60245455","1","1","5","493","2","right","2","in","Female","Right-handed","2","no","right","d","389.563527928","958.724470389","2","green","3"
"97","76","18","645.687415066","1","0","5","494","3","left","0","in","Female","Right-handed","2","no","left","d","460.136893427","1902.19098756","2","red","3"
"97","76","18","644.593089889","1","1","5","495","1","left","2","out","Female","Right-handed","2","no","left","s","599.646701812","494.749596381","2","red","1"
"97","75","18","650.007787351","1","0","5","496","2","left","3","in","Female","Right-handed","2","no","left","s","556.335281775","1718.32583612","2","green","1"
"97","76","18","649.603799038","1","1","5","497","0","left","2","out","Female","Right-handed","2","no","left","s","482.864588912","742.817136115","2","red","1"
"97","75","18","647.294419067","1","0","5","498","1","right","2","in","Female","Right-handed","2","no","right","d","407.365702751","462.29722076","2","red","0"
"97","74","18","647.749145772","1","0","5","499","2","left","3","out","Female","Right-handed","2","no","left","s","582.069026563","798.008432204","2","green","2"
"97","74","18","647.038241257","1","1","5","500","1","left","2","in","Female","Right-handed","2","no","left","s","521.612574028","638.813859705","2","green","1"
"97","75","18","651.915061882","1","1","5","501","2","right","2","out","Female","Right-handed","2","no","right","d","576.328893159","1654.0971493","2","green","1"
dis_reply=No
dis_loc=1
