"acc_1","acc_2","age","avg_rt","correct_1","correct_2","count_block_loop","count_trial_sequence","cue_position","detection","dis_position","dis_shape","gender","hand","high_loc","practice","response_keyboard_response_1","response_keyboard_response_2","response_time_keyboard_response_1","response_time_keyboard_response_2","subject_nr","tar_color","tar_position"
"100","100","20","1379.6768608","1","1","0","0","2","right","2","out","Female","Right-handed","1","yes","right","s","1615.94233808","1143.41138351","29","red","3"
"100","50","20","1460.27845404","1","0","0","1","2","left","1","in","Female","Right-handed","1","yes","left","d","1336.30742675","1745.45266782","29","green","3"
"100","33","20","1467.30822416","1","0","0","2","2","right","2","out","Female","Right-handed","1","yes","right","s","1648.8652957","1313.8702331","29","green","1"
"100","50","20","1392.10399043","1","1","0","3","1","right","3","in","Female","Right-handed","1","yes","right","s","979.478755384","1353.50382308","29","green","0"
"100","40","20","1351.27662052","1","0","0","4","2","left","3","in","Female","Right-handed","1","yes","left","s","1261.95487738","1113.97940435","29","red","1"
"100","50","20","1323.82117873","1","1","0","5","1","left","0","out","Female","Right-handed","1","yes","left","d","1011.60986864","1361.47807098","29","red","1"
"100","42","20","1321.78798941","1","0","0","6","3","right","1","out","Female","Right-handed","1","yes","right","d","1481.05843516","1138.11927184","29","red","2"
"100","50","20","1317.20129524","1","1","0","7","3","left","0","out","Female","Right-handed","1","yes","left","s","1432.66324293","1137.52562911","29","green","2"
"100","55","20","1326.29190168","1","1","0","8","1","left","2","out","Female","Right-handed","1","yes","left","d","1317.05717411","1480.97633222","29","green","3"
"100","60","20","1323.82806875","1","1","0","9","0","right","3","out","Female","Right-handed","1","yes","right","d","1545.70167064","1057.60547421","29","green","2"
"100","63","20","1306.76483022","1","1","0","10","3","left","2","out","Female","Right-handed","1","yes","left","d","1263.07000206","1009.19488768","29","red","1"
"100","66","20","1311.3488417","1","1","0","11","1","right","3","in","Female","Right-handed","1","yes","right","s","1809.83323803","913.712698082","29","green","1"
"100","69","20","1318.98090665","1","1","0","12","0","right","3","out","Female","Right-handed","1","yes","right","s","1387.80873992","1433.32263216","29","red","2"
"100","71","20","1291.82336057","1","1","0","13","1","right","0","out","Female","Right-handed","1","yes","right","s","859.894221911","1017.65630106","29","red","3"
"100","73","20","1305.25457737","1","1","0","14","3","left","0","in","Female","Right-handed","1","yes","left","d","1809.16839666","1177.41482862","29","red","1"
"100","75","20","1280.20343809","1","1","0","15","1","left","1","in","Female","Right-handed","1","yes","left","s","846.956915524","961.915782271","29","green","0"
"100","76","20","1267.09340449","1","1","0","16","2","left","0","out","Female","Right-handed","1","yes","left","s","1337.29683131","777.368902294","29","red","3"
"100","77","20","1266.7750397","1","1","0","17","0","left","2","out","Female","Right-handed","1","yes","left","d","1616.99716841","905.728508034","29","green","1"
"100","78","20","1264.39191169","1","1","0","18","3","right","3","out","Female","Right-handed","1","yes","right","s","1297.58691125","1145.40430405","29","red","2"
"100","80","20","1276.26951669","1","1","0","19","3","right","2","in","Female","Right-handed","1","yes","right","d","1931.07779029","1072.81023285","29","green","1"
"100","80","20","1257.73588441","1","1","0","20","0","left","0","out","Female","Right-handed","1","yes","left","d","900.516254296","873.610223356","29","red","3"
"100","81","20","1248.02899738","1","1","0","21","0","left","1","in","Female","Right-handed","1","yes","left","s","927.155771402","1161.21296829","29","red","0"
"100","100","20","948.615908022","1","1","1","22","3","left","1","in","Female","Right-handed","1","no","left","d","775.151802241","1122.0800138","29","red","3"
"100","100","20","911.110259436","1","1","1","23","2","right","1","in","Female","Right-handed","1","no","right","s","785.646546206","961.562675493","29","green","0"
"100","100","20","889.299849019","1","1","1","24","0","right","0","out","Female","Right-handed","1","no","right","d","786.16706601","905.190990357","29","green","3"
"100","100","20","863.549927406","1","1","1","25","1","right","0","in","Female","Right-handed","1","no","right","d","722.678723825","849.921601315","29","green","3"
"100","80","20","900.120075548","1","0","1","26","3","left","1","in","Female","Right-handed","1","no","left","d","731.480415405","1361.32092082","29","red","0"
"100","66","20","887.242571742","1","0","1","27","3","right","1","out","Female","Right-handed","1","no","right","d","772.825979933","872.884125492","29","green","0"
"100","71","20","917.92782721","1","1","1","28","1","right","1","out","Female","Right-handed","1","no","right","d","1306.55665728","897.522062758","29","green","2"
"100","75","20","937.017184209","1","1","1","29","1","right","2","out","Female","Right-handed","1","no","right","d","1372.14022797","769.145138431","29","green","1"
"100","77","20","954.532415391","1","1","1","30","2","left","3","out","Female","Right-handed","1","no","left","s","1563.69343918","625.615090521","29","green","1"
"100","80","20","975.458501615","1","1","1","31","3","left","0","out","Female","Right-handed","1","no","left","s","1062.30682959","1265.27972567","29","green","1"
"100","72","20","963.804470569","1","0","1","32","1","right","1","in","Female","Right-handed","1","no","right","s","700.661024872","993.86729535","29","red","0"
"100","75","20","949.981764702","1","1","1","33","2","left","1","in","Female","Right-handed","1","no","left","s","706.482315636","889.381684694","29","green","0"
"100","69","20","947.745414577","1","0","1","34","1","left","0","out","Female","Right-handed","1","no","left","s","928.908476712","912.909949431","29","green","1"
"100","71","20","943.337002919","1","1","1","35","1","right","2","in","Female","Right-handed","1","no","right","d","922.47590391","849.579398833","29","red","0"
"100","73","20","946.749701816","1","1","1","36","1","left","3","in","Female","Right-handed","1","no","left","s","1396.1623932","592.892579527","29","red","2"
"100","75","20","937.958331235","1","1","1","37","3","right","1","in","Female","Right-handed","1","no","right","d","706.65806724","905.517477826","29","red","0"
"100","76","20","930.623648978","1","1","1","38","1","left","2","in","Female","Right-handed","1","no","left","s","937.24352854","689.293937179","29","red","1"
"100","77","20","934.607120869","1","1","1","39","0","left","1","in","Female","Right-handed","1","no","left","s","1266.83038078","737.821905255","29","red","2"
"100","78","20","937.516059995","1","1","1","40","1","right","1","out","Female","Right-handed","1","no","right","s","706.378724819","1273.37520369","29","red","0"
"100","80","20","946.908423473","1","1","1","41","2","right","1","in","Female","Right-handed","1","no","right","d","1505.68546813","745.041190978","29","red","3"
"100","80","20","946.320637601","1","1","1","42","0","left","3","out","Female","Right-handed","1","no","left","s","691.554654419","1177.57518593","29","red","0"
"100","81","20","948.537085119","1","1","1","43","0","right","1","in","Female","Right-handed","1","no","right","d","1029.02114375","961.14382222","29","red","3"
"100","82","20","948.889003479","1","1","1","44","2","left","2","out","Female","Right-handed","1","no","left","s","1095.63292546","817.62948932","29","green","3"
"100","83","20","946.958802392","1","1","1","45","2","right","1","out","Female","Right-handed","1","no","right","s","1363.89529695","441.233057849","29","green","2"
"100","84","20","935.633675931","1","1","1","46","1","left","3","out","Female","Right-handed","1","no","left","s","638.877922229","688.783359528","29","green","0"
"100","80","20","939.408925699","1","0","1","47","2","left","0","in","Female","Right-handed","1","no","left","s","1378.24086116","689.339478653","29","green","1"
"100","77","20","946.686346427","1","0","1","48","3","left","3","out","Female","Right-handed","1","no","left","d","1110.87745271","1160.921118","29","red","1"
"100","75","20","940.73301224","1","0","1","49","2","left","2","out","Female","Right-handed","1","no","left","s","839.407935186","720.578043172","29","red","0"
"100","75","20","941.314773719","1","1","1","50","2","right","1","out","Female","Right-handed","1","no","right","s","1290.02317804","625.185012235","29","green","3"
"100","76","20","956.537628215","1","1","1","51","2","right","0","out","Female","Right-handed","1","no","right","d","1474.41258715","1321.58823003","29","red","2"
"100","77","20","957.121311033","1","1","1","52","1","left","1","in","Female","Right-handed","1","no","left","s","1059.96144369","889.302147472","29","green","0"
"100","78","20","950.144138163","1","1","1","53","1","right","1","out","Female","Right-handed","1","no","right","s","834.84576995","632.857788409","29","red","0"
"100","78","20","953.370361098","1","1","1","54","1","right","3","out","Female","Right-handed","1","no","right","s","1328.12054507","785.098444951","29","red","1"
"100","79","20","950.827772881","1","1","1","55","1","right","1","in","Female","Right-handed","1","no","right","d","996.83775401","737.006969448","29","red","3"
"100","80","20","946.38554871","1","1","1","56","0","left","2","in","Female","Right-handed","1","no","left","d","677.416271843","913.283581947","29","red","0"
"100","80","20","950.029190374","1","1","1","57","1","left","1","out","Female","Right-handed","1","no","left","d","1194.07146227","961.041834977","29","green","3"
"100","81","20","944.162690405","1","1","1","58","2","left","3","in","Female","Right-handed","1","no","left","s","721.393941123","744.543441917","29","green","0"
"100","78","20","948.043947286","1","0","1","59","3","right","1","in","Female","Right-handed","1","no","right","s","878.166295013","1305.13460873","29","red","3"
"100","76","20","945.351534989","1","0","1","60","2","right","1","in","Female","Right-handed","1","no","right","d","749.459996783","936.619738637","29","red","3"
"100","77","20","952.48406289","1","1","1","61","3","right","3","out","Female","Right-handed","1","no","right","d","1596.12730702","865.177995001","29","green","2"
"100","75","20","946.946975715","1","0","1","62","2","right","1","out","Female","Right-handed","1","no","right","d","729.965359613","720.961617841","29","green","0"
"100","76","20","959.001704476","1","1","1","63","3","left","1","out","Female","Right-handed","1","no","left","d","1785.38901238","1121.10215498","29","green","2"
"100","76","20","964.195928847","1","1","1","64","1","left","0","in","Female","Right-handed","1","no","left","s","1387.82958637","976.877118519","29","green","1"
"100","77","20","964.677182383","1","1","1","65","2","left","1","out","Female","Right-handed","1","no","left","d","1049.42276182","921.319407051","29","green","2"
"100","77","20","970.46118368","1","1","1","66","0","left","1","out","Female","Right-handed","1","no","left","d","1496.97870808","952.935773374","29","green","2"
"100","76","20","969.431091058","1","0","1","67","3","left","1","in","Female","Right-handed","1","no","left","d","821.592238965","1024.56160719","29","green","3"
"100","76","20","969.423158415","1","1","1","68","2","left","0","in","Female","Right-handed","1","no","left","d","1177.04344111","761.073072579","29","red","3"
"100","77","20","969.095372879","1","1","1","69","0","left","0","out","Female","Right-handed","1","no","left","s","986.580980279","920.797925104","29","red","2"
"100","77","20","966.535584499","1","1","1","70","0","left","3","out","Female","Right-handed","1","no","left","s","958.185871434","729.145613092","29","red","1"
"100","78","20","966.556484096","1","1","1","71","1","left","1","in","Female","Right-handed","1","no","left","d","1230.56461485","704.596513766","29","green","2"
"100","78","20","965.896400744","1","1","1","72","0","left","1","out","Female","Right-handed","1","no","left","d","825.407139171","1040.37732715","29","red","3"
"100","78","20","970.455551781","1","1","1","73","3","left","2","out","Female","Right-handed","1","no","left","d","1604.97421936","800.970289962","29","green","1"
"100","79","20","970.258839861","1","1","1","74","3","left","2","in","Female","Right-handed","1","no","left","d","775.444935389","1144.6147047","29","red","3"
"100","79","20","966.951699395","1","1","1","75","3","right","1","in","Female","Right-handed","1","no","right","d","686.12046618","897.22604318","29","green","0"
"100","80","20","961.936450868","1","1","1","76","1","right","1","out","Female","Right-handed","1","no","right","s","957.656692335","424.569368482","29","red","3"
"100","80","20","969.657159869","1","1","1","77","2","right","2","in","Female","Right-handed","1","no","right","d","1819.30650599","969.285803858","29","green","1"
"100","80","20","971.55344178","1","1","1","78","1","right","1","in","Female","Right-handed","1","no","right","d","1514.84507721","640.645380409","29","green","2"
"100","79","20","972.059216567","1","0","1","79","2","right","1","out","Female","Right-handed","1","no","right","s","1177.39686861","824.379890295","29","red","2"
"100","79","20","972.294082376","1","1","1","80","2","right","3","in","Female","Right-handed","1","no","right","s","1074.92791138","896.904687146","29","red","1"
"100","80","20","968.979353035","1","1","1","81","2","left","2","out","Female","Right-handed","1","no","left","s","938.331713191","608.488930695","29","green","1"
"100","78","20","964.499369735","1","0","1","82","2","right","1","in","Female","Right-handed","1","no","right","s","623.150719504","768.250023972","29","green","0"
"100","79","20","961.905338354","1","1","1","83","3","left","3","out","Female","Right-handed","1","no","left","s","934.579673045","672.759175082","29","red","1"
"100","79","20","961.347600714","1","1","1","84","0","left","1","out","Female","Right-handed","1","no","left","d","837.308537393","1016.22719679","29","red","0"
"100","79","20","958.137964687","1","1","1","85","3","right","2","in","Female","Right-handed","1","no","right","d","598.855626155","913.006163817","29","green","0"
"100","80","20","962.325147323","1","1","1","86","3","right","1","out","Female","Right-handed","1","no","right","d","1700.3871346","760.22253745","29","red","2"
"100","80","20","958.917513769","1","1","1","87","0","left","1","in","Female","Right-handed","1","no","left","d","601.984197107","872.858468323","29","green","0"
"100","79","20","959.874440999","1","0","1","88","3","right","2","out","Female","Right-handed","1","no","right","s","1149.4462702","896.61700615","29","green","1"
"100","77","20","957.376248639","1","0","1","89","0","left","1","out","Female","Right-handed","1","no","left","d","730.87971695","849.115004086","29","red","0"
"100","78","20","959.56791897","1","1","1","90","3","right","0","out","Female","Right-handed","1","no","right","d","1160.56993551","1056.63306754","29","red","1"
"100","77","20","962.256200204","1","0","1","91","3","right","1","out","Female","Right-handed","1","no","right","s","1615.24606667","680.24914393","29","green","2"
"100","77","20","958.799572376","1","1","1","92","0","left","1","in","Female","Right-handed","1","no","left","s","648.770364176","784.900884755","29","red","0"
"100","77","20","962.571795082","1","1","1","93","0","right","1","in","Female","Right-handed","1","no","right","d","1412.41460573","1048.38460865","29","green","2"
"100","78","20","963.684982413","1","1","1","94","2","right","3","out","Female","Right-handed","1","no","right","s","1367.02547147","720.643468951","29","green","2"
"100","78","20","960.331280936","1","1","1","95","0","left","1","in","Female","Right-handed","1","no","left","s","678.565712977","752.456433329","29","red","3"
"100","78","20","957.922631023","1","1","1","96","3","left","1","in","Female","Right-handed","1","no","left","d","695.172315147","864.192759742","29","green","3"
"100","78","20","953.487026917","1","1","1","97","3","right","3","out","Female","Right-handed","1","no","right","s","664.789737901","576.843700059","29","red","0"
"100","79","20","954.576076542","1","1","1","98","3","left","1","in","Female","Right-handed","1","no","left","s","1538.26494041","536.422755726","29","red","2"
"100","79","20","952.027799492","1","1","1","99","1","left","2","out","Female","Right-handed","1","no","left","s","902.720205053","608.900728246","29","red","3"
"100","79","20","951.268729312","1","1","1","100","0","right","0","in","Female","Right-handed","1","no","right","s","919.47529808","864.647212329","29","red","1"
"100","80","20","947.965512837","1","1","1","101","0","left","2","in","Female","Right-handed","1","no","left","s","630.004390583","744.018432109","29","red","1"
"100","80","20","945.924633406","1","1","1","102","0","left","2","out","Female","Right-handed","1","no","left","s","788.574991249","776.733566665","29","red","1"
"100","80","20","943.684289342","1","1","1","103","0","right","1","in","Female","Right-handed","1","no","right","d","724.134768127","800.298072154","29","green","3"
"100","80","20","942.611085424","1","1","1","104","1","right","1","out","Female","Right-handed","1","no","right","s","1140.50891635","568.707811995","29","red","2"
"100","79","20","940.537021255","1","0","1","105","1","left","1","out","Female","Right-handed","1","no","left","s","1064.37704235","472.402348016","29","green","3"
"100","80","20","942.660330277","1","1","1","106","3","right","0","out","Female","Right-handed","1","no","right","d","1193.947025","1048.08955122","29","red","2"
"100","79","20","939.694974009","1","0","1","107","2","left","0","out","Female","Right-handed","1","no","left","s","766.562423727","608.716958777","29","red","1"
"100","79","20","939.87716498","1","1","1","108","0","right","2","out","Female","Right-handed","1","no","right","s","1191.02274925","720.068427665","29","green","3"
"100","79","20","939.300085424","1","1","1","109","2","right","1","in","Female","Right-handed","1","no","right","s","1209.39296102","568.795367086","29","green","2"
"100","79","20","938.575373407","1","1","1","110","0","left","0","in","Female","Right-handed","1","no","left","d","805.258244211","944.343187719","29","green","1"
"100","78","20","954.416277506","1","0","1","111","0","right","1","in","Female","Right-handed","1","no","right","d","2591.82107204","2136.69241257","29","red","2"
"100","79","20","955.227636935","1","1","1","112","2","right","1","in","Female","Right-handed","1","no","right","s","1544.22574203","512.274228946","29","green","3"
"100","79","20","953.103765076","1","1","1","113","1","left","3","in","Female","Right-handed","1","no","left","s","855.81601501","663.846836968","29","green","1"
"100","79","20","953.241610957","1","1","1","114","0","right","3","in","Female","Right-handed","1","no","right","s","1195.33315352","736.513710388","29","green","2"
"100","79","20","951.728709373","1","1","1","115","1","left","0","in","Female","Right-handed","1","no","left","s","998.110990986","623.946733151","29","green","2"
"100","78","20","948.628179575","1","0","1","116","0","right","3","in","Female","Right-handed","1","no","right","s","761.717388214","552.639368936","29","red","1"
"100","79","20","947.451662229","1","1","1","117","3","right","0","out","Female","Right-handed","1","no","right","d","799.155686735","872.209341967","29","red","3"
"100","100","20","943.591111973","1","1","2","118","1","right","3","in","Female","Right-handed","1","no","right","s","1373.66201876","513.520205182","29","green","1"
"100","100","20","829.893455402","1","1","2","119","1","right","0","in","Female","Right-handed","1","no","right","d","815.058320346","617.333277318","29","green","1"
"100","66","20","815.350544804","1","0","2","120","3","left","1","in","Female","Right-handed","1","no","left","d","675.713598012","896.815849203","29","red","3"
"100","75","20","770.199808406","1","1","2","121","2","right","0","in","Female","Right-handed","1","no","right","s","748.185797667","521.309400756","29","green","3"
"100","80","20","813.841529142","1","1","2","122","1","right","1","out","Female","Right-handed","1","no","right","d","1375.95705247","600.859771708","29","green","3"
"100","83","20","818.535027006","1","1","2","123","3","right","3","out","Female","Right-handed","1","no","right","d","1043.55336386","640.451668791","29","green","1"
"100","85","20","854.457399228","1","1","2","124","2","right","0","in","Female","Right-handed","1","no","right","s","1490.85177629","649.131488819","29","red","1"
"100","87","20","896.533099191","1","1","2","125","0","left","1","out","Female","Right-handed","1","no","left","s","1797.59797591","584.528021958","29","red","2"
"100","88","20","870.999036324","1","1","2","126","1","right","3","in","Female","Right-handed","1","no","right","s","780.218451542","553.23461524","29","red","2"
"100","90","20","887.080156522","1","1","2","127","3","right","0","in","Female","Right-handed","1","no","right","s","1486.83097731","576.78949929","29","green","2"
"100","90","20","896.378467373","1","1","2","128","2","left","0","in","Female","Right-handed","1","no","left","d","1089.3594271","889.363724677","29","green","1"
"100","91","20","892.721419491","1","1","2","129","2","right","0","out","Female","Right-handed","1","no","right","d","976.009264807","728.978520779","29","red","2"
"100","92","20","900.967956146","1","1","2","130","0","right","0","in","Female","Right-handed","1","no","right","d","1199.34497249","800.507819502","29","green","2"
"100","92","20","892.692639174","1","1","2","131","1","right","2","out","Female","Right-handed","1","no","right","s","817.182733881","753.044303194","29","red","1"
"100","93","20","906.76152977","1","1","2","132","3","right","1","out","Female","Right-handed","1","no","right","d","1070.7294365","1136.72255974","29","red","3"
"100","93","20","903.943911666","1","1","2","133","3","right","0","in","Female","Right-handed","1","no","right","s","1106.11131298","617.247967231","29","red","1"
"100","94","20","902.638602051","1","1","2","134","0","right","2","out","Female","Right-handed","1","no","right","d","1034.80940091","728.697895505","29","red","1"
"100","94","20","895.455288767","1","1","2","135","2","left","3","in","Female","Right-handed","1","no","left","d","826.260881444","720.417044438","29","red","0"
"100","94","20","888.615463747","1","1","2","136","0","left","3","in","Female","Right-handed","1","no","left","s","745.919948993","785.077277786","29","red","1"
"100","95","20","888.239435581","1","1","2","137","0","left","1","out","Female","Right-handed","1","no","left","s","1049.65656277","712.53323806","29","red","2"
"100","90","20","875.856180087","1","0","2","138","3","left","2","in","Female","Right-handed","1","no","left","s","735.300767759","521.08137267","29","green","1"
"100","90","20","871.44053804","1","1","2","139","2","left","2","out","Female","Right-handed","1","no","left","s","764.613120373","792.810989733","29","green","0"
"100","91","20","875.563061548","1","1","2","140","2","right","1","out","Female","Right-handed","1","no","right","d","1132.24249744","800.274659989","29","green","2"
"100","91","20","878.724224835","1","1","2","141","3","right","2","out","Female","Right-handed","1","no","right","s","1189.90986958","712.952091329","29","red","1"
"100","92","20","876.776022863","1","1","2","142","1","right","3","out","Female","Right-handed","1","no","right","s","971.566084689","688.472266367","29","green","1"
"100","92","20","868.906659987","1","1","2","143","2","right","1","out","Female","Right-handed","1","no","right","s","791.107995192","553.237180957","29","green","2"
"100","92","20","882.007731384","1","1","2","144","1","right","1","out","Female","Right-handed","1","no","right","d","1252.60155668","1192.66961874","29","red","3"
"100","92","20","883.354191618","1","1","2","145","0","right","3","in","Female","Right-handed","1","no","right","d","647.235744796","1192.18149111","29","red","0"
"100","93","20","885.902235373","1","1","2","146","3","left","1","out","Female","Right-handed","1","no","left","d","1121.67719626","792.817724741","29","red","0"
"100","90","20","886.785222027","1","0","2","147","3","left","1","in","Female","Right-handed","1","no","left","s","1152.42635029","672.357319687","29","green","2"
"100","90","20","889.14614051","1","1","2","148","2","left","1","in","Female","Right-handed","1","no","left","s","982.946000964","937.001389015","29","red","3"
"100","90","20","892.109818413","1","1","2","149","2","right","2","out","Female","Right-handed","1","no","right","s","1055.4858714","912.481795436","29","green","1"
"100","90","20","883.47425776","1","1","2","150","1","right","1","in","Female","Right-handed","1","no","right","s","581.177837208","633.094796503","29","green","0"
"100","91","20","874.878701492","1","1","2","151","2","left","1","out","Female","Right-handed","1","no","left","s","645.768154773","536.682534555","29","red","0"
"100","91","20","875.778890922","1","1","2","152","0","left","3","out","Female","Right-handed","1","no","left","d","1092.36484365","720.405819429","29","red","2"
"100","91","20","875.558626932","1","1","2","153","2","right","1","out","Female","Right-handed","1","no","right","s","1054.82295431","680.875820268","29","green","3"
"100","91","20","870.329161273","1","1","2","154","2","right","1","in","Female","Right-handed","1","no","right","s","883.579957517","480.556837523","29","red","3"
"100","92","20","865.564574256","1","1","2","155","0","right","1","out","Female","Right-handed","1","no","right","d","682.292737383","696.256971932","29","red","3"
"100","92","20","869.361684109","1","1","2","156","3","right","1","out","Female","Right-handed","1","no","right","s","1010.62174695","1016.6819701","29","green","2"
"100","92","20","865.171107655","1","1","2","157","3","right","1","out","Female","Right-handed","1","no","right","d","819.116001509","584.361250363","29","green","3"
"100","90","20","863.357658023","1","0","2","158","1","left","1","in","Female","Right-handed","1","no","left","s","860.83487784","720.804467684","29","red","2"
"100","90","20","858.714935222","1","1","2","159","0","left","1","out","Female","Right-handed","1","no","left","s","712.348506448","624.378094293","29","green","0"
"100","90","20","858.384092448","1","1","2","160","3","left","3","out","Female","Right-handed","1","no","left","d","944.961846188","744.015545679","29","green","1"
"100","90","20","854.105684121","1","1","2","161","1","left","2","out","Female","Right-handed","1","no","left","d","587.596298567","752.671953542","29","green","3"
"100","88","20","849.943245987","1","0","2","162","2","left","2","out","Female","Right-handed","1","no","left","s","533.29354334","800.298392867","29","red","3"
"100","89","20","849.037861767","1","1","2","163","0","left","1","out","Female","Right-handed","1","no","left","s","679.876152848","936.714990872","29","green","3"
"100","89","20","853.512407312","1","1","2","164","1","left","0","in","Female","Right-handed","1","no","left","d","1198.2821243","920.400880426","29","red","2"
"100","87","20","856.031495136","1","0","2","165","1","right","1","out","Female","Right-handed","1","no","right","d","1132.89258595","815.964659818","29","green","2"
"100","87","20","850.021821356","1","1","2","166","0","left","1","out","Female","Right-handed","1","no","left","s","730.598450242","392.516509586","29","green","3"
"100","88","20","845.615484999","1","1","2","167","3","left","1","in","Female","Right-handed","1","no","left","s","691.142215437","568.267791561","29","red","0"
"100","88","20","842.20752842","1","1","2","168","2","right","1","out","Female","Right-handed","1","no","right","s","734.751704356","608.867694642","29","green","3"
"100","88","20","843.625739281","1","1","2","169","1","right","1","in","Female","Right-handed","1","no","right","d","1159.39451649","672.514469843","29","green","2"
"100","86","20","838.770995982","1","0","2","170","1","left","3","out","Female","Right-handed","1","no","left","s","492.789533928","679.859154978","29","red","0"
"100","85","20","835.962082459","1","0","2","171","3","right","3","in","Female","Right-handed","1","no","right","d","565.665192557","808.514138862","29","green","0"
"100","85","20","831.709344402","1","1","2","172","1","left","1","in","Female","Right-handed","1","no","left","s","691.944001945","512.178976707","29","red","0"
"100","85","20","827.388975018","1","1","2","173","1","left","1","out","Female","Right-handed","1","no","left","s","514.825834332","664.71148354","29","green","0"
"100","85","20","827.107857767","1","1","2","174","0","right","1","out","Female","Right-handed","1","no","right","s","694.294198558","928.436384816","29","green","0"
"100","86","20","827.21690403","1","1","2","175","1","left","2","out","Female","Right-handed","1","no","left","s","490.979099992","1175.88598211","29","red","0"
"100","86","20","824.984605835","1","1","2","176","3","left","0","in","Female","Right-handed","1","no","left","s","734.415274739","656.607346224","29","red","1"
"100","86","20","818.554644049","1","1","2","177","2","right","1","in","Female","Right-handed","1","no","right","s","542.094272776","336.279524588","29","red","0"
"100","86","20","815.753592804","1","1","2","178","0","right","0","in","Female","Right-handed","1","no","right","s","895.599699426","399.781336783","29","green","1"
"100","87","20","811.64344436","1","1","2","179","2","left","1","out","Female","Right-handed","1","no","left","s","593.385197164","528.463581413","29","green","0"
"100","87","20","810.63397585","1","1","2","180","1","left","0","in","Female","Right-handed","1","no","left","s","1151.96836984","344.125486645","29","green","3"
"100","87","20","807.359456045","1","1","2","181","0","right","2","in","Female","Right-handed","1","no","right","d","577.470697106","624.658719575","29","green","0"
"100","86","20","805.616963493","1","0","2","182","1","left","1","out","Female","Right-handed","1","no","left","s","740.00276456","648.192115743","29","green","3"
"100","86","20","807.43763843","1","1","2","183","2","right","3","out","Female","Right-handed","1","no","right","s","1419.73170941","431.831309252","29","red","2"
"100","86","20","803.815969097","1","1","2","184","2","left","1","in","Female","Right-handed","1","no","left","d","489.219659677","640.351926551","29","red","2"
"100","86","20","802.606849419","1","1","2","185","2","left","1","out","Female","Right-handed","1","no","left","d","779.093705431","664.097956502","29","red","2"
"100","86","20","802.338346907","1","1","2","186","2","left","1","in","Female","Right-handed","1","no","left","d","999.570563148","568.589789025","29","red","0"
"100","87","20","800.773323087","1","1","2","187","1","left","1","in","Female","Right-handed","1","no","left","d","521.302986461","864.270372673","29","green","3"
"100","87","20","800.42064837","1","1","2","188","0","left","1","out","Female","Right-handed","1","no","left","s","679.65485977","871.811976573","29","green","0"
"100","87","20","801.803012066","1","1","2","189","0","left","0","out","Female","Right-handed","1","no","left","s","719.429564175","1080.47210473","29","green","3"
"100","87","20","806.804369772","1","1","2","190","3","right","1","in","Female","Right-handed","1","no","right","d","1693.83557668","639.968672596","29","red","2"
"100","87","20","806.590988913","1","1","2","191","2","left","3","out","Female","Right-handed","1","no","left","s","1077.46925389","504.559118446","29","red","1"
"100","88","20","805.29823732","1","1","2","192","1","right","2","in","Female","Right-handed","1","no","right","s","915.207869566","504.061369382","29","red","1"
"100","88","20","802.968673205","1","1","2","193","0","left","2","out","Female","Right-handed","1","no","left","s","872.779572532","383.723156588","29","green","3"
"100","88","20","802.894236042","1","1","2","194","1","left","1","out","Female","Right-handed","1","no","left","d","874.289176172","720.184847069","29","red","2"
"100","87","20","801.696488561","1","0","2","195","0","left","3","in","Female","Right-handed","1","no","left","s","770.973853101","647.966011948","29","green","1"
"100","87","20","801.821042282","1","1","2","196","3","left","1","in","Female","Right-handed","1","no","left","d","1030.54485883","592.52760631","29","red","2"
"100","87","20","801.14983201","1","1","2","197","3","left","2","in","Female","Right-handed","1","no","left","s","784.166769026","712.081671896","29","green","0"
"100","87","20","800.860639222","1","1","2","198","0","right","1","in","Female","Right-handed","1","no","right","d","947.729613217","607.720819222","29","red","2"
"100","87","20","800.95192905","1","1","2","199","2","right","3","out","Female","Right-handed","1","no","right","d","1000.32328032","616.369529933","29","red","1"
"100","87","20","797.215993221","1","1","2","200","0","right","1","out","Female","Right-handed","1","no","right","d","533.670383","448.06812748","29","red","0"
"100","88","20","797.53446296","1","1","2","201","0","right","0","in","Female","Right-handed","1","no","right","d","856.426655617","791.508247013","29","red","1"
"100","88","20","797.969501135","1","1","2","202","3","right","1","in","Female","Right-handed","1","no","right","d","677.021151449","992.004264222","29","red","3"
"100","87","20","798.396527299","1","0","2","203","0","right","1","out","Female","Right-handed","1","no","right","s","957.625583018","711.76191944","29","red","2"
"100","87","20","796.044178164","1","1","2","204","0","left","1","in","Female","Right-handed","1","no","left","d","635.226586473","552.257718558","29","green","3"
"100","86","20","795.377982132","1","0","2","205","1","right","1","in","Female","Right-handed","1","no","right","s","690.883398755","783.954455961","29","red","0"
"100","86","20","797.221199309","1","1","2","206","2","right","2","out","Female","Right-handed","1","no","right","d","1343.54852107","575.300100671","29","red","1"
"100","85","20","795.658990648","1","0","2","207","0","left","2","in","Female","Right-handed","1","no","left","s","665.112697508","648.132142112","29","green","1"
"100","84","20","796.681525116","1","0","2","208","3","right","3","in","Female","Right-handed","1","no","right","d","1169.69330383","607.725950653","29","green","2"
"100","83","20","794.262702644","1","0","2","209","1","left","0","in","Female","Right-handed","1","no","left","s","612.111081427","536.188634069","29","green","1"
"100","82","20","793.504022956","1","0","2","210","3","right","0","in","Female","Right-handed","1","no","right","d","687.641615543","759.769367713","29","green","3"
"100","82","20","791.476451916","1","1","2","211","3","left","2","out","Female","Right-handed","1","no","left","d","518.394425726","687.430264617","29","red","3"
"100","83","20","791.017816996","1","1","2","212","3","left","1","in","Female","Right-handed","1","no","left","d","895.829331083","599.982937983","29","green","0"
"100","83","20","790.486530468","1","1","2","213","3","left","1","in","Female","Right-handed","1","no","left","s","728.421118798","751.60750177","29","green","0"
"100","100","20","678.224472638","1","1","3","214","3","left","1","in","Female","Right-handed","1","no","left","d","531.714023917","824.73492136","29","green","0"
"100","100","20","645.043259587","1","1","3","215","2","right","1","out","Female","Right-handed","1","no","right","s","623.484583408","600.239509666","29","green","0"
"100","100","20","660.361364109","1","1","3","216","1","left","0","out","Female","Right-handed","1","no","left","s","788.887367275","593.10777903","29","red","1"
"100","100","20","726.050957701","1","1","3","217","0","left","1","out","Female","Right-handed","1","no","left","d","1165.69046487","680.54901209","29","green","2"
"100","100","20","702.084227993","1","1","3","218","2","left","1","in","Female","Right-handed","1","no","left","d","604.241386489","608.19323183","29","red","2"
"100","100","20","679.95491501","1","1","3","219","0","left","1","in","Female","Right-handed","1","no","left","s","505.787455379","632.829244812","29","green","0"
"100","100","20","715.076756855","1","1","3","220","2","left","3","out","Female","Right-handed","1","no","left","d","1251.24974463","600.365871222","29","green","1"
"100","100","20","713.629139904","1","1","3","221","3","right","1","out","Female","Right-handed","1","no","right","d","679.051595602","727.940046894","29","green","0"
"100","100","20","730.892438629","1","1","3","222","3","left","1","in","Female","Right-handed","1","no","left","d","697.402243786","1040.59541308","29","green","3"
"100","100","20","746.356698141","1","1","3","223","0","left","3","in","Female","Right-handed","1","no","left","d","1082.89734856","688.172718925","29","green","2"
"100","100","20","763.612753211","1","1","3","224","3","left","1","out","Female","Right-handed","1","no","left","s","1279.67211422","592.674493601","29","green","2"
"100","91","20","773.128828063","1","0","3","225","3","left","1","out","Female","Right-handed","1","no","left","s","1067.3144674","688.296835477","29","red","2"
"100","92","20","768.91616054","1","1","3","226","2","left","0","out","Female","Right-handed","1","no","left","d","731.854368627","704.8739319","29","green","3"
"100","92","20","760.060439125","1","1","3","227","1","right","1","in","Female","Right-handed","1","no","right","d","561.271723203","728.600398263","29","red","0"
"100","93","20","767.891336761","1","1","3","228","2","right","0","out","Female","Right-handed","1","no","right","s","1130.92788828","624.119919041","29","green","1"
"100","93","20","756.316163423","1","1","3","229","1","right","0","in","Female","Right-handed","1","no","right","s","788.674092062","376.703034632","29","green","1"
"100","94","20","748.714693779","1","1","3","230","1","left","2","in","Female","Right-handed","1","no","left","s","710.010496991","544.171861977","29","green","1"
"100","88","20","751.527447843","1","0","3","231","1","right","2","in","Female","Right-handed","1","no","right","d","686.859071909","911.829461937","29","green","1"
"100","89","20","752.892613627","1","1","3","232","1","left","0","out","Female","Right-handed","1","no","left","s","1018.4850276","536.446167895","29","red","3"
"100","90","20","752.20224295","1","1","3","233","2","right","0","in","Female","Right-handed","1","no","right","s","942.145009823","536.025390334","29","red","2"
"100","90","20","756.839563451","1","1","3","234","3","right","2","in","Female","Right-handed","1","no","right","s","978.630785972","720.541160994","29","red","1"
"100","90","20","775.648902586","1","1","3","235","2","right","1","in","Female","Right-handed","1","no","right","d","1613.15019674","728.139852094","29","red","2"
"100","86","20","768.656473957","1","0","3","236","3","left","1","out","Female","Right-handed","1","no","left","s","589.742841406","639.903246818","29","green","3"
"100","87","20","762.188043578","1","1","3","237","2","left","1","in","Female","Right-handed","1","no","left","d","602.356226045","624.472063671","29","green","2"
"100","88","20","765.457420807","1","1","3","238","2","right","0","in","Female","Right-handed","1","no","right","d","1023.97790661","663.867041989","29","green","1"
"100","84","20","780.056151453","1","0","3","239","2","right","1","out","Female","Right-handed","1","no","right","d","1481.59755641","808.451278805","29","red","3"
"100","81","20","784.209839812","1","0","3","240","0","right","3","in","Female","Right-handed","1","no","right","d","712.208354169","1072.2031201","29","green","0"
"100","82","20","781.43910278","1","1","3","241","1","right","3","out","Female","Right-handed","1","no","right","d","772.556579668","640.701826181","29","green","0"
"100","82","20","785.344018335","1","1","3","242","3","right","0","in","Female","Right-handed","1","no","right","d","1069.23266144","720.130646299","29","red","1"
"100","83","20","785.396928687","1","1","3","243","0","right","2","out","Female","Right-handed","1","no","right","d","949.894757505","623.967900316","29","red","1"
"100","83","20","783.863709246","1","1","3","244","0","left","1","in","Female","Right-handed","1","no","left","s","715.449816664","760.284435368","29","green","3"
"100","84","20","780.714336456","1","1","3","245","0","right","1","in","Female","Right-handed","1","no","right","s","750.150174612","616.017385299","29","green","0"
"100","84","20","785.272510373","1","1","3","246","0","left","1","in","Female","Right-handed","1","no","left","s","1189.63854502","672.629606383","29","red","2"
"100","85","20","793.214458139","1","1","3","247","2","right","1","out","Female","Right-handed","1","no","right","d","1254.32924625","856.268222604","29","green","0"
"100","85","20","799.843830315","1","1","3","248","3","left","2","out","Female","Right-handed","1","no","left","d","802.706318111","1247.77865048","29","red","1"
"100","86","20","798.121987933","1","1","3","249","2","right","1","in","Female","Right-handed","1","no","right","s","899.37034102","576.344668138","29","green","3"
"100","86","20","795.306938134","1","1","3","250","1","left","2","out","Female","Right-handed","1","no","left","d","763.962069726","623.968221029","29","green","0"
"100","86","20","791.577816765","1","1","3","251","2","right","1","in","Female","Right-handed","1","no","right","s","691.609817331","615.590834874","29","green","0"
"100","87","20","787.182259305","1","1","3","252","3","right","1","in","Female","Right-handed","1","no","right","s","696.110726076","544.191425568","29","red","3"
"100","87","20","783.262939151","1","1","3","253","0","right","2","in","Female","Right-handed","1","no","right","d","684.870962083","575.947944173","29","red","3"
"100","85","20","785.059345148","1","0","3","254","3","left","1","in","Female","Right-handed","1","no","left","d","1025.36275227","688.46841779","29","green","2"
"100","85","20","788.804577092","1","1","3","255","2","left","2","out","Female","Right-handed","1","no","left","s","1324.76138032","559.956793328","29","green","1"
"100","83","20","791.740914273","1","0","3","256","1","right","3","in","Female","Right-handed","1","no","right","d","886.634122686","943.500029025","29","red","1"
"100","84","20","789.036208008","1","1","3","257","0","right","0","out","Female","Right-handed","1","no","right","d","697.241886483","648.225790777","29","red","1"
"100","84","20","788.683603035","1","1","3","258","1","left","1","out","Female","Right-handed","1","no","left","s","866.690805786","679.647162622","29","red","2"
"100","82","20","797.597257784","1","0","3","259","1","left","1","out","Female","Right-handed","1","no","left","s","1373.20083117","1024.22261185","29","green","3"
"100","82","20","793.517012228","1","1","3","260","2","right","1","out","Female","Right-handed","1","no","right","s","507.803467372","703.847965884","29","green","3"
"100","83","20","790.995397639","1","1","3","261","0","left","2","in","Female","Right-handed","1","no","left","d","569.473357755","775.485666141","29","green","0"
"100","83","20","787.190872112","1","1","3","262","2","left","3","out","Female","Right-handed","1","no","left","s","617.090496358","592.056797275","29","red","0"
"100","84","20","785.001355019","1","1","3","263","2","left","1","in","Female","Right-handed","1","no","left","d","555.682950526","799.747084464","29","red","0"
"100","84","20","789.741178725","1","1","3","264","3","right","3","out","Female","Right-handed","1","no","right","d","1381.19303908","672.271688887","29","green","1"
"100","84","20","788.482184464","1","1","3","265","1","left","1","in","Female","Right-handed","1","no","left","s","944.619643706","503.927310678","29","red","2"
"100","84","20","786.227411791","1","1","3","266","1","right","3","out","Female","Right-handed","1","no","right","s","882.476378571","455.482086967","29","red","2"
"100","85","20","784.42821973","1","1","3","267","1","left","1","in","Female","Right-handed","1","no","left","d","698.040145129","680.10193593","29","red","0"
"100","85","20","782.885409226","1","1","3","268","2","right","1","out","Female","Right-handed","1","no","right","s","775.574504085","623.572779925","29","red","2"
"100","85","20","781.687375972","1","1","3","269","3","left","1","in","Female","Right-handed","1","no","left","d","935.263757296","496.327336717","29","green","2"
"100","85","20","782.55829808","1","1","3","270","3","right","3","out","Female","Right-handed","1","no","right","d","958.809661333","703.850210884","29","red","1"
"100","86","20","777.996878076","1","1","3","271","2","left","2","out","Female","Right-handed","1","no","left","s","516.396373743","519.595501915","29","red","0"
"100","86","20","780.733646941","1","1","3","272","1","left","1","out","Female","Right-handed","1","no","left","d","1135.01475448","743.917727727","29","green","2"
"100","86","20","780.149917507","1","1","3","273","0","left","3","out","Female","Right-handed","1","no","left","s","1011.66054155","479.759220303","29","red","1"
"100","86","20","781.561903989","1","1","3","274","3","left","3","out","Female","Right-handed","1","no","left","d","973.317827851","759.244357909","29","green","2"
"100","87","20","798.47653218","1","1","3","275","3","left","2","in","Female","Right-handed","1","no","left","d","716.814136584","2943.7235671","29","green","3"
"100","87","20","797.94076891","1","1","3","276","1","left","1","in","Female","Right-handed","1","no","left","d","674.136965023","855.309927367","29","red","3"
"100","87","20","800.854268948","1","1","3","277","0","right","3","in","Female","Right-handed","1","no","right","d","1120.85488402","847.954658653","29","red","1"
"100","87","20","802.640722105","1","1","3","278","0","right","1","out","Female","Right-handed","1","no","right","d","1090.4290103","743.518438045","29","red","3"
"100","87","20","802.018062141","1","1","3","279","0","right","1","out","Female","Right-handed","1","no","right","s","938.998158137","584.092170811","29","red","2"
"100","88","20","801.920055145","1","1","3","280","0","right","1","in","Female","Right-handed","1","no","right","d","943.37623319","647.526953657","29","red","2"
"100","88","20","802.084662373","1","1","3","281","0","right","1","out","Female","Right-handed","1","no","right","s","1019.12164609","607.10504718","29","red","0"
"100","88","20","799.361127679","1","1","3","282","2","left","2","in","Female","Right-handed","1","no","left","d","604.636506876","623.685030034","29","red","3"
"100","88","20","795.254457028","1","1","3","283","3","right","0","out","Female","Right-handed","1","no","right","s","568.302749452","455.485614828","29","green","3"
"100","88","20","791.758528627","1","1","3","284","1","left","1","in","Female","Right-handed","1","no","left","s","542.105177071","551.981903998","29","red","3"
"100","88","20","791.902959832","1","1","3","285","0","left","2","out","Female","Right-handed","1","no","left","s","988.68807522","615.627075626","29","green","1"
"100","89","20","793.672951969","1","1","3","286","1","right","3","out","Female","Right-handed","1","no","right","s","1291.06646265","551.158308896","29","green","1"
"100","87","20","791.243728979","1","0","3","287","0","left","1","in","Female","Right-handed","1","no","left","d","579.908769523","647.912131895","29","red","0"
"100","86","20","792.331690312","1","0","3","288","2","left","2","out","Female","Right-handed","1","no","left","d","914.270741494","831.410916548","29","red","1"
"100","85","20","792.9580838","1","0","3","289","3","right","0","out","Female","Right-handed","1","no","right","d","863.882949434","815.992241271","29","green","1"
"100","85","20","793.055863665","1","1","3","290","3","right","1","out","Female","Right-handed","1","no","right","s","1049.58632627","551.387940552","29","red","0"
"100","85","20","792.660665044","1","1","3","291","1","right","1","out","Female","Right-handed","1","no","right","s","1013.16020304","511.300539409","29","green","2"
"100","86","20","795.666890354","1","1","3","292","0","left","0","in","Female","Right-handed","1","no","left","s","1684.70290763","375.602021399","29","red","2"
"100","86","20","793.594116667","1","1","3","293","0","right","1","out","Female","Right-handed","1","no","right","s","748.405487171","511.284503678","29","green","3"
"100","86","20","792.111540881","1","1","3","294","3","right","3","in","Female","Right-handed","1","no","right","d","690.900717346","656.110238589","29","green","0"
"100","86","20","792.215577207","1","1","3","295","0","left","0","out","Female","Right-handed","1","no","left","d","833.762396018","767.522643255","29","red","1"
"100","85","20","790.671587624","1","0","3","296","2","left","3","in","Female","Right-handed","1","no","left","d","824.92350155","503.205382105","29","red","1"
"100","85","20","790.450826151","1","1","3","297","1","right","0","in","Female","Right-handed","1","no","right","d","1104.71363874","439.541609034","29","green","2"
"100","84","20","788.101003367","1","0","3","298","0","right","0","in","Female","Right-handed","1","no","right","s","638.258301617","543.173477414","29","red","3"
"100","84","20","786.005800638","1","1","3","299","1","left","1","out","Female","Right-handed","1","no","left","d","632.885369865","582.941767531","29","red","0"
"100","85","20","784.638060981","1","1","3","300","0","right","1","out","Female","Right-handed","1","no","right","s","702.581463913","631.443437007","29","red","3"
"100","85","20","781.467113764","1","1","3","301","1","left","1","in","Female","Right-handed","1","no","left","d","508.078640501","503.110771297","29","red","0"
"100","85","20","779.99885213","1","1","3","302","1","right","1","out","Female","Right-handed","1","no","right","d","749.800916412","551.782740229","29","red","3"
"100","85","20","779.396659572","1","1","3","303","3","left","1","out","Female","Right-handed","1","no","left","d","532.294196637","919.308847202","29","red","3"
"100","85","20","780.787578993","1","1","3","304","3","right","0","in","Female","Right-handed","1","no","right","d","1269.01220223","542.928451458","29","green","2"
"100","85","20","778.877318939","1","1","3","305","1","right","2","in","Female","Right-handed","1","no","right","d","554.590596585","655.496711552","29","green","3"
"100","86","20","776.466916611","1","1","3","306","2","left","1","in","Female","Right-handed","1","no","left","d","550.179808644","559.23999619","29","green","3"
"100","86","20","774.618902513","1","1","3","307","3","right","2","in","Female","Right-handed","1","no","right","s","710.66250978","494.844673106","29","red","0"
"100","85","20","775.432253657","1","0","3","308","2","left","3","out","Female","Right-handed","1","no","left","d","976.357240146","727.417282091","29","green","2"
"100","85","20","772.880399524","1","1","3","309","3","right","1","in","Female","Right-handed","1","no","right","s","677.840897977","383.067615937","29","green","0"
"100","100","20","813.938866024","1","1","4","310","3","right","1","out","Female","Right-handed","1","no","right","d","843.881262473","783.996469574","29","green","3"
"100","100","20","709.207828515","1","1","4","311","2","left","1","in","Female","Right-handed","1","no","left","s","608.563657199","600.389924814","29","green","3"
"100","100","20","719.854297217","1","1","4","312","2","right","0","out","Female","Right-handed","1","no","right","d","866.156495256","616.137973986","29","green","2"
"100","100","20","686.317665569","1","1","4","313","3","right","1","out","Female","Right-handed","1","no","right","s","619.601370989","551.81417026","29","green","0"
"100","100","20","708.738607014","1","1","4","314","3","left","1","in","Female","Right-handed","1","no","left","d","1068.38372989","528.461015696","29","red","2"
"100","100","20","674.865468241","1","1","4","315","2","right","0","out","Female","Right-handed","1","no","right","s","594.939380131","416.060168623","29","green","3"
"100","100","20","672.303416723","1","1","4","316","2","right","1","out","Female","Right-handed","1","no","right","s","802.392659225","511.469556004","29","red","2"
"100","100","20","695.34137183","1","1","4","317","3","left","3","out","Female","Right-handed","1","no","left","d","1088.97649386","624.237621298","29","red","2"
"100","100","20","692.335398485","1","1","4","318","1","right","0","out","Female","Right-handed","1","no","right","d","712.694878217","623.880345229","29","red","1"
"100","100","20","685.890706235","1","1","4","319","1","left","1","out","Female","Right-handed","1","no","left","d","623.512485581","632.264466392","29","green","3"
"100","90","20","685.176559365","1","0","4","320","0","right","3","out","Female","Right-handed","1","no","right","s","908.083836082","447.986345254","29","red","2"
"100","91","20","688.452408785","1","1","4","321","0","right","1","in","Female","Right-handed","1","no","right","d","577.384745596","871.588759208","29","green","0"
"100","92","20","700.587371526","1","1","4","322","3","left","0","out","Female","Right-handed","1","no","left","s","1124.27145669","568.142392152","29","green","1"
"100","85","20","695.068323435","1","0","4","323","1","right","1","in","Female","Right-handed","1","no","right","s","558.821784347","687.819612147","29","green","0"
"100","80","20","690.589902129","1","0","4","324","0","right","1","out","Female","Right-handed","1","no","right","d","464.430024404","791.353983291","29","green","0"
"100","75","20","688.338438174","1","0","4","325","2","left","1","out","Female","Right-handed","1","no","left","d","540.962470939","768.17048675","29","red","2"
"100","76","20","703.61759847","1","1","4","326","3","left","1","in","Female","Right-handed","1","no","left","s","1304.58105532","591.587271094","29","green","2"
"100","77","20","701.253660912","1","1","4","327","2","right","3","out","Female","Right-handed","1","no","right","d","778.042082245","544.091362611","29","red","0"
"100","78","20","695.174458869","1","1","4","328","2","left","1","in","Female","Right-handed","1","no","left","d","643.775875658","527.721768536","29","green","3"
"100","80","20","695.604253573","1","1","4","329","2","left","0","in","Female","Right-handed","1","no","left","s","960.255763479","447.284942416","29","green","1"
"100","76","20","724.784696268","1","0","4","330","3","left","0","out","Female","Right-handed","1","no","left","s","1240.80952215","1375.9775782","29","red","2"
"100","72","20","717.676210151","1","0","4","331","0","right","1","in","Female","Right-handed","1","no","right","d","609.26666361","527.529339775","29","red","3"
"100","73","20","714.498709618","1","1","4","332","3","left","1","in","Female","Right-handed","1","no","left","s","761.121500483","528.065895305","29","red","2"
"100","75","20","707.656772514","1","1","4","333","2","right","1","out","Female","Right-handed","1","no","right","d","532.721067775","567.863370448","29","red","2"
"100","76","20","708.943453846","1","1","4","334","3","right","2","out","Female","Right-handed","1","no","right","s","960.274364926","519.373246694","29","green","1"
"100","73","20","709.866317272","1","0","4","335","2","right","3","in","Female","Right-handed","1","no","right","d","857.998477892","607.877327948","29","red","1"
"100","74","20","705.167124439","1","1","4","336","0","right","3","out","Female","Right-handed","1","no","right","s","502.499168549","663.477053029","29","red","0"
"100","75","20","701.149037954","1","1","4","337","2","right","1","in","Female","Right-handed","1","no","right","d","505.236467689","680.084938056","29","red","0"
"100","72","20","702.496833966","1","0","4","338","1","left","1","in","Female","Right-handed","1","no","left","d","648.766515602","831.703728982","29","red","2"
"100","73","20","699.589896891","1","1","4","339","3","right","2","in","Female","Right-handed","1","no","right","s","807.183814686","423.393628749","29","green","1"
"100","74","20","702.469653493","1","1","4","340","0","right","2","in","Female","Right-handed","1","no","right","s","1209.8470929","367.877610174","29","red","1"
"100","71","20","698.740901527","1","0","4","341","1","right","3","in","Female","Right-handed","1","no","right","s","558.653729895","607.645451291","29","green","0"
"100","72","20","700.221908265","1","1","4","342","1","right","3","in","Female","Right-handed","1","no","right","d","815.098088959","680.130158813","29","red","1"
"100","73","20","699.899931384","1","1","4","343","0","left","1","out","Female","Right-handed","1","no","left","d","818.732747561","559.816641045","29","red","3"
"100","74","20","700.19734944","1","1","4","344","0","left","3","in","Female","Right-handed","1","no","left","d","893.374260792","527.24486592","29","green","1"
"100","75","20","695.150845085","1","1","4","345","0","right","2","in","Female","Right-handed","1","no","right","s","541.079531769","495.966853505","29","green","0"
"100","72","20","691.404477639","1","0","4","346","2","right","1","out","Female","Right-handed","1","no","right","s","593.559665904","519.510833259","29","red","0"
"100","73","20","694.856293103","1","1","4","347","1","left","1","out","Female","Right-handed","1","no","left","s","1158.05777802","487.089152564","29","green","2"
"100","74","20","693.187301448","1","1","4","348","2","left","0","out","Female","Right-handed","1","no","left","d","667.591500678","591.939736441","29","red","1"
"100","75","20","692.72921152","1","1","4","349","2","left","2","out","Female","Right-handed","1","no","left","d","782.349920799","567.377487823","29","green","1"
"100","75","20","692.565742406","1","1","4","350","2","left","2","in","Female","Right-handed","1","no","left","d","765.044160798","607.009794945","29","red","0"
"100","76","20","695.092380849","1","1","4","351","0","right","2","out","Female","Right-handed","1","no","right","d","789.667024477","807.702089489","29","red","1"
"100","76","20","696.721922337","1","1","4","352","0","right","3","in","Female","Right-handed","1","no","right","s","715.115632047","815.209697641","29","red","1"
"100","77","20","693.550603531","1","1","4","353","2","right","2","in","Female","Right-handed","1","no","right","s","602.659622065","511.708167669","29","green","3"
"100","77","20","690.03544716","1","1","4","354","2","left","1","in","Female","Right-handed","1","no","left","d","551.349775516","519.387358137","29","red","3"
"100","78","20","690.893975364","1","1","4","355","3","right","1","out","Female","Right-handed","1","no","right","d","636.051785143","823.003703936","29","red","0"
"100","78","20","687.686396171","1","1","4","356","3","left","0","out","Female","Right-handed","1","no","left","s","560.516119596","519.759387076","29","red","3"
"100","79","20","695.124047598","1","1","4","357","0","right","1","out","Female","Right-handed","1","no","right","s","1274.24177455","815.145554719","29","green","2"
"100","79","20","692.637409828","1","1","4","358","3","right","1","in","Female","Right-handed","1","no","right","s","690.77724222","455.780351549","29","red","2"
"100","80","20","690.814679236","1","1","4","359","1","right","1","in","Female","Right-handed","1","no","right","d","635.476743861","567.52501654","29","green","0"
"100","80","20","695.710078073","1","1","4","360","0","right","0","in","Female","Right-handed","1","no","right","s","1202.02839158","678.931648345","29","green","1"
"100","80","20","694.046560631","1","1","4","361","1","right","1","in","Female","Right-handed","1","no","right","d","626.693653732","591.720688368","29","red","3"
"100","81","20","696.46510361","1","1","4","362","3","left","3","in","Female","Right-handed","1","no","left","s","1021.33650114","623.122175908","29","red","0"
"100","81","20","691.406092287","1","1","4","363","3","right","1","in","Female","Right-handed","1","no","right","s","502.684220872","343.872763536","29","red","3"
"100","81","20","690.8786376","1","1","4","364","0","right","1","in","Female","Right-handed","1","no","right","d","757.341558168","567.450610753","29","green","2"
"100","82","20","691.301902676","1","1","4","365","3","right","3","out","Female","Right-handed","1","no","right","s","998.036585199","431.126378549","29","green","1"
"100","82","20","690.95573115","1","1","4","366","0","left","1","in","Female","Right-handed","1","no","left","d","687.537062582","655.6031888","29","green","3"
"100","81","20","690.07637575","1","0","4","367","3","right","2","out","Female","Right-handed","1","no","right","s","536.471183633","743.435052245","29","green","3"
"100","81","20","689.428650902","1","1","4","368","2","left","1","out","Female","Right-handed","1","no","left","d","744.869608665","558.851610804","29","green","0"
"100","80","20","690.430047281","1","0","4","369","3","right","1","in","Female","Right-handed","1","no","right","d","531.619092399","967.405774852","29","red","3"
"100","80","20","688.808483051","1","1","4","370","1","left","1","in","Female","Right-handed","1","no","left","d","527.922856592","655.106401882","29","red","0"
"100","80","20","686.177069719","1","1","4","371","2","left","1","out","Female","Right-handed","1","no","left","d","515.661616588","535.660096401","29","red","3"
"100","80","20","684.236542781","1","1","4","372","1","left","0","in","Female","Right-handed","1","no","left","s","552.301335742","575.546409487","29","red","1"
"100","81","20","682.317219436","1","1","4","373","1","right","1","in","Female","Right-handed","1","no","right","s","635.878919973","486.920777399","29","red","3"
"100","81","20","679.899957273","1","1","4","374","1","right","1","in","Female","Right-handed","1","no","right","s","490.614768205","559.77558958","29","green","3"
"100","81","20","675.904496089","1","1","4","375","1","right","1","out","Female","Right-handed","1","no","right","s","465.184986581","367.214051664","29","red","0"
"100","82","20","673.95514856","1","1","4","376","1","left","3","out","Female","Right-handed","1","no","left","s","675.766195204","414.830228121","29","red","1"
"100","80","20","675.9194001","1","0","4","377","0","left","0","out","Female","Right-handed","1","no","left","s","935.44271604","679.605790436","29","green","2"
"100","79","20","674.212900012","1","0","4","378","0","left","1","in","Female","Right-handed","1","no","left","s","477.187730612","639.154057502","29","red","0"
"100","80","20","674.976020856","1","1","4","379","0","right","1","in","Female","Right-handed","1","no","right","s","752.734813603","702.527904578","29","green","2"
"100","80","20","675.881087824","1","1","4","380","0","left","1","in","Female","Right-handed","1","no","left","d","895.174752575","583.296798595","29","green","2"
"100","80","20","674.569453117","1","1","4","381","0","left","0","out","Female","Right-handed","1","no","left","s","859.89293905","302.993838752","29","green","1"
"100","80","20","675.56882612","1","1","4","382","0","left","1","out","Female","Right-handed","1","no","left","d","655.463357234","839.584007503","29","red","3"
"100","81","20","674.136956352","1","1","4","383","0","left","2","out","Female","Right-handed","1","no","left","d","580.018133205","559.202793294","29","green","3"
"100","81","20","674.205268678","1","1","4","384","3","left","2","in","Female","Right-handed","1","no","left","s","663.814765507","694.705996113","29","green","0"
"100","81","20","672.890030862","1","1","4","385","1","right","2","out","Female","Right-handed","1","no","right","s","765.120170156","383.374219098","29","green","1"
"100","81","20","673.086385199","1","1","4","386","3","left","1","in","Female","Right-handed","1","no","left","d","673.042045364","702.976584304","29","green","0"
"100","82","20","671.439611294","1","1","4","387","2","left","1","in","Female","Right-handed","1","no","left","s","546.566958634","542.709082671","29","green","0"
"100","82","20","672.924243642","1","1","4","388","1","left","0","in","Female","Right-handed","1","no","left","s","1058.19141979","519.259713721","29","red","2"
"100","82","20","671.67810228","1","1","4","389","0","left","0","in","Female","Right-handed","1","no","left","d","507.771075201","638.694794193","29","green","3"
"100","82","20","670.976300826","1","1","4","390","3","right","1","out","Female","Right-handed","1","no","right","s","614.314390754","615.349978209","29","green","0"
"100","81","20","672.744492612","1","0","4","391","3","left","0","in","Female","Right-handed","1","no","left","d","1145.05632871","486.879725929","29","red","1"
"100","81","20","673.783452518","1","1","4","392","1","right","1","out","Female","Right-handed","1","no","right","d","1039.42223906","478.534090518","29","red","2"
"100","82","20","672.376973","1","1","4","393","0","right","1","out","Female","Right-handed","1","no","right","d","472.058221247","639.220124711","29","red","0"
"100","82","20","674.493803407","1","1","4","394","2","left","1","in","Female","Right-handed","1","no","left","d","1193.84279276","510.772322457","29","green","2"
"100","82","20","674.171887484","1","1","4","395","1","right","2","in","Female","Right-handed","1","no","right","s","567.388392119","726.229675915","29","red","0"
"100","82","20","673.302253655","1","1","4","396","1","left","0","out","Female","Right-handed","1","no","left","s","757.965989502","439.061499273","29","green","3"
"100","81","20","678.305604324","1","0","4","397","2","right","3","in","Female","Right-handed","1","no","right","s","1372.60301914","854.591205942","29","green","1"
"100","82","20","677.487059679","1","1","4","398","2","left","2","out","Female","Right-handed","1","no","left","s","683.824791045","527.085470764","29","green","1"
"100","81","20","680.389841429","1","0","4","399","1","left","2","out","Female","Right-handed","1","no","left","d","686.693262462","1190.78157187","29","green","3"
"100","81","20","682.041638997","1","1","4","400","1","left","1","out","Female","Right-handed","1","no","left","d","798.241329401","863.165510862","29","red","2"
"100","81","20","680.219906613","1","1","4","401","3","left","1","out","Female","Right-handed","1","no","left","d","493.935767921","534.94875141","29","red","3"
"100","81","20","679.718140557","1","1","4","402","1","right","3","out","Female","Right-handed","1","no","right","s","660.605374469","606.505952302","29","green","2"
"100","81","20","679.504444623","1","1","4","403","2","left","3","in","Female","Right-handed","1","no","left","d","744.125871501","575.13557408","29","red","2"
"100","82","20","681.87527669","1","1","4","404","3","left","3","out","Female","Right-handed","1","no","left","d","914.709158358","894.757823593","29","green","1"
"100","82","20","680.009102415","1","1","4","405","1","left","2","out","Female","Right-handed","1","no","left","s","527.266033085","478.179059453","29","red","1"
"100","100","20","713.950636249","1","1","5","406","0","right","3","out","Female","Right-handed","1","no","right","s","1020.50873675","407.392535751","29","red","2"
"100","100","20","666.517026577","1","1","5","407","3","right","1","in","Female","Right-handed","1","no","right","d","590.071253162","648.095580647","29","red","3"
"100","66","20","667.235347111","1","0","5","408","2","left","0","out","Female","Right-handed","1","no","left","d","857.712400462","479.631575894","29","red","1"
"100","75","20","692.840198817","1","1","5","409","1","right","1","out","Female","Right-handed","1","no","right","d","932.067194841","607.242313032","29","red","2"
"100","80","20","678.645987844","1","1","5","410","0","left","1","out","Female","Right-handed","1","no","left","s","747.854178768","495.884109136","29","green","3"
"100","83","20","668.946252615","1","1","5","411","3","left","0","out","Female","Right-handed","1","no","left","d","481.512887756","759.382265187","29","green","3"
"100","85","20","684.316400717","1","1","5","412","1","right","3","in","Female","Right-handed","1","no","right","s","986.010428994","567.064149654","29","red","1"
"100","87","20","671.376915187","1","1","5","413","1","left","1","out","Female","Right-handed","1","no","left","s","553.767642908","607.833390047","29","red","3"
"100","88","20","673.909275468","1","1","5","414","1","right","2","in","Female","Right-handed","1","no","right","d","893.085617648","495.250697793","29","red","1"
"100","80","20","676.005015334","1","0","5","415","0","right","3","out","Female","Right-handed","1","no","right","d","765.840174444","623.893173815","29","green","1"
"100","81","20","670.095684035","1","1","5","416","2","left","1","in","Female","Right-handed","1","no","left","d","702.4801181","519.524623985","29","red","2"
"100","83","20","658.885903214","1","1","5","417","2","left","1","in","Female","Right-handed","1","no","left","d","512.038824425","559.117803925","29","red","2"
"100","84","20","652.557041497","1","1","5","418","1","left","1","out","Female","Right-handed","1","no","left","d","649.603901427","503.61750037","29","green","0"
"100","85","20","652.53566816","1","1","5","419","0","left","1","out","Female","Right-handed","1","no","left","d","641.351914685","663.163714864","29","green","3"
"100","86","20","659.18774109","1","1","5","420","0","left","1","out","Female","Right-handed","1","no","left","d","881.789728602","622.843795631","29","red","2"
"100","87","20","648.460804426","1","1","5","421","2","left","3","in","Female","Right-handed","1","no","left","d","503.544056726","471.569452191","29","red","2"
"100","88","20","637.032709625","1","1","5","422","2","right","0","out","Female","Right-handed","1","no","right","s","501.147356492","407.219029152","29","red","2"
"100","88","20","635.882964542","1","1","5","423","3","right","1","out","Female","Right-handed","1","no","right","s","665.94463119","566.729965041","29","red","2"
"100","89","20","638.677357446","1","1","5","424","3","left","2","out","Female","Right-handed","1","no","left","s","522.394057541","855.558801901","29","red","3"
"100","90","20","631.419391431","1","1","5","425","2","right","1","in","Female","Right-handed","1","no","right","d","483.983352347","503.05272195","29","green","3"
"100","90","20","633.500783009","1","1","5","426","2","left","1","out","Female","Right-handed","1","no","left","d","750.584101472","599.673127676","29","green","0"
"100","90","20","625.242011968","1","1","5","427","1","left","1","out","Female","Right-handed","1","no","left","s","544.246909194","359.368731035","29","green","0"
"100","86","20","619.072352252","1","0","5","428","0","left","1","in","Female","Right-handed","1","no","left","d","471.786255264","494.893421724","29","red","0"
"100","87","20","623.402266661","1","1","5","429","2","right","2","out","Female","Right-handed","1","no","right","d","966.461911776","479.518684351","29","green","1"
"100","88","20","629.206651492","1","1","5","430","1","right","1","in","Female","Right-handed","1","no","right","s","969.954814518","567.068960376","29","green","2"
"100","88","20","635.550502053","1","1","5","431","0","left","1","in","Female","Right-handed","1","no","left","d","909.584138994","678.709393124","29","green","2"
"100","88","20","636.557831216","1","1","5","432","0","right","0","out","Female","Right-handed","1","no","right","s","726.390674645","599.106104255","29","green","1"
"100","89","20","633.482735177","1","1","5","433","3","right","2","in","Female","Right-handed","1","no","right","s","653.933548576","446.976735682","29","red","1"
"100","86","20","630.709481638","1","0","5","434","1","left","3","in","Female","Right-handed","1","no","left","d","538.551659265","567.565105867","29","green","1"
"100","86","20","628.74000533","1","1","5","435","3","left","0","in","Female","Right-handed","1","no","left","d","632.151895566","511.098489209","29","red","1"
"100","87","20","629.709188309","1","1","5","436","3","left","3","in","Female","Right-handed","1","no","left","d","862.768466184","454.800889147","29","green","0"
"100","87","20","627.78019973","1","1","5","437","2","left","2","out","Female","Right-handed","1","no","left","d","632.434124418","503.528983139","29","red","0"
"100","87","20","627.666867055","1","1","5","438","0","right","3","in","Female","Right-handed","1","no","right","d","457.096243565","790.984199353","29","red","0"
"100","85","20","625.943889018","1","0","5","439","2","right","2","out","Female","Right-handed","1","no","right","s","595.491009244","542.680218357","29","red","3"
"100","85","20","625.522023724","1","1","5","440","1","right","0","in","Female","Right-handed","1","no","right","s","591.246672186","631.110535251","29","green","1"
"100","86","20","625.682467313","1","1","5","441","1","left","2","out","Female","Right-handed","1","no","left","d","535.867598748","726.728387126","29","green","1"
"100","86","20","624.472323712","1","1","5","442","2","right","1","in","Female","Right-handed","1","no","right","d","594.377808859","567.43649931","29","green","3"
"100","84","20","628.369100579","1","0","5","443","3","left","1","in","Female","Right-handed","1","no","left","d","737.871936733","807.22775259","29","green","2"
"100","84","20","628.391216686","1","1","5","444","0","left","0","in","Female","Right-handed","1","no","left","s","699.658791734","558.804465756","29","red","3"
"100","85","20","630.213235923","1","1","5","445","0","left","1","in","Female","Right-handed","1","no","left","s","883.164632105","519.379340269","29","green","2"
"100","85","20","628.325171942","1","1","5","446","3","right","1","out","Female","Right-handed","1","no","right","s","730.902808402","374.702416939","29","green","2"
"100","85","20","624.968331342","1","1","5","447","3","right","1","out","Female","Right-handed","1","no","right","d","447.279810982","527.395922498","29","green","3"
"100","86","20","627.937604989","1","1","5","448","0","right","1","in","Female","Right-handed","1","no","right","d","738.179822754","767.114373561","29","red","2"
"100","84","20","633.466967576","1","0","5","449","0","left","3","out","Female","Right-handed","1","no","left","d","711.64774504","1030.81137267","29","green","1"
"100","84","20","634.330680916","1","1","5","450","3","left","0","out","Female","Right-handed","1","no","left","d","809.224200995","535.443934758","29","green","1"
"100","82","20","631.878873317","1","0","5","451","2","right","1","in","Female","Right-handed","1","no","right","s","548.054112253","495.040950445","29","green","3"
"100","82","20","629.083827079","1","1","5","452","1","right","1","in","Female","Right-handed","1","no","right","d","490.48904808","510.534352219","29","red","3"
"100","83","20","628.481246775","1","1","5","453","2","left","1","out","Female","Right-handed","1","no","left","d","601.150018425","599.169926463","29","red","0"
"100","83","20","631.314385379","1","1","5","454","0","left","2","out","Female","Right-handed","1","no","left","s","839.730574077","694.879502709","29","green","1"
"100","82","20","633.994808272","1","0","5","455","1","left","1","out","Female","Right-handed","1","no","left","s","939.280707702","591.390352325","29","green","2"
"100","80","20","639.296533395","1","0","5","456","1","right","0","in","Female","Right-handed","1","no","right","d","881.844570798","926.921008315","29","red","2"
"100","80","20","640.251160487","1","1","5","457","0","left","1","in","Female","Right-handed","1","no","left","d","883.377907318","494.496377047","29","red","3"
"100","81","20","642.3221641","1","1","5","458","3","right","1","out","Female","Right-handed","1","no","right","d","981.007281185","519.021422773","29","red","2"
"100","81","20","641.115010525","1","1","5","459","3","right","1","in","Female","Right-handed","1","no","right","d","587.50713991","566.764602215","29","red","0"
"100","81","20","639.791171642","1","1","5","460","1","left","3","in","Female","Right-handed","1","no","left","s","682.238857331","454.368886577","29","red","0"
"100","82","20","638.508413191","1","1","5","461","0","left","1","out","Female","Right-handed","1","no","left","d","488.976878722","646.936518075","29","red","0"
"100","82","20","635.141884056","1","1","5","462","2","right","1","out","Female","Right-handed","1","no","right","s","510.547501523","382.685003417","29","red","3"
"100","82","20","632.669551056","1","1","5","463","1","right","1","in","Female","Right-handed","1","no","right","s","577.227595441","406.265544636","29","green","3"
"100","83","20","630.266093699","1","1","5","464","3","right","2","out","Female","Right-handed","1","no","right","s","670.802174573","310.928959472","29","red","0"
"100","83","20","630.936961834","1","1","5","465","2","right","1","in","Female","Right-handed","1","no","right","d","630.521061808","710.515301773","29","red","0"
"100","83","20","630.520709549","1","1","5","466","2","right","3","out","Female","Right-handed","1","no","right","s","836.117724069","374.973420778","29","green","1"
"100","83","20","628.821657199","1","1","5","467","0","right","1","in","Female","Right-handed","1","no","right","s","475.593458319","574.765469428","29","green","0"
"100","84","20","627.503755911","1","1","5","468","1","left","2","in","Female","Right-handed","1","no","left","d","589.283898815","502.303853354","29","red","3"
"100","82","20","631.125656442","1","0","5","469","0","left","0","in","Female","Right-handed","1","no","left","s","1111.88706227","606.723717519","29","red","2"
"100","83","20","631.754433959","1","1","5","470","1","right","3","out","Female","Right-handed","1","no","right","d","689.501118813","654.491271271","29","red","2"
"100","83","20","632.728027767","1","1","5","471","3","left","1","in","Female","Right-handed","1","no","left","s","705.948967251","686.074283276","29","green","0"
"100","83","20","636.764420174","1","1","5","472","3","right","1","in","Female","Right-handed","1","no","right","s","1199.61757991","606.715058224","29","green","0"
"100","83","20","638.094616901","1","1","5","473","2","right","1","out","Female","Right-handed","1","no","right","s","696.158833263","758.276761953","29","red","2"
"100","84","20","638.952688242","1","1","5","474","3","left","3","in","Female","Right-handed","1","no","left","d","755.772301611","638.830777185","29","green","2"
"100","84","20","642.902695785","1","1","5","475","2","left","0","out","Female","Right-handed","1","no","left","s","1280.45241285","550.454019631","29","red","1"
"100","84","20","643.658801273","1","1","5","476","3","left","0","in","Female","Right-handed","1","no","left","d","826.06749054","567.104880411","29","green","2"
"100","83","20","644.220945119","1","0","5","477","1","right","0","out","Female","Right-handed","1","no","right","s","697.619046856","670.647269417","29","red","1"
"100","83","20","644.892863112","1","1","5","478","2","right","2","in","Female","Right-handed","1","no","right","d","883.322423691","503.219493545","29","green","1"
"100","82","20","643.724101916","1","0","5","479","0","right","2","out","Female","Right-handed","1","no","right","s","565.862111325","550.946957974","29","green","3"
"100","82","20","643.321051033","1","1","5","480","3","left","3","in","Female","Right-handed","1","no","left","s","852.441776671","374.548794643","29","green","1"
"100","82","20","642.648475205","1","1","5","481","2","right","3","in","Female","Right-handed","1","no","right","d","642.156908336","542.253667932","29","green","0"
"100","83","20","642.856788821","1","1","5","482","3","left","2","in","Female","Right-handed","1","no","left","s","758.681183062","558.696064225","29","red","1"
"100","83","20","641.05456496","1","1","5","483","2","right","1","in","Female","Right-handed","1","no","right","s","518.259084161","486.307571079","29","green","0"
"100","83","20","639.211944461","1","1","5","484","1","left","0","in","Female","Right-handed","1","no","left","s","511.915349307","479.059741752","29","green","3"
"100","83","20","637.754681471","1","1","5","485","0","right","2","out","Female","Right-handed","1","no","right","s","534.62835752","510.633453036","29","green","0"
"100","83","20","637.272826809","1","1","5","486","3","left","1","in","Female","Right-handed","1","no","left","s","695.148582265","502.300325494","29","red","0"
"100","84","20","639.741606658","1","1","5","487","0","left","2","in","Female","Right-handed","1","no","left","s","1040.661801","638.763747833","29","green","1"
"100","84","20","640.068950007","1","1","5","488","0","left","1","out","Female","Right-handed","1","no","left","s","823.299082083","510.52312721","29","red","3"
"100","84","20","638.593141026","1","1","5","489","1","right","2","in","Female","Right-handed","1","no","right","d","475.14542002","557.056571168","29","green","0"
"100","84","20","639.240788166","1","1","5","490","3","right","3","out","Female","Right-handed","1","no","right","s","876.581644156","510.704651678","29","green","1"
"100","84","20","639.898055717","1","1","5","491","2","right","1","out","Female","Right-handed","1","no","right","s","921.218702664","470.312892376","29","green","2"
"100","83","20","640.253575913","1","0","5","492","1","right","1","in","Female","Right-handed","1","no","right","s","766.738175331","574.918450297","29","red","2"
"100","84","20","639.938494447","1","1","5","493","2","right","0","out","Female","Right-handed","1","no","right","d","466.512424322","758.540389354","29","green","3"
"100","83","20","640.192916969","1","0","5","494","1","left","1","out","Female","Right-handed","1","no","left","s","679.140433549","646.023764308","29","red","0"
"100","82","20","641.085953188","1","0","5","495","1","left","1","out","Female","Right-handed","1","no","left","d","922.615735475","518.516617991","29","red","3"
"100","82","20","642.219521696","1","1","5","496","2","left","3","out","Female","Right-handed","1","no","left","s","946.273889629","542.207485032","29","green","1"
"100","81","20","639.954819121","1","0","5","497","0","right","1","out","Female","Right-handed","1","no","right","s","485.866267784","381.867501895","29","green","0"
"100","81","20","642.126542181","1","1","5","498","0","left","0","out","Female","Right-handed","1","no","left","s","517.509574133","1166.34055337","29","red","1"
"100","80","20","640.906462569","1","0","5","499","3","right","1","in","Female","Right-handed","1","no","right","d","464.812636925","590.065480301","29","red","3"
"100","80","20","642.230956275","1","0","5","500","1","left","1","in","Female","Right-handed","1","no","left","d","542.726080544","990.740648685","29","green","0"
"100","80","20","640.610325636","1","1","5","501","3","right","1","out","Female","Right-handed","1","no","right","d","399.038561761","574.262268215","29","red","3"
dis_reply=Yes
dis_loc=3
