"acc_1","acc_2","age","avg_rt","correct_1","correct_2","count_block_loop","count_trial_sequence","cue_position","detection","dis_position","dis_shape","gender","hand","high_loc","practice","response_keyboard_response_1","response_keyboard_response_2","response_time_keyboard_response_1","response_time_keyboard_response_2","subject_nr","tar_color","tar_position"
"100","0","19","2289.22196383","1","0","0","0","3","left","3","out","Female","Right-handed","1","yes","left","None","1578.33777045","3000.10615721","17","green","2"
"100","0","19","1952.14241937","1","0","0","1","2","right","2","out","Female","Right-handed","1","yes","right","s","1876.66840816","1353.45734164","17","red","1"
"100","33","19","1861.7995027","1","1","0","2","3","left","2","out","Female","Right-handed","1","yes","left","d","1896.05989962","1466.16743912","17","red","1"
"100","25","19","1742.01379434","1","0","0","3","1","right","1","out","Female","Right-handed","1","yes","right","d","923.683225585","1841.63011296","17","red","3"
"100","40","19","1623.72139087","1","1","0","4","0","right","0","out","Female","Right-handed","1","yes","right","d","1164.10622519","1136.99732875","17","red","2"
"100","50","19","1529.80064466","1","1","0","5","2","right","2","out","Female","Right-handed","1","yes","right","d","1158.71561959","961.678207648","17","green","3"
"100","42","19","1463.14095053","1","0","0","6","1","left","3","out","Female","Right-handed","1","yes","left","d","917.148944369","1209.21662712","17","green","0"
"100","50","19","1475.34464614","1","1","0","7","0","right","2","out","Female","Right-handed","1","yes","right","s","1415.74917649","1705.79185427","17","green","1"
"100","44","19","1426.33549892","1","0","0","8","0","left","2","in","Female","Right-handed","1","yes","left","d","915.28269407","1153.24194834","17","green","3"
"100","50","19","1458.28451224","1","1","0","9","2","left","1","out","Female","Right-handed","1","yes","left","s","1057.92784324","2433.72342101","17","red","0"
"100","54","19","1446.00624226","1","1","0","10","2","left","0","in","Female","Right-handed","1","yes","left","d","1781.15898665","865.288098168","17","green","2"
"100","58","19","1394.57209502","1","1","0","11","1","right","2","out","Female","Right-handed","1","yes","right","d","799.879859551","857.713091362","17","green","0"
"100","61","19","1356.63624817","1","1","0","12","2","left","1","in","Female","Right-handed","1","yes","left","s","809.43016024","993.382011715","17","green","0"
"92","64","19","1322.78939513","0","1","0","13","2","left","0","in","Female","Right-handed","1","yes","right","d","809.757291252","955.80331987","17","red","2"
"93","66","19","1290.64465225","1","1","0","14","1","left","1","in","Female","Right-handed","1","yes","left","s","775.759400916","905.477102933","17","red","0"
"93","68","19","1290.54788669","1","1","0","15","0","right","1","out","Female","Right-handed","1","yes","right","d","1521.16264921","1057.0301573","17","green","2"
"94","70","19","1270.32018786","1","1","0","16","0","right","1","in","Female","Right-handed","1","yes","right","d","899.736916122","993.617097032","17","red","2"
"94","72","19","1239.7947335","1","1","0","17","1","left","2","in","Female","Right-handed","1","yes","left","s","648.381006264","793.34301257","17","green","3"
"94","73","19","1227.58574136","1","1","0","18","3","right","2","in","Female","Right-handed","1","yes","right","d","693.788071076","1321.85969478","17","green","0"
"95","70","19","1207.18292267","1","0","0","19","2","left","1","in","Female","Right-handed","1","yes","left","d","949.533629871","689.525105234","17","green","3"
"95","71","19","1187.09282825","1","1","0","20","3","left","1","out","Female","Right-handed","1","yes","left","d","801.716924587","768.864954851","17","red","3"
"95","72","19","1192.13420815","1","1","0","21","0","right","2","in","Female","Right-handed","1","yes","right","d","530.498711189","2065.50766079","17","red","3"
"100","100","19","833.66110576","1","1","1","22","0","right","1","out","Female","Right-handed","1","no","right","d","913.160832657","754.161378864","17","green","0"
"100","100","19","929.407857613","1","1","1","23","0","left","1","in","Female","Right-handed","1","no","left","s","1136.66025552","913.648963411","17","green","2"
"100","100","19","1032.18225985","1","1","1","24","1","right","1","in","Female","Right-handed","1","no","right","s","546.247502818","1929.21462582","17","red","3"
"100","100","19","956.326729447","1","1","1","25","0","right","1","in","Female","Right-handed","1","no","right","s","607.82478092","849.695495563","17","green","0"
"100","100","19","883.517953873","1","1","1","26","2","left","1","out","Female","Right-handed","1","no","left","d","487.342435925","697.223267227","17","green","3"
"100","100","19","910.68821412","1","1","1","27","1","left","3","in","Female","Right-handed","1","no","left","d","731.040594081","1362.03843664","17","green","1"
"100","100","19","914.59885745","1","1","1","28","0","left","1","in","Female","Right-handed","1","no","left","d","1026.65059234","849.474842515","17","red","2"
"100","100","19","907.292800197","1","1","1","29","3","right","2","in","Female","Right-handed","1","no","right","s","679.047612619","1033.25318624","17","red","1"
"100","88","19","1013.8038767","1","0","1","30","3","left","1","out","Female","Right-handed","1","no","left","None","731.717947667","3000.06702979","17","green","2"
"100","90","19","1026.88944608","1","1","1","31","3","left","1","out","Female","Right-handed","1","no","left","s","584.147552756","1705.17158823","17","green","3"
"100","90","19","980.097781844","1","1","1","32","2","left","0","in","Female","Right-handed","1","no","left","s","542.629818898","481.732460088","17","green","3"
"100","91","19","955.35891348","1","1","1","33","2","left","0","out","Female","Right-handed","1","no","left","d","621.201231406","745.261491538","17","red","1"
"100","92","19","962.982673331","1","1","1","34","0","right","1","in","Female","Right-handed","1","no","right","s","515.996545233","1592.93903786","17","red","3"
"100","92","19","942.622025473","1","1","1","35","1","left","0","in","Female","Right-handed","1","no","left","d","618.423825159","737.443381484","17","green","3"
"100","93","19","936.956351853","1","1","1","36","1","left","1","in","Female","Right-handed","1","no","left","s","706.151377613","1009.12246472","17","red","2"
"100","93","19","967.659944206","1","1","1","37","2","right","1","out","Female","Right-handed","1","no","right","s","646.822644019","2209.605015","17","green","2"
"100","94","19","946.7515166","1","1","1","38","2","left","1","out","Female","Right-handed","1","no","left","d","479.18372479","745.249625004","17","red","3"
"100","94","19","946.007038378","1","1","1","39","1","right","1","in","Female","Right-handed","1","no","right","d","657.848241361","1208.85357584","17","red","0"
"100","89","19","937.607409488","1","0","1","40","0","right","1","in","Female","Right-handed","1","no","right","d","779.438341735","793.389837199","17","red","3"
"100","90","19","935.624741623","1","1","1","41","2","left","1","in","Female","Right-handed","1","no","left","s","562.940163567","1232.96794083","17","green","3"
"100","90","19","937.07452067","1","1","1","42","3","right","1","out","Female","Right-handed","1","no","right","s","418.562182313","1513.57802091","17","red","3"
"100","90","19","924.144714996","1","1","1","43","1","left","1","in","Female","Right-handed","1","no","left","d","552.13201209","753.105579584","17","green","3"
"100","86","19","918.393980366","1","0","1","44","3","right","1","out","Female","Right-handed","1","no","right","s","462.978553376","1120.77708365","17","red","3"
"100","87","19","905.68391839","1","1","1","45","3","right","2","in","Female","Right-handed","1","no","right","s","473.348926578","753.356059315","17","green","3"
"100","88","19","897.374562101","1","1","1","46","1","right","3","in","Female","Right-handed","1","no","right","d","570.953269314","824.946753011","17","green","0"
"100","84","19","925.420276364","1","0","1","47","1","left","2","in","Female","Right-handed","1","no","left","d","699.579893262","2553.5463726","17","green","0"
"100","85","19","940.30973556","1","1","1","48","1","right","0","in","Female","Right-handed","1","no","right","s","926.043700223","1728.82764909","17","green","2"
"100","82","19","934.267138835","1","0","1","49","1","right","1","out","Female","Right-handed","1","no","right","d","468.685706321","1073.54834821","17","green","0"
"100","82","19","936.678742092","1","1","1","50","0","left","0","in","Female","Right-handed","1","no","left","d","631.175840303","1377.23142625","17","red","2"
"100","83","19","929.500085044","1","1","1","51","1","right","1","out","Female","Right-handed","1","no","right","s","585.785132018","856.852929282","17","red","0"
"100","83","19","927.007345147","1","1","1","52","3","left","2","in","Female","Right-handed","1","no","left","s","727.23304588","977.217250591","17","green","0"
"100","84","19","918.894670275","1","1","1","53","2","left","1","in","Female","Right-handed","1","no","left","s","605.936401233","728.867097263","17","red","2"
"100","81","19","917.900495246","1","0","1","54","0","left","2","in","Female","Right-handed","1","no","left","s","650.582405418","1121.59138324","17","red","1"
"100","82","19","919.85894353","1","1","1","55","0","left","3","in","Female","Right-handed","1","no","left","s","847.955286939","1121.02018687","17","red","0"
"100","82","19","912.635517107","1","1","1","56","2","right","0","out","Female","Right-handed","1","no","right","s","637.508711457","696.569325955","17","red","2"
"100","83","19","917.750724615","1","1","1","57","0","right","1","out","Female","Right-handed","1","no","right","d","528.275824036","1665.29015076","17","green","0"
"100","83","19","910.575535669","1","1","1","58","2","right","2","out","Female","Right-handed","1","no","right","d","447.745794838","856.791672384","17","green","0"
"100","84","19","909.637688414","1","1","1","59","2","right","1","in","Female","Right-handed","1","no","right","s","660.394090228","1089.48058973","17","green","3"
"100","82","19","906.415852915","1","0","1","60","0","right","2","out","Female","Right-handed","1","no","right","s","478.946073737","1089.02613423","17","green","3"
"100","82","19","906.3317166","1","1","1","61","3","left","2","out","Female","Right-handed","1","no","left","s","965.508847468","840.591953165","17","red","1"
"100","82","19","904.66982388","1","1","1","62","2","right","2","in","Female","Right-handed","1","no","right","d","371.18495506","1305.20327503","17","green","3"
"100","83","19","903.742861935","1","1","1","63","2","left","1","in","Female","Right-handed","1","no","left","d","778.793701262","952.681143157","17","red","0"
"100","81","19","901.966404094","1","0","1","64","0","left","1","out","Female","Right-handed","1","no","left","s","709.348922741","945.361426828","17","red","2"
"100","81","19","912.940952243","1","1","1","65","3","right","3","out","Female","Right-handed","1","no","right","s","840.794004645","1928.89904065","17","green","1"
"100","82","19","913.850188187","1","1","1","66","2","right","2","out","Female","Right-handed","1","no","right","d","714.370062749","1193.34307671","17","green","1"
"100","82","19","924.330613084","1","1","1","67","3","right","1","in","Female","Right-handed","1","no","right","s","478.960826702","2312.93864016","17","red","0"
"100","80","19","919.089583799","1","0","1","68","1","left","2","out","Female","Right-handed","1","no","left","d","587.54618722","768.458286126","17","green","3"
"100","79","19","921.87814202","1","0","1","69","1","left","1","out","Female","Right-handed","1","no","left","d","641.057762026","1464.82299487","17","green","2"
"100","79","19","917.864855929","1","1","1","70","2","right","3","out","Female","Right-handed","1","no","right","d","561.734910356","888.719336683","17","red","1"
"100","80","19","916.651974636","1","1","1","71","1","right","1","out","Female","Right-handed","1","no","right","d","457.146320899","1257.29526169","17","red","3"
"100","78","19","911.898652252","1","0","1","72","1","left","1","out","Female","Right-handed","1","no","left","d","523.695348675","824.769717437","17","red","2"
"100","76","19","912.792258299","1","0","1","73","0","left","1","in","Female","Right-handed","1","no","left","s","667.39148632","1249.34084711","17","green","0"
"100","75","19","917.265152699","1","0","1","74","1","right","0","out","Female","Right-handed","1","no","right","d","842.865834275","1456.84548866","17","red","1"
"100","75","19","921.70434737","1","1","1","75","3","right","1","in","Female","Right-handed","1","no","right","d","537.455055572","1776.50827434","17","green","0"
"100","76","19","918.600825752","1","1","1","76","3","right","1","out","Female","Right-handed","1","no","right","d","653.158722329","848.862594401","17","green","2"
"100","76","19","915.268926189","1","1","1","77","0","left","0","out","Female","Right-handed","1","no","left","d","655.510858342","808.518042089","17","red","1"
"100","75","19","916.125092979","1","0","1","78","3","left","3","out","Female","Right-handed","1","no","left","s","607.081039023","1321.05982743","17","green","1"
"100","75","19","916.377222645","1","1","1","79","0","left","1","in","Female","Right-handed","1","no","left","d","876.722929999","984.774297249","17","red","3"
"100","76","19","922.003227464","1","1","1","80","0","right","3","in","Female","Right-handed","1","no","right","s","696.318204806","1800.30480912","17","red","1"
"100","76","19","922.468080942","1","1","1","81","3","right","0","in","Female","Right-handed","1","no","right","d","522.889387707","1376.89948452","17","green","3"
"100","77","19","921.27980648","1","1","1","82","2","right","2","out","Female","Right-handed","1","no","right","d","619.426706136","1080.53997142","17","red","1"
"100","77","19","917.97766585","1","1","1","83","0","left","2","in","Female","Right-handed","1","no","left","d","528.041380137","905.052794784","17","green","1"
"100","77","19","914.209670329","1","1","1","84","1","right","1","in","Female","Right-handed","1","no","right","d","664.573028305","696.614867717","17","red","0"
"100","76","19","926.725491214","1","0","1","85","0","right","3","out","Female","Right-handed","1","no","right","d","622.21982755","2808.22458633","17","red","1"
"100","76","19","928.215990632","1","1","1","86","3","left","1","out","Female","Right-handed","1","no","left","s","782.563404879","1264.65250188","17","red","2"
"100","77","19","932.238670516","1","1","1","87","3","left","3","out","Female","Right-handed","1","no","left","s","611.3292519","1776.09647415","17","green","2"
"100","76","19","931.701915175","1","0","1","88","0","right","0","in","Female","Right-handed","1","no","right","d","551.744907105","1240.80721819","17","green","1"
"100","75","19","942.115498314","1","0","1","89","1","left","0","out","Female","Right-handed","1","no","left","s","559.304840222","2720.34629702","17","green","1"
"100","73","19","938.183948324","1","0","1","90","1","right","1","out","Female","Right-handed","1","no","right","d","540.844709962","800.83238802","17","red","2"
"100","74","19","936.087256282","1","1","1","91","0","left","1","in","Female","Right-handed","1","no","left","s","646.398335841","936.432674993","17","red","3"
"100","74","19","934.345204787","1","1","1","92","2","left","1","out","Female","Right-handed","1","no","left","d","663.897599035","960.905601212","17","red","0"
"100","75","19","933.217149714","1","1","1","93","3","left","3","in","Female","Right-handed","1","no","left","s","537.709383876","1168.54109519","17","red","0"
"100","75","19","930.709747596","1","1","1","94","2","left","3","out","Female","Right-handed","1","no","left","s","524.133447645","976.220142475","17","red","1"
"100","75","19","932.683889463","1","1","1","95","0","right","1","out","Female","Right-handed","1","no","right","s","800.782035512","1352.81045613","17","green","2"
"100","76","19","929.753130488","1","1","1","96","1","right","3","out","Female","Right-handed","1","no","right","d","633.307002485","792.446930194","17","red","2"
"100","76","19","930.54522018","1","1","1","97","1","left","1","out","Female","Right-handed","1","no","left","s","602.884461521","1377.01943255","17","red","3"
"100","76","19","927.103141883","1","1","1","98","0","left","3","out","Female","Right-handed","1","no","left","d","586.42111317","744.589269394","17","green","2"
"100","76","19","933.833340475","1","1","1","99","3","right","0","in","Female","Right-handed","1","no","right","s","824.114813993","2080.00245027","17","green","1"
"100","77","19","933.025714092","1","1","1","100","2","left","1","in","Female","Right-handed","1","no","left","d","635.459973448","1104.60173886","17","red","0"
"100","76","19","939.844268409","1","0","1","101","3","right","0","in","Female","Right-handed","1","no","right","s","788.827642711","2168.19247618","17","red","1"
"100","75","19","936.849218629","1","0","1","102","2","right","1","in","Female","Right-handed","1","no","right","d","521.663929336","872.826543258","17","red","2"
"100","75","19","934.597557733","1","1","1","103","3","right","0","in","Female","Right-handed","1","no","right","d","520.232250157","984.193800075","17","red","2"
"98","74","19","933.64956537","0","0","1","104","3","left","1","in","Female","Right-handed","1","no","right","s","476.94223604","1234.8861472","17","green","0"
"98","75","19","933.425778765","1","1","1","105","2","right","1","in","Female","Right-handed","1","no","right","d","565.409040428","1264.29394068","17","red","0"
"98","75","19","934.326947506","1","1","1","106","0","right","0","out","Female","Right-handed","1","no","right","d","612.001153291","1408.04909018","17","green","3"
"98","74","19","931.447056194","1","0","1","107","1","left","2","out","Female","Right-handed","1","no","left","s","516.697952582","856.61463681","17","green","1"
"98","74","19","930.856840749","1","1","1","108","3","left","1","in","Female","Right-handed","1","no","left","d","568.087665975","1192.10895899","17","green","2"
"98","75","19","930.514335568","1","1","1","109","0","left","2","out","Female","Right-handed","1","no","left","s","520.687667828","1280.74510177","17","red","0"
"98","74","19","929.326240637","1","0","1","110","3","left","1","out","Female","Right-handed","1","no","left","d","529.319756781","1120.22801672","17","red","3"
"98","74","19","927.482695287","1","1","1","111","2","right","0","out","Female","Right-handed","1","no","right","s","686.913509446","839.900808758","17","red","1"
"98","74","19","925.982959647","1","1","1","112","3","left","1","out","Female","Right-handed","1","no","left","d","637.455793214","944.557710871","17","green","0"
"98","75","19","927.896867311","1","1","1","113","2","left","3","in","Female","Right-handed","1","no","left","s","548.007595848","1656.11733354","17","red","0"
"98","75","19","925.6519086","1","1","1","114","2","right","1","in","Female","Right-handed","1","no","right","d","717.592303059","720.639111329","17","green","2"
"98","75","19","925.893348922","1","1","1","115","1","right","3","in","Female","Right-handed","1","no","right","d","584.314646141","1312.37995173","17","green","1"
"98","75","19","924.082647805","1","1","1","116","1","left","2","out","Female","Right-handed","1","no","left","d","474.849559832","1032.90392581","17","green","1"
"98","75","19","929.799202105","1","0","1","117","2","right","3","out","Female","Right-handed","1","no","right","d","601.345662959","2344.39805814","17","green","2"
"100","100","19","1914.72544889","1","1","2","118","0","right","1","out","Female","Right-handed","1","no","right","s","1316.26543408","2513.1854637","17","green","2"
"100","100","19","1282.03815117","1","1","2","119","0","left","2","in","Female","Right-handed","1","no","left","s","473.892541311","824.809165584","17","green","1"
"100","100","19","1128.14474712","1","1","2","120","2","left","1","in","Female","Right-handed","1","no","left","d","631.335236452","1009.3806416","17","red","3"
"100","100","19","1096.2322768","1","1","2","121","1","left","1","out","Female","Right-handed","1","no","left","s","504.006232164","1496.98349947","17","green","2"
"100","100","19","1116.30305415","1","1","2","122","1","left","1","out","Female","Right-handed","1","no","left","s","560.63389004","1832.5384371","17","red","0"
"100","100","19","1109.26410386","1","1","2","123","0","right","1","in","Female","Right-handed","1","no","right","s","467.04395776","1681.09474707","17","green","3"
"100","100","19","1054.73822442","1","1","2","124","1","left","1","out","Female","Right-handed","1","no","left","s","502.498863876","952.667031641","17","green","2"
"100","100","19","1009.30184553","1","1","2","125","1","left","1","in","Female","Right-handed","1","no","left","s","725.211568759","657.282817876","17","red","2"
"100","100","19","949.919558914","1","1","2","126","3","right","1","in","Female","Right-handed","1","no","right","s","388.867668138","560.854863841","17","green","3"
"100","90","19","913.640688936","1","0","2","127","0","left","1","in","Female","Right-handed","1","no","left","d","437.633598543","736.628119717","17","green","3"
"100","90","19","902.045565846","1","1","2","128","1","left","1","out","Female","Right-handed","1","no","left","s","723.125627614","849.063042289","17","red","2"
"100","91","19","885.428195761","1","1","2","129","2","left","2","in","Female","Right-handed","1","no","left","s","564.49916726","840.775082383","17","red","0"
"100","92","19","865.493652881","1","1","2","130","0","left","1","out","Female","Right-handed","1","no","left","s","507.443352632","745.114924008","17","red","2"
"100","92","19","846.491467401","1","1","2","131","2","left","1","out","Female","Right-handed","1","no","left","d","517.961576203","680.964536121","17","green","2"
"100","86","19","836.726558365","1","0","2","132","0","right","0","out","Female","Right-handed","1","no","right","s","487.472326175","912.563337537","17","green","2"
"100","87","19","864.125450166","1","1","2","133","3","left","1","out","Female","Right-handed","1","no","left","s","709.07535142","1841.14230296","17","green","0"
"100","88","19","839.776295224","1","1","2","134","1","right","0","out","Female","Right-handed","1","no","right","d","395.63126181","504.748370498","17","red","3"
"100","88","19","839.555717625","1","1","2","135","1","right","0","out","Female","Right-handed","1","no","right","d","534.363026236","1137.24877062","17","red","1"
"100","84","19","832.41356015","1","0","2","136","0","left","1","in","Female","Right-handed","1","no","left","s","478.862687392","928.846763825","17","green","3"
"100","85","19","818.288939733","1","1","2","137","2","left","1","out","Female","Right-handed","1","no","left","d","499.432491866","600.409811741","17","red","3"
"100","80","19","844.56264686","1","0","2","138","0","right","3","in","Female","Right-handed","1","no","right","s","475.057063508","2265.0165153","17","red","2"
"100","81","19","828.605029473","1","1","2","139","2","right","1","out","Female","Right-handed","1","no","right","d","442.374752922","544.615375751","17","red","2"
"100","82","19","833.609825955","1","1","2","140","0","left","1","out","Female","Right-handed","1","no","left","s","654.277061345","1233.15363578","17","green","0"
"100","83","19","834.867882375","1","1","2","141","2","left","3","out","Female","Right-handed","1","no","left","s","726.766723848","1000.83963622","17","red","0"
"100","84","19","828.927084105","1","1","2","142","2","left","0","out","Female","Right-handed","1","no","left","s","572.309900803","800.385950424","17","red","2"
"100","80","19","822.273690667","1","0","2","143","3","right","3","out","Female","Right-handed","1","no","right","s","486.925183533","824.952525902","17","green","2"
"100","81","19","810.751085278","1","1","2","144","2","left","1","in","Female","Right-handed","1","no","left","s","477.661282814","544.665407535","17","green","2"
"100","78","19","809.462707272","1","0","2","145","1","right","1","out","Female","Right-handed","1","no","right","s","476.142689411","1073.21031284","17","red","3"
"100","79","19","801.319639572","1","1","2","146","2","right","1","in","Female","Right-handed","1","no","right","s","465.851212473","680.776275432","17","green","3"
"100","80","19","796.619496729","1","1","2","147","3","right","0","in","Female","Right-handed","1","no","right","s","760.420164472","560.210544092","17","green","1"
"100","80","19","787.579672097","1","1","2","148","1","left","2","in","Female","Right-handed","1","no","left","s","431.832154864","600.937711395","17","green","1"
"100","81","19","783.09877119","1","1","2","149","1","left","0","out","Female","Right-handed","1","no","left","d","487.689772068","800.691914133","17","red","1"
"100","78","19","776.845313525","1","0","2","150","3","right","0","out","Female","Right-handed","1","no","right","s","473.106785503","680.362550949","17","green","3"
"100","79","19","775.930578729","1","1","2","151","2","right","1","in","Female","Right-handed","1","no","right","d","394.756988186","1096.73167273","17","red","3"
"100","80","19","772.057414331","1","1","2","152","0","left","2","out","Female","Right-handed","1","no","left","s","488.299133722","792.440515885","17","green","0"
"100","80","19","767.876149775","1","1","2","153","1","left","2","out","Female","Right-handed","1","no","left","d","498.147380218","744.916400407","17","red","1"
"100","81","19","771.597434819","1","1","2","154","3","left","1","in","Female","Right-handed","1","no","left","s","498.42961086","1312.69778195","17","red","0"
"100","81","19","774.889765042","1","1","2","155","0","left","3","in","Female","Right-handed","1","no","left","d","601.20134044","1192.21062618","17","red","1"
"100","82","19","795.912582112","1","1","2","156","2","left","2","in","Female","Right-handed","1","no","left","s","468.82425595","2720.7350056","17","green","1"
"100","80","19","794.024876228","1","0","2","157","1","left","1","in","Female","Right-handed","1","no","left","d","672.539309424","768.269384018","17","red","0"
"100","80","19","795.191060185","1","1","2","158","2","right","0","in","Female","Right-handed","1","no","right","d","554.849765089","1128.82707184","17","red","1"
"100","78","19","792.815426019","1","0","2","159","0","right","1","in","Female","Right-handed","1","no","right","d","398.420534591","992.408315913","17","green","0"
"100","79","19","794.483615261","1","1","2","160","0","right","1","out","Female","Right-handed","1","no","right","s","665.107662993","1063.98746383","17","red","2"
"97","79","19","791.476412441","0","1","2","161","3","right","1","out","Female","Right-handed","1","no","left","s","512.633189617","811.700192775","17","green","2"
"97","80","19","792.749055998","1","1","2","162","0","right","0","in","Female","Right-handed","1","no","right","s","761.189884477","936.300860456","17","red","1"
"97","78","19","792.251523129","1","0","2","163","1","right","2","out","Female","Right-handed","1","no","right","s","466.890334472","1072.83475364","17","red","0"
"97","78","19","791.381581116","1","1","2","164","0","left","1","in","Female","Right-handed","1","no","left","s","542.378056329","960.35044067","17","green","0"
"97","79","19","801.038451817","1","1","2","165","1","right","3","out","Female","Right-handed","1","no","right","d","741.961637803","1767.86111173","17","green","2"
"97","79","19","799.896258633","1","1","2","166","1","right","1","in","Female","Right-handed","1","no","right","s","473.598123412","1016.54384821","17","red","3"
"98","80","19","796.76954295","1","1","2","167","3","right","2","in","Female","Right-handed","1","no","right","s","439.039299643","848.081649339","17","green","0"
"98","80","19","815.20686473","1","1","2","168","3","right","2","out","Female","Right-handed","1","no","right","s","521.568676486","2952.57723096","17","green","1"
"98","80","19","811.071970521","1","1","2","169","1","right","1","out","Female","Right-handed","1","no","right","s","408.145625872","792.239105824","17","red","0"
"98","79","19","807.962306667","1","0","2","170","3","left","2","in","Female","Right-handed","1","no","left","s","427.706776449","864.812796091","17","green","1"
"98","79","19","807.202946379","1","1","2","171","2","left","1","out","Female","Right-handed","1","no","left","s","613.467149175","920.446553035","17","green","0"
"98","80","19","804.954302687","1","1","2","172","2","left","3","in","Female","Right-handed","1","no","left","s","607.007594896","760.047491727","17","red","1"
"98","80","19","802.276973176","1","1","2","173","1","left","1","out","Female","Right-handed","1","no","left","d","565.327899123","744.719801063","17","green","0"
"98","80","19","799.615619957","1","1","2","174","0","left","1","out","Female","Right-handed","1","no","left","s","492.863893916","808.29578542","17","red","2"
"98","81","19","798.642830495","1","1","2","175","2","right","3","out","Female","Right-handed","1","no","right","s","558.898171497","927.489490918","17","red","2"
"98","81","19","794.317224752","1","1","2","176","0","right","1","out","Female","Right-handed","1","no","right","d","406.535628252","680.328554969","17","red","0"
"98","81","19","790.488909564","1","1","2","177","0","right","0","in","Female","Right-handed","1","no","right","s","489.11086758","640.125759412","17","green","1"
"98","81","19","786.672508231","1","1","2","178","3","right","3","in","Female","Right-handed","1","no","right","d","418.636267859","696.740588639","17","red","1"
"98","82","19","783.48226846","1","1","2","179","2","right","0","in","Female","Right-handed","1","no","right","s","433.428361692","744.326923159","17","green","3"
"98","82","19","782.157229958","1","1","2","180","3","left","0","in","Female","Right-handed","1","no","left","d","679.94690215","720.062783483","17","green","2"
"98","82","19","779.33665702","1","1","2","181","2","right","2","in","Female","Right-handed","1","no","right","s","442.670774384","760.610349476","17","green","1"
"98","83","19","778.903983377","1","1","2","182","2","left","1","in","Female","Right-handed","1","no","left","d","558.190991258","944.234749186","17","green","0"
"98","83","19","776.727984679","1","1","2","183","3","right","3","out","Female","Right-handed","1","no","right","d","430.71477802","839.861360582","17","green","1"
"98","83","19","776.505974264","1","1","2","184","3","left","1","out","Female","Right-handed","1","no","left","d","555.408453511","968.29812025","17","green","0"
"98","83","19","775.455663383","1","1","2","185","1","right","3","in","Female","Right-handed","1","no","right","d","658.128547744","752.041121013","17","green","1"
"98","84","19","776.717953304","1","1","2","186","3","right","1","out","Female","Right-handed","1","no","right","d","940.617385961","784.489949845","17","red","2"
"98","84","19","777.453160591","1","1","2","187","2","left","1","in","Female","Right-handed","1","no","left","s","752.171331958","904.193594848","17","red","2"
"98","84","19","775.690860162","1","1","2","188","3","right","1","out","Female","Right-handed","1","no","right","d","472.860795824","831.79886447","17","green","2"
"98","84","19","773.825960537","1","1","2","189","0","left","2","in","Female","Right-handed","1","no","left","d","450.40453595","832.431638439","17","red","1"
"98","84","19","772.218150804","1","1","2","190","2","right","3","in","Female","Right-handed","1","no","right","s","617.025179788","695.886520174","17","red","1"
"98","83","19","774.865223373","1","0","2","191","2","right","1","in","Female","Right-handed","1","no","right","d","512.545633974","1423.6574079","17","red","0"
"98","84","19","772.603114949","1","1","2","192","1","left","3","out","Female","Right-handed","1","no","left","d","538.244018564","672.170164558","17","red","1"
"98","84","19","771.697982284","1","1","2","193","0","right","1","out","Female","Right-handed","1","no","right","d","447.765358549","959.860706353","17","green","3"
"98","83","19","773.648602141","1","0","2","194","0","right","3","out","Female","Right-handed","1","no","right","s","475.434867723","1368.35655483","17","green","0"
"98","83","19","771.703774282","1","1","2","195","0","left","3","out","Female","Right-handed","1","no","left","s","515.886860143","728.017198096","17","green","1"
"98","83","19","772.125955191","1","1","2","196","3","left","0","out","Female","Right-handed","1","no","left","d","553.548296884","1056.5638353","17","green","1"
"98","83","19","770.194974882","1","1","2","197","3","left","1","in","Female","Right-handed","1","no","left","s","563.128424255","672.166636679","17","red","0"
"98","83","19","770.06601303","1","1","2","198","0","right","2","out","Female","Right-handed","1","no","right","d","607.774749136","911.723380617","17","green","3"
"98","82","19","778.045168122","1","0","2","199","3","right","1","out","Female","Right-handed","1","no","right","s","696.425003436","2152.2884577","17","red","2"
"98","83","19","778.5195001","1","1","2","200","1","left","0","out","Female","Right-handed","1","no","left","d","795.020039979","839.809404511","17","red","2"
"98","83","19","780.816318054","1","1","2","201","1","left","3","in","Female","Right-handed","1","no","left","d","654.474622803","1288.4297937","17","green","0"
"98","83","19","779.512655563","1","1","2","202","2","right","1","in","Female","Right-handed","1","no","right","d","403.988817241","936.021195521","17","red","0"
"98","83","19","777.596699037","1","1","2","203","1","right","1","in","Female","Right-handed","1","no","right","d","541.716097126","687.764691451","17","green","3"
"98","83","19","775.156136574","1","1","2","204","3","right","1","in","Female","Right-handed","1","no","right","d","466.293480771","664.242048719","17","red","3"
"98","84","19","774.81184173","1","1","2","205","2","left","0","out","Female","Right-handed","1","no","left","d","481.928738678","1007.78764195","17","red","1"
"98","84","19","773.386811142","1","1","2","206","0","left","0","in","Female","Right-handed","1","no","left","d","432.508546306","863.459692482","17","green","3"
"98","84","19","771.038795561","1","1","2","207","1","right","2","in","Female","Right-handed","1","no","right","d","484.054127999","640.076689771","17","green","3"
"98","84","19","768.952605679","1","1","2","208","1","left","1","out","Female","Right-handed","1","no","left","d","434.690702474","727.700330026","17","green","3"
"98","83","19","767.364457574","1","0","2","209","3","right","1","out","Female","Right-handed","1","no","right","d","461.309864593","784.376095427","17","red","3"
"98","83","19","765.322742813","1","1","2","210","3","left","1","in","Female","Right-handed","1","no","left","d","458.971840126","695.99812958","17","red","3"
"98","84","19","763.411964733","1","1","2","211","2","right","2","in","Female","Right-handed","1","no","right","s","459.710771305","711.708435207","17","red","3"
"98","84","19","762.472695407","1","1","2","212","3","left","3","in","Female","Right-handed","1","no","left","s","596.160315996","752.202441479","17","red","0"
"98","84","19","760.517137842","1","1","2","213","3","right","2","in","Female","Right-handed","1","no","right","d","469.74439203","679.733946279","17","red","3"
"100","100","19","1206.54730235","1","1","3","214","2","left","1","in","Female","Right-handed","1","no","left","s","949.110283895","1463.98432081","17","red","2"
"100","50","19","1052.10940159","1","0","3","215","3","left","3","in","Female","Right-handed","1","no","left","d","986.667166988","808.675834647","17","red","0"
"100","66","19","963.654677529","1","1","3","216","3","right","1","in","Female","Right-handed","1","no","right","d","709.195940872","864.29451796","17","green","2"
"100","75","19","895.84465864","1","1","3","217","0","right","1","out","Female","Right-handed","1","no","right","s","519.865029608","864.96417434","17","green","0"
"100","80","19","828.055363396","1","1","3","218","1","right","0","in","Female","Right-handed","1","no","right","s","497.42801275","616.368352086","17","green","1"
"100","83","19","797.294669447","1","1","3","219","1","right","1","in","Female","Right-handed","1","no","right","s","518.025719561","768.956679851","17","green","2"
"100","85","19","770.426226491","1","1","3","220","2","left","1","in","Female","Right-handed","1","no","left","s","585.736383102","632.6947544","17","green","3"
"100","87","19","751.853120915","1","1","3","221","3","left","0","in","Female","Right-handed","1","no","left","s","459.306347591","784.376416181","17","green","1"
"100","88","19","745.196706759","1","1","3","222","1","left","1","out","Female","Right-handed","1","no","left","d","630.813109747","753.077677276","17","red","2"
"100","90","19","748.281760496","1","1","3","223","3","left","1","out","Female","Right-handed","1","no","left","d","807.630939787","744.463548472","17","green","0"
"100","90","19","741.852637871","1","1","3","224","3","right","3","in","Female","Right-handed","1","no","right","d","563.169475965","791.953347274","17","green","2"
"100","83","19","746.171257784","1","0","3","225","0","right","2","in","Female","Right-handed","1","no","right","d","458.668442152","1128.68371149","17","green","0"
"100","84","19","764.49322907","1","1","3","226","2","right","1","in","Female","Right-handed","1","no","right","s","416.393816966","1552.31995205","17","red","0"
"100","85","19","755.913442516","1","1","3","227","2","right","1","out","Female","Right-handed","1","no","right","d","471.776132064","816.976302565","17","green","0"
"100","80","19","757.382689065","1","0","3","228","2","left","0","in","Female","Right-handed","1","no","left","d","379.518777481","1176.38550402","17","red","2"
"100","81","19","742.016330013","1","1","3","229","0","left","1","out","Female","Right-handed","1","no","left","s","454.972182633","568.069705827","17","green","2"
"100","82","19","734.203379153","1","1","3","230","0","left","0","out","Female","Right-handed","1","no","left","d","657.630154048","560.762176727","17","red","1"
"100","83","19","731.707230378","1","1","3","231","3","left","0","in","Female","Right-handed","1","no","left","d","658.231177047","720.314225357","17","green","3"
"100","78","19","732.851647295","1","0","3","232","3","right","3","out","Female","Right-handed","1","no","right","s","642.953197501","863.949106104","17","red","1"
"95","80","19","728.376889865","0","1","3","233","3","right","2","out","Female","Right-handed","1","no","left","d","731.391458103","555.321539316","17","green","1"
"95","80","19","719.147954493","1","1","3","234","3","right","1","out","Female","Right-handed","1","no","right","d","437.065609323","632.072884764","17","red","3"
"95","77","19","711.127755822","1","0","3","235","2","right","1","out","Female","Right-handed","1","no","right","d","524.709134042","560.698033398","17","green","2"
"95","78","19","703.049162059","1","1","3","236","0","right","0","out","Female","Right-handed","1","no","right","s","530.231233512","520.408965065","17","green","1"
"95","79","19","702.772981729","1","1","3","237","0","right","1","in","Female","Right-handed","1","no","right","d","400.87978993","991.961878346","17","green","0"
"96","80","19","696.681717901","1","1","3","238","2","left","3","in","Female","Right-handed","1","no","left","d","404.448724934","696.534047107","17","green","0"
"92","80","19","695.27962558","0","1","3","239","1","right","3","in","Female","Right-handed","1","no","left","s","668.175638566","652.278996567","17","red","1"
"92","81","19","692.891810549","1","1","3","240","1","left","0","in","Female","Right-handed","1","no","left","d","492.722137191","768.895102257","17","green","3"
"92","78","19","694.945726496","1","0","3","241","1","left","3","in","Female","Right-handed","1","no","left","d","660.46208216","840.340831986","17","red","1"
"93","79","19","692.755960623","1","1","3","242","0","right","0","out","Female","Right-handed","1","no","right","d","486.969763151","775.915269216","17","green","3"
"93","80","19","688.431632457","1","1","3","243","2","left","2","out","Female","Right-handed","1","no","left","d","429.630434985","696.421796281","17","green","1"
"93","77","19","718.11380904","1","0","3","244","2","right","3","out","Female","Right-handed","1","no","right","d","2233.20976121","983.948451845","17","green","1"
"93","78","19","760.23862382","1","1","3","245","1","right","0","in","Female","Right-handed","1","no","right","d","2107.69954108","2024.51622297","17","red","1"
"93","78","19","766.687191562","1","1","3","246","2","left","0","out","Female","Right-handed","1","no","left","d","426.047709159","1520.03500942","17","green","1"
"94","79","19","759.18348104","1","1","3","247","2","right","2","out","Female","Right-handed","1","no","right","d","470.498076174","552.623991476","17","red","3"
"94","80","19","758.901305359","1","1","3","248","0","right","1","out","Female","Right-handed","1","no","right","d","522.323643527","976.291020866","17","red","3"
"94","80","19","763.385853717","1","1","3","249","0","left","2","out","Female","Right-handed","1","no","left","d","568.837180821","1271.85291165","17","green","1"
"94","81","19","758.241254498","1","1","3","250","1","right","1","in","Female","Right-handed","1","no","right","d","433.620791679","712.45057357","17","red","3"
"94","78","19","758.762764082","1","0","3","251","1","right","1","in","Female","Right-handed","1","no","right","d","860.021930624","696.095306717","17","red","2"
"94","79","19","757.56610281","1","1","3","252","2","left","3","in","Female","Right-handed","1","no","left","s","456.575765944","967.610182997","17","red","2"
"95","80","19","756.245371659","1","1","3","253","3","right","1","out","Female","Right-handed","1","no","right","s","377.266705094","1032.20700851","17","red","2"
"95","80","19","762.526545466","1","1","3","254","0","left","1","out","Female","Right-handed","1","no","left","s","739.846832148","1287.70016329","17","red","3"
"95","80","19","755.883646411","1","1","3","255","1","left","2","in","Female","Right-handed","1","no","left","d","342.553616618","624.4959537","17","red","3"
"95","81","19","756.469144065","1","1","3","256","0","right","3","out","Female","Right-handed","1","no","right","d","777.99255104","784.127540042","17","red","1"
"95","79","19","753.203321653","1","0","3","257","1","right","1","out","Female","Right-handed","1","no","right","d","473.768744676","751.777171216","17","red","3"
"95","80","19","748.324944991","1","1","3","258","2","right","1","in","Female","Right-handed","1","no","right","s","427.176311088","640.176432644","17","red","0"
"95","80","19","748.911515544","1","1","3","259","0","left","1","in","Female","Right-handed","1","no","left","d","486.776050297","1063.83833059","17","red","3"
"95","80","19","746.326212832","1","1","3","260","1","left","0","out","Female","Right-handed","1","no","left","d","511.442047951","743.362528156","17","green","2"
"95","79","19","745.497161472","1","0","3","261","3","left","1","out","Female","Right-handed","1","no","left","d","573.049152707","840.014342451","17","red","0"
"95","79","19","742.776238481","1","1","3","262","1","left","2","in","Female","Right-handed","1","no","left","d","568.712742737","655.631127069","17","red","1"
"96","80","19","744.975001742","1","1","3","263","2","left","1","out","Female","Right-handed","1","no","left","d","649.241489067","1056.18731392","17","red","0"
"96","80","19","742.404707866","1","1","3","264","1","right","1","in","Female","Right-handed","1","no","right","s","491.839204216","735.940823942","17","red","3"
"96","80","19","741.723058526","1","1","3","265","1","right","3","out","Female","Right-handed","1","no","right","s","670.399167167","743.51871718","17","red","2"
"96","81","19","759.503522986","1","1","3","266","0","right","1","out","Female","Right-handed","1","no","right","s","1312.10990832","2056.06544157","17","red","0"
"96","79","19","760.358797727","1","0","3","267","0","left","1","out","Female","Right-handed","1","no","left","d","627.706327447","983.670390531","17","red","2"
"96","78","19","762.692832716","1","0","3","268","3","left","2","in","Female","Right-handed","1","no","left","s","385.175257223","1392.28618704","17","red","3"
"96","78","19","764.479094407","1","1","3","269","3","left","1","in","Female","Right-handed","1","no","left","s","565.672028082","1159.77494669","17","green","3"
"96","77","19","769.441189875","1","0","3","270","3","right","1","out","Female","Right-handed","1","no","right","d","1183.3540356","911.283036606","17","green","0"
"96","75","19","767.364349268","1","0","3","271","0","left","1","in","Female","Right-handed","1","no","left","s","433.949526254","864.019343076","17","green","3"
"96","76","19","764.222564905","1","1","3","272","1","left","1","out","Female","Right-handed","1","no","left","s","500.537040032","663.461103657","17","red","2"
"96","76","19","763.978660156","1","1","3","273","1","right","3","out","Female","Right-handed","1","no","right","s","435.112765583","1064.06379439","17","red","0"
"96","77","19","762.720026286","1","1","3","274","3","left","2","in","Female","Right-handed","1","no","left","d","574.650170282","799.753817905","17","green","1"
"96","75","19","760.470581661","1","0","3","275","1","right","1","out","Female","Right-handed","1","no","right","s","407.309196832","839.199722133","17","green","3"
"96","76","19","760.788148672","1","1","3","276","3","right","1","in","Female","Right-handed","1","no","right","d","584.95607946","975.998527283","17","green","2"
"96","76","19","757.844877351","1","1","3","277","1","right","1","in","Female","Right-handed","1","no","right","d","473.482665431","671.354902792","17","green","0"
"96","76","19","755.163462992","1","1","3","278","2","left","3","in","Female","Right-handed","1","no","left","d","534.958276344","632.147611759","17","red","1"
"96","75","19","754.150122183","1","0","3","279","2","right","0","out","Female","Right-handed","1","no","right","d","712.736973539","663.828965655","17","red","1"
"97","76","19","753.53317629","1","1","3","280","0","right","3","in","Female","Right-handed","1","no","right","d","490.349796048","935.279698606","17","red","2"
"97","76","19","752.950039099","1","1","3","281","0","left","2","in","Female","Right-handed","1","no","left","d","531.816215225","895.943479467","17","green","3"
"97","76","19","750.356335966","1","1","3","282","2","right","2","in","Female","Right-handed","1","no","right","d","460.491395672","687.477650063","17","green","1"
"97","77","19","750.70303383","1","1","3","283","0","left","3","in","Female","Right-handed","1","no","left","s","421.179871686","1128.07050123","17","green","1"
"97","76","19","750.759521423","1","0","3","284","3","left","1","in","Female","Right-handed","1","no","left","d","477.615099575","1031.81220629","17","red","3"
"97","76","19","748.280845113","1","1","3","285","1","left","1","out","Female","Right-handed","1","no","left","d","473.287990404","671.301663853","17","green","0"
"97","76","19","746.626123337","1","1","3","286","2","left","1","out","Female","Right-handed","1","no","left","s","510.999779653","743.972531258","17","red","2"
"97","77","19","745.941059785","1","1","3","287","3","right","0","in","Female","Right-handed","1","no","right","s","608.321891748","783.540949255","17","red","1"
"97","77","19","744.103744999","1","1","3","288","2","left","0","out","Female","Right-handed","1","no","left","d","489.097076759","727.187824814","17","red","3"
"97","76","19","747.606101217","1","0","3","289","3","left","1","out","Female","Right-handed","1","no","left","d","436.745213374","1583.82042177","17","red","3"
"97","76","19","746.471534654","1","1","3","290","2","left","1","out","Female","Right-handed","1","no","left","s","505.235539109","815.253412671","17","red","2"
"97","76","19","744.855667759","1","1","3","291","1","left","1","out","Female","Right-handed","1","no","left","s","520.882984274","719.984849362","17","green","0"
"97","77","19","751.09321247","1","1","3","292","1","left","2","in","Female","Right-handed","1","no","left","s","467.653960833","2007.58943905","17","green","0"
"97","77","19","750.28085158","1","1","3","293","2","right","1","in","Female","Right-handed","1","no","right","d","453.042751237","919.165931409","17","green","3"
"97","77","19","749.229792011","1","1","3","294","3","left","3","out","Female","Right-handed","1","no","left","d","506.561061076","823.728991847","17","green","1"
"97","76","19","751.267990475","1","0","3","295","3","right","2","in","Female","Right-handed","1","no","right","d","401.345149818","1431.37898223","17","red","0"
"97","77","19","749.696554705","1","1","3","296","2","right","1","out","Female","Right-handed","1","no","right","d","481.804942043","759.872701135","17","green","3"
"97","76","19","750.098162207","1","0","3","297","0","right","1","out","Female","Right-handed","1","no","right","d","695.337132521","871.526037226","17","red","2"
"97","76","19","749.165490533","1","1","3","298","0","left","2","in","Female","Right-handed","1","no","left","d","582.763660379","758.878479479","17","green","1"
"97","75","19","748.879956731","1","0","3","299","0","left","1","out","Female","Right-handed","1","no","left","d","585.620604368","863.598562806","17","green","0"
"97","74","19","748.032831831","1","0","3","300","2","right","1","in","Female","Right-handed","1","no","right","d","487.240448012","863.119732821","17","red","3"
"97","75","19","748.688516685","1","1","3","301","3","left","1","out","Female","Right-handed","1","no","left","s","684.734560462","926.731637446","17","green","0"
"97","75","19","748.595227694","1","1","3","302","3","left","0","in","Female","Right-handed","1","no","left","d","721.278620359","759.492972604","17","red","2"
"97","75","19","748.261596322","1","1","3","303","0","left","1","out","Female","Right-handed","1","no","left","d","558.017804259","879.119004152","17","red","2"
"97","75","19","747.061730525","1","1","3","304","1","left","1","out","Female","Right-handed","1","no","left","s","414.506720146","863.640897413","17","green","0"
"97","76","19","745.666778025","1","1","3","305","3","right","1","out","Female","Right-handed","1","no","right","d","526.1616598","711.290541396","17","green","2"
"97","76","19","744.66334805","1","1","3","306","1","right","2","in","Female","Right-handed","1","no","right","d","616.814789654","687.880790879","17","green","1"
"97","76","19","748.017515552","1","1","3","307","2","right","2","in","Female","Right-handed","1","no","right","s","408.57057547","1711.33961104","17","red","0"
"97","76","19","746.290284735","1","1","3","308","0","right","3","out","Female","Right-handed","1","no","right","d","488.81131821","679.04985763","17","green","0"
"97","77","19","745.742506375","1","1","3","309","0","right","0","in","Female","Right-handed","1","no","right","s","531.687607843","855.719516607","17","green","2"
"0","100","19","560.508810566","0","1","4","310","0","right","1","out","Female","Right-handed","1","no","left","d","558.031915803","562.985705328","17","green","2"
"50","100","19","647.586911808","1","1","4","311","3","right","3","in","Female","Right-handed","1","no","right","d","589.697554562","879.632471536","17","red","0"
"66","100","19","868.981043609","1","1","4","312","1","left","2","out","Female","Right-handed","1","no","left","s","575.286472129","2048.2521423","17","red","0"
"75","100","19","818.557155071","1","1","4","313","3","right","1","out","Female","Right-handed","1","no","right","s","430.76384766","903.807131254","17","green","3"
"80","80","19","783.612148356","1","0","4","314","0","right","0","in","Female","Right-handed","1","no","right","d","591.39478713","696.269455861","17","green","1"
"83","83","19","752.905345498","1","1","4","315","2","right","1","in","Female","Right-handed","1","no","right","s","390.786515927","807.956146484","17","green","3"
"85","71","19","735.780923758","1","0","4","316","1","left","3","in","Female","Right-handed","1","no","left","s","490.554733959","775.514052686","17","red","1"
"87","75","19","714.715594875","1","1","4","317","3","right","1","in","Female","Right-handed","1","no","right","s","614.235586283","520.280999102","17","green","2"
"88","66","19","756.894864763","1","0","4","318","2","right","0","out","Female","Right-handed","1","no","right","s","340.727776667","1847.93027106","17","green","3"
"90","70","19","740.342644055","1","1","4","319","0","right","1","out","Female","Right-handed","1","no","right","s","518.436236889","664.309078478","17","red","2"
"90","72","19","717.581646513","1","1","4","320","3","right","3","out","Female","Right-handed","1","no","right","s","403.998759459","575.944582728","17","green","2"
"91","75","19","705.544154075","1","1","4","321","0","left","1","out","Female","Right-handed","1","no","left","d","546.58682106","599.676653452","17","red","3"
"92","76","19","690.639398248","1","1","4","322","2","right","1","in","Female","Right-handed","1","no","right","d","415.219994","608.344662644","17","green","3"
"92","78","19","688.509097744","1","1","4","323","1","left","0","out","Female","Right-handed","1","no","left","d","521.836154192","799.794228195","17","red","2"
"93","80","19","688.103988313","1","1","4","324","1","right","0","out","Female","Right-handed","1","no","right","d","677.415164828","687.449747726","17","red","1"
"93","81","19","706.129619","1","1","4","325","0","left","1","in","Female","Right-handed","1","no","left","s","609.028751293","1343.99940731","17","red","2"
"94","82","19","697.835628521","1","1","4","326","2","right","0","out","Female","Right-handed","1","no","right","s","482.593584311","647.669977421","17","red","1"
"94","83","19","689.248006022","1","1","4","327","1","left","2","in","Female","Right-handed","1","no","left","d","502.242290531","584.274556546","17","green","1"
"94","78","19","699.409685536","1","0","4","328","1","right","3","out","Female","Right-handed","1","no","right","s","500.750958046","1263.88887552","17","green","2"
"95","75","19","702.885447704","1","0","4","329","0","left","3","in","Female","Right-handed","1","no","left","s","522.433007892","1015.4168499","17","green","1"
"95","71","19","697.793165456","1","0","4","330","3","right","2","out","Female","Right-handed","1","no","right","s","479.862361244","712.03267976","17","red","1"
"95","72","19","712.918229467","1","1","4","331","2","left","1","out","Female","Right-handed","1","no","left","s","557.563348761","1503.52579862","17","red","2"
"95","73","19","724.754840349","1","1","4","332","0","left","2","out","Female","Right-handed","1","no","left","d","578.221350297","1392.09920922","17","red","1"
"95","70","19","735.441481449","1","0","4","333","3","left","1","in","Female","Right-handed","1","no","left","s","570.781365182","1391.68708833","17","red","2"
"96","72","19","737.653155835","1","1","4","334","0","left","3","in","Female","Right-handed","1","no","left","s","597.24530045","984.221381746","17","red","0"
"96","73","19","732.353490893","1","1","4","335","1","right","3","out","Female","Right-handed","1","no","right","s","535.782197461","663.941537205","17","red","0"
"96","74","19","754.764522165","1","1","4","336","2","right","2","out","Female","Right-handed","1","no","right","s","539.44381958","2135.45885091","17","red","0"
"96","71","19","819.562573171","1","0","4","337","2","right","2","out","Female","Right-handed","1","no","right","None","2138.04062005","3000.17928061","17","green","1"
"96","72","19","817.691965205","1","1","4","338","0","left","1","in","Female","Right-handed","1","no","left","d","483.22571686","1047.40416745","17","green","3"
"96","73","19","810.017248141","1","1","4","339","1","right","2","in","Female","Right-handed","1","no","right","s","511.928895838","662.97201073","17","green","1"
"96","74","19","805.291549703","1","1","4","340","3","left","2","out","Female","Right-handed","1","no","left","d","527.578585985","799.462607159","17","green","0"
"96","75","19","795.556543829","1","1","4","341","1","right","1","in","Female","Right-handed","1","no","right","d","396.200854593","591.341868887","17","red","3"
"96","72","19","801.185336705","1","0","4","342","1","left","1","in","Female","Right-handed","1","no","left","s","362.798214396","1599.81520305","17","green","3"
"97","73","19","792.734688518","1","1","4","343","2","left","2","out","Female","Right-handed","1","no","left","d","444.429263851","583.297332865","17","red","1"
"97","74","19","781.241085507","1","1","4","344","3","right","2","out","Female","Right-handed","1","no","right","s","404.956098704","375.961067562","17","green","1"
"97","75","19","775.712723288","1","1","4","345","3","right","3","out","Female","Right-handed","1","no","right","d","580.678681348","583.761409914","17","red","1"
"94","75","19","767.862138885","0","1","4","346","1","left","1","in","Female","Right-handed","1","no","right","d","456.271726551","514.210474154","17","red","0"
"94","76","19","760.917456764","1","1","4","347","1","left","3","out","Female","Right-handed","1","no","left","s","455.955820653","551.97261594","17","red","1"
"94","76","19","761.881620963","1","1","4","348","3","left","0","in","Female","Right-handed","1","no","left","s","629.498812865","967.540908227","17","red","2"
"95","75","19","757.08825914","1","0","4","349","0","left","1","out","Female","Right-handed","1","no","left","d","549.192964623","591.101331403","17","red","2"
"95","73","19","752.138501536","1","0","4","350","2","left","1","in","Female","Right-handed","1","no","left","s","428.589067975","679.70732681","17","red","0"
"95","73","19","746.763251099","1","1","4","351","2","left","1","in","Female","Right-handed","1","no","left","s","469.432976126","583.32299022","17","green","2"
"95","74","19","743.420801642","1","1","4","352","1","left","1","in","Female","Right-handed","1","no","left","d","431.059869152","775.015979714","17","green","3"
"95","72","19","742.91045617","1","0","4","353","0","left","0","out","Female","Right-handed","1","no","left","d","722.48964649","719.441555324","17","green","2"
"95","73","19","750.680637369","1","1","4","354","0","left","1","in","Female","Right-handed","1","no","left","d","402.046557167","1783.09066306","17","red","3"
"95","71","19","762.159027467","1","0","4","355","3","left","1","out","Female","Right-handed","1","no","left","s","461.71364683","2095.65951693","17","green","0"
"95","72","19","757.320042179","1","1","4","356","3","right","1","in","Female","Right-handed","1","no","right","d","398.332016805","671.121421066","17","red","0"
"95","72","19","761.225069758","1","1","4","357","2","left","3","in","Female","Right-handed","1","no","left","d","450.679390138","1438.84334178","17","red","1"
"95","73","19","756.954215529","1","1","4","358","2","right","1","in","Female","Right-handed","1","no","right","d","352.437783382","751.468641742","17","red","0"
"96","74","19","755.347591112","1","1","4","359","1","right","1","out","Female","Right-handed","1","no","right","d","442.148968374","911.097020959","17","green","3"
"96","74","19","767.566423422","1","1","4","360","0","right","3","out","Female","Right-handed","1","no","right","s","741.49884365","2015.51723419","17","green","2"
"96","75","19","765.830136465","1","1","4","361","3","left","1","in","Female","Right-handed","1","no","left","s","499.345898367","855.21310498","17","green","0"
"96","73","19","760.235056507","1","0","4","362","3","right","0","out","Female","Right-handed","1","no","right","s","410.851512366","527.730284987","17","green","3"
"96","74","19","757.218717323","1","1","4","363","3","right","1","in","Female","Right-handed","1","no","right","d","435.357793118","759.34768797","17","green","3"
"96","74","19","752.460799166","1","1","4","364","0","right","2","in","Female","Right-handed","1","no","right","s","336.053331325","655.013106065","17","red","3"
"96","75","19","748.473637822","1","1","4","365","1","right","1","out","Female","Right-handed","1","no","right","s","594.678284309","463.681243564","17","red","2"
"96","73","19","745.882728129","1","0","4","366","1","right","1","in","Female","Right-handed","1","no","right","s","602.260988322","599.322582275","17","red","0"
"96","74","19","740.571613082","1","1","4","367","2","right","3","out","Female","Right-handed","1","no","right","s","484.768363996","390.907746827","17","red","2"
"96","74","19","737.654478275","1","1","4","368","1","left","0","out","Female","Right-handed","1","no","left","s","641.485277359","495.436041558","17","green","3"
"96","75","19","735.080055154","1","1","4","369","3","left","0","in","Female","Right-handed","1","no","left","d","487.156740972","679.221441067","17","red","1"
"96","73","19","749.262445003","1","0","4","370","2","right","1","in","Female","Right-handed","1","no","right","d","416.721268673","2783.69040322","17","red","0"
"96","74","19","744.753147851","1","1","4","371","0","right","1","in","Female","Right-handed","1","no","right","s","380.249370035","559.122673178","17","red","0"
"96","74","19","742.556905737","1","1","4","372","2","left","1","in","Female","Right-handed","1","no","left","s","493.940860499","718.838928733","17","green","3"
"96","75","19","743.533269703","1","1","4","373","3","left","0","out","Female","Right-handed","1","no","left","d","810.494298145","799.594101001","17","red","1"
"96","75","19","740.239381928","1","1","4","374","2","left","0","in","Female","Right-handed","1","no","left","s","508.077409468","550.783719257","17","red","2"
"96","74","19","744.716788286","1","0","4","375","2","right","2","out","Female","Right-handed","1","no","right","d","959.750379814","1111.74602321","17","green","3"
"97","74","19","745.837513001","1","1","4","376","0","right","0","out","Female","Right-handed","1","no","right","s","1080.24234633","559.368342132","17","red","1"
"97","75","19","751.432273442","1","1","4","377","3","right","1","in","Female","Right-handed","1","no","right","d","461.79158098","1790.77086496","17","green","3"
"97","75","19","748.561566023","1","1","4","378","0","right","1","in","Female","Right-handed","1","no","right","d","427.391832694","679.315090325","17","red","0"
"97","74","19","745.947900769","1","0","4","379","0","left","0","out","Female","Right-handed","1","no","left","s","500.080980943","631.129015644","17","green","3"
"97","74","19","742.830569901","1","1","4","380","0","right","1","in","Female","Right-handed","1","no","right","d","441.611768009","607.623050164","17","red","3"
"97","75","19","742.709333011","1","1","4","381","1","right","1","in","Female","Right-handed","1","no","right","s","845.035161765","623.167865997","17","red","2"
"97","73","19","746.554324541","1","0","4","382","0","right","2","in","Female","Right-handed","1","no","right","d","631.859608199","1414.92782111","17","green","1"
"97","72","19","748.193734602","1","0","4","383","2","right","1","out","Female","Right-handed","1","no","right","s","640.399330732","1095.34200744","17","green","3"
"96","73","19","745.742495952","0","1","4","384","2","left","1","in","Female","Right-handed","1","no","right","s","422.868124209","705.833547399","17","green","0"
"96","73","19","746.772457336","1","1","4","385","1","right","1","out","Female","Right-handed","1","no","right","d","697.418262949","950.620859337","17","red","2"
"96","74","19","745.367865321","1","1","4","386","2","right","3","out","Female","Right-handed","1","no","right","d","590.112882637","687.124861725","17","red","1"
"96","73","19","745.899197536","1","0","4","387","3","right","1","in","Female","Right-handed","1","no","right","d","702.750498167","870.873058098","17","green","0"
"96","73","19","744.873257911","1","1","4","388","3","left","1","out","Female","Right-handed","1","no","left","s","514.324328571","815.375605715","17","green","3"
"96","72","19","744.29215147","1","0","4","389","2","left","0","out","Female","Right-handed","1","no","left","d","573.882374593","822.887110611","17","red","1"
"96","71","19","741.325432949","1","0","4","390","0","right","2","in","Female","Right-handed","1","no","right","s","321.515565826","686.460336816","17","red","0"
"96","71","19","740.749199751","1","1","4","391","3","left","2","in","Female","Right-handed","1","no","left","d","573.069037142","815.079584252","17","red","3"
"96","72","19","739.416838036","1","1","4","392","1","right","0","in","Female","Right-handed","1","no","right","d","653.647494532","606.67886032","17","green","1"
"96","72","19","739.332123895","1","1","4","393","0","right","1","in","Female","Right-handed","1","no","right","d","449.281065492","1015.32063488","17","green","0"
"96","72","19","737.48619527","1","1","4","394","3","left","1","out","Female","Right-handed","1","no","left","d","525.875580526","638.980800956","17","green","2"
"96","72","19","735.881647974","1","0","4","395","2","left","1","out","Female","Right-handed","1","no","left","d","456.481475238","742.508780415","17","green","2"
"96","72","19","734.347492498","1","1","4","396","1","left","1","in","Female","Right-handed","1","no","left","s","429.908817052","774.911426066","17","green","0"
"96","72","19","734.334647557","1","1","4","397","0","left","3","out","Female","Right-handed","1","no","left","s","459.644062241","1006.79021314","17","green","1"
"96","73","19","732.301313245","1","1","4","398","1","left","1","out","Female","Right-handed","1","no","left","s","539.346321719","567.389465811","17","green","2"
"96","73","19","732.558736673","1","1","4","399","1","left","1","in","Female","Right-handed","1","no","left","s","631.965765439","878.973078099","17","green","0"
"96","73","19","731.004094047","1","1","4","400","2","left","1","out","Female","Right-handed","1","no","left","d","607.561151875","574.611363583","17","red","2"
"96","72","19","732.619949321","1","0","4","401","2","left","3","in","Female","Right-handed","1","no","left","d","824.152337853","935.173220671","17","green","0"
"96","73","19","732.568533073","1","1","4","402","1","left","2","out","Female","Right-handed","1","no","left","s","488.878347998","966.798128444","17","green","3"
"96","72","19","731.593021694","1","0","4","403","0","left","1","out","Female","Right-handed","1","no","left","d","459.503909078","822.237017943","17","red","0"
"96","72","19","732.665332857","1","1","4","404","3","right","3","in","Female","Right-handed","1","no","right","s","795.929271728","870.99589259","17","green","1"
"96","72","19","731.689799759","1","1","4","405","3","left","1","out","Female","Right-handed","1","no","left","d","615.500813495","662.527497421","17","green","2"
"100","100","19","858.36574978","1","1","5","406","1","right","1","in","Female","Right-handed","1","no","right","d","517.310200695","1199.42129886","17","green","2"
"100","100","19","711.683579669","1","1","5","407","3","left","0","in","Female","Right-handed","1","no","left","d","553.979981516","576.022837602","17","red","1"
"100","100","19","665.964190281","1","1","5","408","1","right","1","out","Female","Right-handed","1","no","right","d","485.412683774","663.638139231","17","red","3"
"100","75","19","660.764157157","1","0","5","409","0","right","2","out","Female","Right-handed","1","no","right","d","523.161034711","767.167080863","17","green","1"
"100","80","19","653.155932124","1","1","5","410","1","right","1","in","Female","Right-handed","1","no","right","d","397.730352357","847.715711628","17","green","0"
"100","83","19","633.618632188","1","1","5","411","2","right","1","in","Female","Right-handed","1","no","right","d","472.401850275","599.462414742","17","red","3"
"85","71","19","642.756437831","0","0","5","412","3","right","1","out","Female","Right-handed","1","no","left","d","536.147173028","859.019370343","17","red","2"
"87","75","19","648.186571791","1","1","5","413","3","left","0","out","Female","Right-handed","1","no","left","d","676.57456646","695.820452558","17","green","2"
"88","66","19","641.360821463","1","0","5","414","2","right","1","out","Female","Right-handed","1","no","right","d","494.298459554","679.211178125","17","red","0"
"90","60","19","632.918919303","1","0","5","415","0","left","2","out","Female","Right-handed","1","no","left","s","401.987545279","711.896054447","17","green","0"
"90","63","19","625.786357165","1","1","5","416","0","left","2","out","Female","Right-handed","1","no","left","s","469.414695312","639.506776264","17","red","1"
"91","58","19","627.062301673","1","0","5","417","0","left","1","out","Female","Right-handed","1","no","left","d","459.100126783","823.095255735","17","green","0"
"92","61","19","626.070179074","1","1","5","418","2","left","1","out","Female","Right-handed","1","no","left","s","668.631376931","559.698038851","17","red","0"
"92","57","19","654.263155993","1","0","5","419","2","right","1","out","Female","Right-handed","1","no","right","s","466.274879174","1575.2688327","17","green","3"
"86","53","19","727.442676976","0","0","5","420","0","right","3","out","Female","Right-handed","1","no","left","None","503.837855911","3000.07408555","17","green","1"
"87","50","19","810.864465301","1","0","5","421","2","left","0","in","Female","Right-handed","1","no","left","None","1124.28828966","3000.09429071","17","green","1"
"88","52","19","821.377968945","1","1","5","422","0","left","1","in","Female","Right-handed","1","no","left","d","667.707071523","1311.48098296","17","red","0"
"88","50","19","833.618610805","1","0","5","423","0","left","3","out","Female","Right-handed","1","no","left","s","508.158230048","1575.2608148","17","red","0"
"89","47","19","826.496042366","1","0","5","424","3","left","1","out","Female","Right-handed","1","no","left","d","540.752022818","855.827598105","17","green","2"
"90","50","19","820.186973004","1","1","5","425","1","left","2","out","Female","Right-handed","1","no","left","s","505.393652449","895.235657808","17","red","1"
"90","47","19","818.036103137","1","0","5","426","2","left","0","out","Female","Right-handed","1","no","left","s","542.972664989","1007.06474661","17","red","2"
"90","50","19","822.760566033","1","1","5","427","3","left","2","out","Female","Right-handed","1","no","left","s","740.469343174","1103.47923054","17","green","0"
"91","52","19","815.730130094","1","1","5","428","1","left","1","in","Female","Right-handed","1","no","left","d","499.079382833","823.041696043","17","green","3"
"91","54","19","807.853396887","1","1","5","429","3","right","1","in","Female","Right-handed","1","no","right","d","461.652710685","791.724355571","17","red","0"
"92","52","19","797.211439194","1","0","5","430","1","right","3","out","Female","Right-handed","1","no","right","d","596.241136576","487.367772527","17","green","1"
"92","53","19","792.777829627","1","1","5","431","0","left","1","in","Female","Right-handed","1","no","left","s","644.913097","718.962083891","17","green","2"
"92","55","19","783.677705223","1","1","5","432","3","right","1","in","Female","Right-handed","1","no","right","s","414.528849593","679.620091862","17","green","0"
"92","57","19","780.999023464","1","1","5","433","3","left","1","in","Female","Right-handed","1","no","left","d","682.174279384","735.174952541","17","red","0"
"93","55","19","788.785169858","1","0","5","434","3","right","3","out","Female","Right-handed","1","no","right","s","462.794141291","1550.80039654","17","green","1"
"93","56","19","782.388576885","1","1","5","435","0","left","2","in","Female","Right-handed","1","no","left","d","522.418254928","671.356506384","17","green","3"
"93","58","19","778.129916049","1","1","5","436","0","left","0","out","Female","Right-handed","1","no","left","d","589.91820761","710.821974353","17","green","1"
"93","56","19","774.004223878","1","0","5","437","0","left","1","in","Female","Right-handed","1","no","left","d","524.553265743","767.662267405","17","green","3"
"93","54","19","773.648881207","1","0","5","438","1","right","1","in","Female","Right-handed","1","no","right","s","581.244104833","943.311726645","17","green","2"
"94","55","19","772.385442791","1","1","5","439","1","left","3","out","Female","Right-handed","1","no","left","d","726.617590612","734.766359499","17","red","0"
"94","57","19","771.885963785","1","1","5","440","1","right","1","out","Female","Right-handed","1","no","right","d","686.378554063","823.428801057","17","green","2"
"94","58","19","769.08328274","1","1","5","441","0","left","3","in","Female","Right-handed","1","no","left","s","527.017973276","814.960919059","17","red","1"
"94","59","19","761.761687602","1","1","5","442","1","left","3","in","Female","Right-handed","1","no","left","d","461.668425822","534.700099466","17","green","2"
"94","60","19","763.827816981","1","1","5","443","1","left","1","in","Female","Right-handed","1","no","left","s","657.309758098","1023.23944992","17","red","2"
"94","61","19","759.890710617","1","1","5","444","2","right","3","in","Female","Right-handed","1","no","right","s","461.819483345","758.741854195","17","red","2"
"95","62","19","752.366496077","1","1","5","445","0","right","3","out","Female","Right-handed","1","no","right","s","382.379570073","535.464687971","17","red","2"
"92","60","19","754.273086027","0","0","5","446","3","right","3","out","Female","Right-handed","1","no","left","s","507.106279401","1153.9670887","17","green","1"
"92","61","19","751.958567011","1","1","5","447","0","left","1","out","Female","Right-handed","1","no","left","s","571.605607023","742.520967673","17","green","0"
"93","60","19","750.581390314","1","0","5","448","2","left","3","out","Female","Right-handed","1","no","left","s","442.120103893","943.359834142","17","green","1"
"93","59","19","750.88205464","1","0","5","449","2","left","1","out","Female","Right-handed","1","no","left","d","696.731929318","830.889312026","17","red","0"
"93","60","19","745.562038664","1","1","5","450","2","right","0","out","Female","Right-handed","1","no","right","d","439.470022131","583.492649312","17","red","1"
"93","60","19","743.060552518","1","1","5","451","3","left","1","in","Female","Right-handed","1","no","left","s","533.9021564","727.085195482","17","green","3"
"93","61","19","759.75431234","1","1","5","452","2","left","1","in","Female","Right-handed","1","no","left","s","568.591832562","2486.74269574","17","red","3"
"93","62","19","757.711501813","1","1","5","453","3","left","1","out","Female","Right-handed","1","no","left","s","436.121098756","887.277715316","17","red","3"
"93","61","19","759.701438445","1","0","5","454","0","right","0","out","Female","Right-handed","1","no","right","d","599.720912345","1110.71588128","17","red","1"
"94","62","19","757.674015247","1","1","5","455","3","left","1","in","Female","Right-handed","1","no","left","s","509.394913505","807.265643525","17","red","2"
"94","62","19","760.226712594","1","1","5","456","2","right","1","in","Female","Right-handed","1","no","right","s","568.746417994","1206.97674196","17","green","2"
"94","63","19","758.385966637","1","1","5","457","3","left","1","out","Female","Right-handed","1","no","left","s","506.479919743","822.535925865","17","green","0"
"94","64","19","756.635904552","1","1","5","458","0","left","0","in","Female","Right-handed","1","no","left","s","492.176918836","839.088433451","17","green","3"
"94","64","19","752.612537129","1","1","5","459","1","right","1","in","Female","Right-handed","1","no","right","d","407.847038674","670.901088743","17","green","3"
"94","63","19","753.424806389","1","0","5","460","0","left","1","in","Female","Right-handed","1","no","left","d","484.235974349","1110.33871849","17","green","2"
"94","62","19","749.532349291","1","0","5","461","3","right","1","in","Female","Right-handed","1","no","right","s","455.861850671","615.032567177","17","green","3"
"94","63","19","745.14755833","1","1","5","462","1","right","3","in","Female","Right-handed","1","no","right","s","544.607678515","454.590850539","17","red","1"
"94","63","19","741.853528634","1","1","5","463","2","right","0","out","Female","Right-handed","1","no","right","d","453.164944251","655.022727588","17","green","3"
"94","64","19","741.056010049","1","1","5","464","3","right","2","out","Female","Right-handed","1","no","right","s","574.90481931","814.695044974","17","green","1"
"95","63","19","740.835852829","1","0","5","465","2","right","1","in","Female","Right-handed","1","no","right","d","449.456497503","1006.23665619","17","red","0"
"95","63","19","742.690902793","1","1","5","466","2","right","1","in","Female","Right-handed","1","no","right","s","404.996508995","1302.99129224","17","green","3"
"95","62","19","738.721395992","1","0","5","467","2","right","2","out","Female","Right-handed","1","no","right","d","314.661530079","678.501432179","17","red","3"
"95","63","19","745.998870028","1","1","5","468","0","right","1","in","Female","Right-handed","1","no","right","d","995.188287925","1399.21623262","17","red","2"
"95","64","19","753.307114946","1","1","5","469","3","right","1","out","Female","Right-handed","1","no","right","s","956.705175107","1470.74791446","17","red","2"
"95","64","19","752.184811939","1","1","5","470","1","left","0","out","Female","Right-handed","1","no","left","s","730.278250587","630.436588399","17","red","2"
"95","65","19","748.969493635","1","1","5","471","0","right","1","out","Female","Right-handed","1","no","right","s","440.953336685","638.994271023","17","green","2"
"95","64","19","748.015633874","1","0","5","472","3","right","3","out","Female","Right-handed","1","no","right","s","547.507919313","822.613860015","17","red","0"
"95","64","19","746.612758063","1","1","5","473","0","right","1","in","Female","Right-handed","1","no","right","s","483.125332539","822.114824899","17","red","3"
"95","65","19","744.281813673","1","1","5","474","1","left","1","out","Female","Right-handed","1","no","left","s","524.758845131","646.796345245","17","green","0"
"95","65","19","742.31768827","1","1","5","475","1","left","2","out","Female","Right-handed","1","no","left","d","471.21295362","742.373117275","17","red","0"
"95","66","19","742.573508721","1","1","5","476","2","right","1","in","Female","Right-handed","1","no","right","s","609.938624461","911.023256136","17","red","2"
"95","66","19","742.642579402","1","1","5","477","3","left","0","in","Female","Right-handed","1","no","left","d","528.487497009","966.605698428","17","green","1"
"95","67","19","741.950788348","1","1","5","478","1","right","2","in","Female","Right-handed","1","no","right","d","626.118779997","758.16488493","17","green","3"
"95","67","19","740.029846499","1","1","5","479","2","left","3","out","Female","Right-handed","1","no","left","d","520.765281253","678.836901789","17","green","0"
"96","66","19","738.654287858","1","0","5","480","1","right","1","out","Female","Right-handed","1","no","right","d","451.459373056","822.266523872","17","red","0"
"96","67","19","741.487466654","1","1","5","481","0","left","0","out","Female","Right-handed","1","no","left","s","708.923011","1199.02874166","17","red","2"
"96","67","19","737.84468341","1","1","5","482","1","left","0","out","Female","Right-handed","1","no","left","d","475.426849822","446.559463919","17","red","1"
"96","67","19","735.727138229","1","1","5","483","2","right","2","in","Female","Right-handed","1","no","right","d","531.196911383","614.155407122","17","green","0"
"96","67","19","737.778723228","1","0","5","484","2","right","3","in","Female","Right-handed","1","no","right","s","700.851855537","1094.75285091","17","red","1"
"96","67","19","735.405090799","1","1","5","485","0","right","1","in","Female","Right-handed","1","no","right","s","361.327407765","734.448850009","17","red","0"
"96","67","19","734.147198185","1","1","5","486","0","left","1","in","Female","Right-handed","1","no","left","d","485.025258036","782.006320049","17","red","3"
"96","67","19","743.157856184","1","0","5","487","2","right","1","in","Female","Right-handed","1","no","right","s","1123.56988431","1822.47242398","17","green","2"
"96","67","19","741.475970375","1","1","5","488","3","right","1","out","Female","Right-handed","1","no","right","s","473.051301524","734.071366518","17","red","3"
"95","67","19","738.77719053","0","1","5","489","2","right","2","out","Female","Right-handed","1","no","left","d","539.851129725","489.705796994","17","green","1"
"95","68","19","735.499827199","1","1","5","490","1","right","2","out","Female","Right-handed","1","no","right","d","354.035273078","566.367341816","17","green","1"
"95","68","19","733.697224423","1","1","5","491","1","right","1","in","Female","Right-handed","1","no","right","d","506.999160047","653.952816793","17","red","3"
"95","68","19","733.087359874","1","1","5","492","3","left","3","in","Female","Right-handed","1","no","left","s","730.649640463","630.628376937","17","green","2"
"95","69","19","730.633240176","1","1","5","493","0","left","1","in","Female","Right-handed","1","no","left","s","580.188626278","454.061026627","17","red","3"
"95","69","19","729.370018822","1","1","5","494","2","left","2","in","Female","Right-handed","1","no","left","d","701.62414122","534.788937977","17","red","1"
"95","70","19","728.070217919","1","1","5","495","2","left","1","out","Female","Right-handed","1","no","left","s","546.41427548","678.361599683","17","green","2"
"95","70","19","727.630029662","1","1","5","496","1","left","1","in","Female","Right-handed","1","no","left","d","578.048804717","797.97736829","17","green","0"
"95","70","19","726.657655783","1","1","5","497","3","left","0","in","Female","Right-handed","1","no","left","d","437.738152163","838.605113444","17","red","3"
"95","70","19","728.593701826","1","1","5","498","3","right","2","in","Female","Right-handed","1","no","right","d","1063.24981552","750.170060026","17","green","1"
"95","71","19","726.006787429","1","1","5","499","1","left","0","in","Female","Right-handed","1","no","left","s","364.891211328","605.956285668","17","red","1"
"95","71","19","724.516732741","1","1","5","500","1","right","0","in","Female","Right-handed","1","no","right","d","498.452381755","670.450802543","17","red","3"
"95","71","19","726.730950579","1","1","5","501","3","right","2","out","Female","Right-handed","1","no","right","s","420.161596295","1454.00169404","17","red","3"
dis_reply=No
dis_loc=2
