"acc_1","acc_2","age","avg_rt","correct_1","correct_2","count_block_loop","count_trial_sequence","cue_position","detection","dis_position","dis_shape","gender","hand","high_loc","practice","response_keyboard_response_1","response_keyboard_response_2","response_time_keyboard_response_1","response_time_keyboard_response_2","subject_nr","tar_color","tar_position"
"100","0","22","1016.0330041","1","0","0","0","2","right","1","out","Male","Left-handed","2","yes","right","s","854.618787398","1177.4472208","30","green","3"
"100","50","22","1185.67980431","1","1","0","1","3","right","1","in","Male","Left-handed","2","yes","right","d","684.700983344","2025.95222571","30","green","3"
"100","66","22","1335.75729431","1","1","0","2","2","right","3","in","Male","Left-handed","2","yes","right","d","1406.40441406","1865.42013453","30","red","1"
"100","75","22","1283.42932589","1","1","0","3","2","left","1","out","Male","Left-handed","2","yes","left","d","1018.98213524","1233.90870602","30","green","2"
"100","80","22","1206.04223106","1","1","0","4","3","left","2","out","Male","Left-handed","2","yes","left","d","943.508688317","849.47901516","30","red","3"
"100","83","22","1146.1481214","1","1","0","5","2","right","2","out","Male","Left-handed","2","yes","right","s","820.136194667","873.218951539","30","red","3"
"100","85","22","1105.08170457","1","1","0","6","0","right","3","out","Male","Left-handed","2","yes","right","s","835.625427153","881.740979981","30","red","2"
"100","87","22","1067.06176434","1","1","0","7","3","left","0","in","Male","Left-handed","2","yes","left","d","808.372703723","793.471661818","30","green","3"
"100","77","22","1030.38184673","1","0","0","8","1","right","0","out","Male","Left-handed","2","yes","right","s","711.993154669","761.891856961","30","green","1"
"100","80","22","1046.08558205","1","1","0","9","2","right","1","in","Male","Left-handed","2","yes","right","d","1557.47734873","817.361051202","30","red","3"
"100","81","22","1094.34678701","1","1","0","10","3","left","0","out","Male","Left-handed","2","yes","left","s","2473.00080147","680.916871737","30","red","1"
"100","83","22","1098.76877931","1","1","0","11","0","left","2","out","Male","Left-handed","2","yes","left","s","1589.35958746","705.461801768","30","green","3"
"100","84","22","1162.40444771","1","1","0","12","3","left","3","out","Male","Left-handed","2","yes","left","d","859.058118938","2993.00681807","30","green","1"
"100","85","22","1168.11470074","1","1","0","13","0","left","3","in","Male","Left-handed","2","yes","left","s","1915.23641317","569.459567032","30","red","0"
"100","80","22","1151.30815745","1","0","0","14","1","left","3","in","Male","Left-handed","2","yes","left","s","1022.01320895","810.019893928","30","red","1"
"100","81","22","1129.37843586","1","1","0","15","1","left","1","out","Male","Left-handed","2","yes","left","s","797.524211546","803.34101231","30","green","3"
"100","76","22","1107.04335679","1","0","0","16","0","right","3","in","Male","Left-handed","2","yes","right","d","698.195370998","801.168812301","30","green","2"
"100","77","22","1094.67055893","1","1","0","17","0","right","1","in","Male","Left-handed","2","yes","right","d","1046.87853287","721.787457944","30","red","3"
"100","78","22","1069.18329672","1","1","0","18","1","left","3","out","Male","Left-handed","2","yes","left","d","627.43835304","593.386800734","30","green","1"
"100","80","22","1047.89253623","1","1","0","19","1","left","2","in","Male","Left-handed","2","yes","left","d","741.773429887","544.962744188","30","green","0"
"100","80","22","1026.16551619","1","1","0","20","3","right","1","in","Male","Left-handed","2","yes","right","s","789.643291599","393.606939237","30","red","0"
"100","81","22","1018.79929147","1","1","0","21","0","left","1","in","Male","Left-handed","2","yes","left","d","1047.12099311","681.096151202","30","red","0"
"100","100","22","896.773995948","1","1","1","22","0","left","2","in","Male","Left-handed","2","no","left","d","1111.66416563","681.883826266","30","red","0"
"100","100","22","714.120133918","1","1","1","23","0","right","1","out","Male","Left-handed","2","no","right","s","717.391422873","345.541120903","30","red","3"
"100","66","22","636.935086616","1","0","1","24","2","left","2","in","Male","Left-handed","2","no","left","s","474.972875563","490.157108463","30","red","1"
"100","75","22","608.911993348","1","1","1","25","2","right","2","in","Male","Left-handed","2","no","right","d","535.891973057","513.793454025","30","red","3"
"100","80","22","613.619305993","1","1","1","26","2","left","3","in","Male","Left-handed","2","no","left","s","559.43082138","705.466291773","30","green","0"
"100","83","22","614.755480238","1","1","1","27","1","right","2","out","Male","Left-handed","2","no","right","d","766.880572617","473.992130304","30","red","1"
"100","85","22","591.444782178","1","1","1","28","3","right","2","in","Male","Left-handed","2","no","right","d","453.631242988","449.529944643","30","red","0"
"100","87","22","599.598521442","1","1","1","29","0","right","2","out","Male","Left-handed","2","no","right","s","872.189778376","441.159614205","30","red","3"
"100","77","22","624.115874471","1","0","1","30","1","right","2","out","Male","Left-handed","2","no","right","d","814.72766359","825.781733827","30","red","1"
"100","80","22","639.038504033","1","1","1","31","2","left","3","out","Male","Left-handed","2","no","left","s","801.352902483","745.331437698","30","red","1"
"100","81","22","640.438052998","1","1","1","32","3","left","2","out","Male","Left-handed","2","no","left","s","699.961225604","608.905859677","30","green","1"
"100","83","22","637.831390391","1","1","1","33","1","right","2","out","Male","Left-handed","2","no","right","d","624.632741688","593.683461742","30","green","3"
"100","84","22","649.635812532","1","1","1","34","1","right","0","out","Male","Left-handed","2","no","right","d","1069.25222504","513.325531414","30","red","2"
"100","85","22","640.437477169","1","1","1","35","3","left","3","in","Male","Left-handed","2","no","left","d","552.852964862","488.865270039","30","green","2"
"100","86","22","640.474268479","1","1","1","36","3","right","1","out","Male","Left-handed","2","no","right","s","744.417721791","537.560971854","30","green","2"
"100","87","22","639.008974236","1","1","1","37","2","right","2","out","Male","Left-handed","2","no","right","s","729.007385096","505.051736076","30","red","0"
"100","88","22","643.227321624","1","1","1","38","1","right","2","in","Male","Left-handed","2","no","right","s","931.703183767","489.738575907","30","green","0"
"100","88","22","648.898525294","1","1","1","39","2","left","2","in","Male","Left-handed","2","no","left","d","1065.3818412","425.236134146","30","red","3"
"100","89","22","643.291360288","1","1","1","40","3","left","2","out","Male","Left-handed","2","no","left","d","587.876603135","496.848177234","30","red","3"
"100","90","22","657.926020442","1","1","1","41","3","right","3","in","Male","Left-handed","2","no","right","d","1254.44245851","617.526668222","30","red","1"
"100","90","22","653.959793721","1","1","1","42","1","left","1","out","Male","Left-handed","2","no","left","s","780.033719933","369.236798662","30","green","2"
"100","86","22","661.791989348","1","0","1","43","1","left","0","out","Male","Left-handed","2","no","left","s","914.798958445","737.737236603","30","red","3"
"100","86","22","653.883126662","1","1","1","44","3","left","1","in","Male","Left-handed","2","no","left","s","574.33859829","385.437696859","30","green","2"
"100","87","22","648.676902594","1","1","1","45","1","right","2","in","Male","Left-handed","2","no","right","s","681.017896837","376.849601209","30","red","0"
"100","88","22","644.05516676","1","1","1","46","3","left","2","out","Male","Left-handed","2","no","left","s","600.69171726","465.57529625","30","red","3"
"100","88","22","655.057702601","1","1","1","47","2","left","0","out","Male","Left-handed","2","no","left","d","1355.03106602","505.211131233","30","red","3"
"100","88","22","654.804894518","1","1","1","48","0","right","2","in","Male","Left-handed","2","no","right","d","799.774986634","496.688782077","30","green","1"
"100","89","22","657.162864007","1","1","1","49","3","left","2","out","Male","Left-handed","2","no","left","d","992.366030292","449.290050121","30","green","1"
"100","89","22","656.156609497","1","1","1","50","3","right","2","out","Male","Left-handed","2","no","right","d","766.990257012","488.97270943","30","green","0"
"100","90","22","665.103819059","1","1","1","51","3","left","3","out","Male","Left-handed","2","no","left","s","1295.62413788","553.521654812","30","red","0"
"100","87","22","681.391312092","1","0","1","52","1","left","2","in","Male","Left-handed","2","no","left","d","1490.95440497","849.077801191","30","red","0"
"100","87","22","686.711718583","1","1","1","53","1","left","1","in","Male","Left-handed","2","no","left","s","1158.55167851","544.736961107","30","green","3"
"100","87","22","681.321594129","1","1","1","54","0","right","1","in","Male","Left-handed","2","no","right","s","592.247301749","425.427921477","30","red","0"
"100","88","22","679.427501417","1","1","1","55","1","left","2","out","Male","Left-handed","2","no","left","s","504.874060185","728.970823628","30","green","1"
"100","88","22","689.429205435","1","1","1","56","3","left","2","in","Male","Left-handed","2","no","left","s","1345.54144162","713.43284252","30","red","0"
"100","88","22","692.572201677","1","1","1","57","1","right","0","in","Male","Left-handed","2","no","right","s","1124.04246646","481.111673787","30","green","2"
"100","89","22","700.56150366","1","1","1","58","2","left","2","in","Male","Left-handed","2","no","left","d","927.623373293","1048.72937685","30","red","0"
"100","86","22","711.696729975","1","0","1","59","2","left","1","in","Male","Left-handed","2","no","left","s","1102.21655484","1145.18365241","30","green","3"
"100","84","22","711.273902828","1","0","1","60","0","right","3","in","Male","Left-handed","2","no","right","s","629.59932804","760.813614463","30","red","2"
"100","82","22","713.766461879","1","0","1","61","1","right","2","out","Male","Left-handed","2","no","right","s","1180.37149655","441.581033196","30","green","3"
"100","82","22","720.73319864","1","1","1","62","3","right","1","out","Male","Left-handed","2","no","right","d","1085.96273874","912.842599366","30","red","0"
"100","83","22","717.303149996","1","1","1","63","2","left","3","in","Male","Left-handed","2","no","left","s","720.68355828","432.658752925","30","green","2"
"100","83","22","714.346569615","1","1","1","64","2","left","1","in","Male","Left-handed","2","no","left","d","627.155162049","553.185225192","30","green","2"
"100","84","22","715.529226328","1","1","1","65","0","right","2","in","Male","Left-handed","2","no","right","s","755.864025989","776.902903974","30","red","1"
"100","84","22","713.016526459","1","1","1","66","0","right","2","in","Male","Left-handed","2","no","right","s","875.444069457","329.471394984","30","green","3"
"100","84","22","710.908396784","1","1","1","67","3","right","0","out","Male","Left-handed","2","no","right","d","599.074353515","633.010769277","30","green","2"
"100","85","22","708.69908474","1","1","1","68","2","right","2","in","Male","Left-handed","2","no","right","d","733.516632419","480.624829019","30","green","0"
"100","85","22","709.187760467","1","1","1","69","0","left","2","out","Male","Left-handed","2","no","left","d","855.096331441","609.214707845","30","green","3"
"100","85","22","706.396416484","1","1","1","70","1","right","3","out","Male","Left-handed","2","no","right","d","719.876640338","424.947170286","30","red","0"
"100","86","22","704.500216001","1","1","1","71","2","left","0","in","Male","Left-handed","2","no","left","d","614.591167454","608.581617216","30","red","1"
"100","86","22","701.511962463","1","1","1","72","2","left","0","in","Male","Left-handed","2","no","left","s","670.988830472","433.209740615","30","green","2"
"100","86","22","699.937196679","1","1","1","73","0","right","2","in","Male","Left-handed","2","no","right","d","742.509149186","496.739134272","30","green","1"
"100","84","22","697.201179932","1","0","1","74","3","right","0","in","Male","Left-handed","2","no","right","d","589.340665294","520.515952827","30","red","1"
"100","85","22","695.371285892","1","1","1","75","2","left","1","out","Male","Left-handed","2","no","left","s","539.779354767","656.994448749","30","red","0"
"100","85","22","695.62942967","1","1","1","76","0","right","0","out","Male","Left-handed","2","no","right","s","658.518484546","760.619902845","30","red","1"
"100","85","22","699.887266526","1","1","1","77","2","right","2","out","Male","Left-handed","2","no","right","s","1475.12232857","393.01425865","30","red","1"
"100","85","22","698.990259329","1","1","1","78","0","right","2","out","Male","Left-handed","2","no","right","d","528.772750291","768.742962318","30","red","0"
"100","86","22","695.557620564","1","1","1","79","0","left","2","out","Male","Left-handed","2","no","left","s","663.356143625","336.438278315","30","red","0"
"100","86","22","692.998152798","1","1","1","80","1","left","3","out","Male","Left-handed","2","no","left","s","472.022301212","617.075743489","30","green","1"
"100","86","22","689.600396018","1","1","1","81","2","right","2","out","Male","Left-handed","2","no","right","d","545.527522605","432.737969437","30","green","1"
"100","86","22","689.773513292","1","1","1","82","0","left","3","out","Male","Left-handed","2","no","left","d","983.136826151","417.184273312","30","red","2"
"100","87","22","688.518138899","1","1","1","83","0","left","1","out","Male","Left-handed","2","no","left","d","710.950190776","512.930411027","30","red","2"
"100","87","22","684.953395917","1","1","1","84","2","left","0","in","Male","Left-handed","2","no","left","s","511.481422447","416.397239674","30","green","2"
"100","87","22","683.594695858","1","1","1","85","1","right","3","out","Male","Left-handed","2","no","right","s","778.910898109","417.082286065","30","green","2"
"100","87","22","682.657713072","1","1","1","86","1","left","2","out","Male","Left-handed","2","no","left","s","884.687064328","360.694565203","30","green","3"
"100","87","22","679.1989178","1","1","1","87","3","left","2","out","Male","Left-handed","2","no","left","d","444.279205156","464.475245161","30","green","3"
"100","88","22","676.67463368","1","1","1","88","2","right","2","out","Male","Left-handed","2","no","right","d","514.979135911","505.164627619","30","green","3"
"100","88","22","681.070826538","1","1","1","89","0","left","2","out","Male","Left-handed","2","no","left","s","1270.654261","680.577234973","30","green","0"
"100","86","22","680.101708176","1","0","1","90","1","left","2","out","Male","Left-handed","2","no","left","d","428.234815685","800.168503451","30","green","0"
"100","87","22","678.148919153","1","1","1","91","0","left","3","out","Male","Left-handed","2","no","left","s","541.877790416","544.935162732","30","green","1"
"100","87","22","676.187733898","1","1","1","92","3","right","3","in","Male","Left-handed","2","no","right","d","517.295657493","560.513874592","30","green","2"
"100","87","22","673.838867478","1","1","1","93","2","right","2","in","Male","Left-handed","2","no","right","s","588.946827764","425.191875529","30","green","3"
"100","87","22","670.376579704","1","1","1","94","2","left","3","out","Male","Left-handed","2","no","left","s","489.503492103","352.680227978","30","green","2"
"100","87","22","670.434926014","1","1","1","95","1","left","2","out","Male","Left-handed","2","no","left","d","813.116714136","536.271699151","30","red","1"
"100","88","22","671.581844603","1","1","1","96","0","left","3","out","Male","Left-handed","2","no","left","d","719.996266882","792.911373406","30","red","0"
"100","88","22","668.922943134","1","1","1","97","1","left","3","in","Male","Left-handed","2","no","left","d","442.491541955","496.519124052","30","green","2"
"100","88","22","668.892910557","1","1","1","98","3","left","2","in","Male","Left-handed","2","no","left","d","845.028779324","488.192090088","30","red","0"
"100","88","22","667.031576154","1","1","1","99","0","right","0","out","Male","Left-handed","2","no","right","d","510.59625014","536.821403977","30","green","2"
"100","88","22","668.402537164","1","1","1","100","1","right","2","in","Male","Left-handed","2","no","right","s","454.295442934","1096.37954905","30","green","3"
"100","87","22","668.409130488","1","0","1","101","2","right","1","out","Male","Left-handed","2","no","right","d","720.942374959","616.917631189","30","red","2"
"100","87","22","667.139457404","1","1","1","102","3","right","2","in","Male","Left-handed","2","no","right","s","586.477004603","544.654216741","30","green","1"
"100","87","22","667.377859774","1","1","1","103","1","right","1","in","Male","Left-handed","2","no","right","d","741.127831388","632.249072092","30","red","0"
"100","86","22","669.376028216","1","0","1","104","0","right","1","in","Male","Left-handed","2","no","right","s","817.834425954","848.617255022","30","red","2"
"100","86","22","668.64322695","1","1","1","105","0","left","0","in","Male","Left-handed","2","no","left","s","671.308903646","544.332539994","30","red","2"
"100","87","22","668.171497946","1","1","1","106","3","right","2","out","Male","Left-handed","2","no","right","d","648.966641515","608.125881765","30","green","1"
"100","87","22","666.54967607","1","1","1","107","3","left","1","in","Male","Left-handed","2","no","left","d","600.646175782","456.743457504","30","green","3"
"100","87","22","664.334595957","1","1","1","108","0","left","0","in","Male","Left-handed","2","no","left","s","499.29522966","448.380182788","30","red","3"
"100","87","22","662.715366781","1","1","1","109","3","right","0","out","Male","Left-handed","2","no","right","d","451.828185487","591.856671359","30","green","3"
"100","86","22","665.448588399","1","0","1","110","0","right","2","in","Male","Left-handed","2","no","right","d","787.588152416","1024.35602913","30","red","1"
"100","86","22","664.222033856","1","1","1","111","2","right","2","in","Male","Left-handed","2","no","right","s","686.058888976","424.058470118","30","green","0"
"100","86","22","662.929744749","1","1","1","112","1","left","0","in","Male","Left-handed","2","no","left","d","556.602118577","536.64533166","30","red","1"
"100","86","22","662.368560523","1","1","1","113","1","right","1","out","Male","Left-handed","2","no","right","d","494.142949552","728.45864241","30","green","2"
"100","87","22","660.319966062","1","1","1","114","3","left","2","in","Male","Left-handed","2","no","left","s","535.854770165","407.843781199","30","green","3"
"100","87","22","659.051843168","1","1","1","115","2","left","2","in","Male","Left-handed","2","no","left","s","617.67580051","464.557027386","30","red","1"
"100","87","22","656.969378997","1","1","1","116","0","right","2","in","Male","Left-handed","2","no","right","d","450.22846105","472.207032824","30","red","3"
"100","87","22","656.779787117","1","1","1","117","3","right","0","in","Male","Left-handed","2","no","right","s","725.788372623","551.748744481","30","green","2"
"100","100","22","547.521886367","1","1","2","118","2","left","3","in","Male","Left-handed","2","no","left","s","654.107055176","440.936717558","30","red","2"
"100","100","22","475.367915776","1","1","2","119","1","left","3","out","Male","Left-handed","2","no","left","d","389.706728944","416.721161426","30","green","2"
"100","100","22","481.154863354","1","1","2","120","3","right","1","in","Male","Left-handed","2","no","right","s","624.240828445","361.216688576","30","green","2"
"100","100","22","466.227068505","1","1","2","121","1","right","2","in","Male","Left-handed","2","no","right","s","497.828281062","345.059086856","30","green","1"
"100","100","22","477.478265973","1","1","2","122","2","right","2","in","Male","Left-handed","2","no","right","s","596.48682809","448.479283601","30","red","1"
"100","100","22","473.099314302","1","1","2","123","0","left","1","in","Male","Left-handed","2","no","left","d","445.204787502","457.204324386","30","green","2"
"100","100","22","468.488965516","1","1","2","124","0","left","2","out","Male","Left-handed","2","no","left","s","432.851823116","448.801922492","30","green","1"
"100","100","22","474.362655896","1","1","2","125","2","left","3","in","Male","Left-handed","2","no","left","s","574.430322671","456.52665443","30","red","1"
"100","100","22","501.896795252","1","1","2","126","2","left","0","out","Male","Left-handed","2","no","left","d","1011.0928767","433.246943507","30","green","3"
"100","100","22","497.128369548","1","1","2","127","1","left","0","out","Male","Left-handed","2","no","left","s","491.554461991","416.870614426","30","red","2"
"100","100","22","495.061636536","1","1","2","128","0","right","2","in","Male","Left-handed","2","no","right","s","468.425486932","480.363125902","30","red","1"
"100","100","22","486.180167201","1","1","2","129","3","right","2","out","Male","Left-handed","2","no","right","s","407.863665507","369.104343532","30","green","1"
"100","100","22","488.90844316","1","1","2","130","1","right","3","out","Male","Left-handed","2","no","right","d","602.551220527","440.744288793","30","green","0"
"100","100","22","493.898943012","1","1","2","131","1","left","1","in","Male","Left-handed","2","no","left","s","804.330416861","313.220465312","30","red","3"
"100","100","22","498.902696365","1","1","2","132","2","right","2","out","Male","Left-handed","2","no","right","d","552.950782814","584.959703814","30","red","0"
"100","100","22","499.478127184","1","1","2","133","2","right","2","in","Male","Left-handed","2","no","right","d","527.479949724","488.7392292","30","green","3"
"100","100","22","499.929867262","1","1","2","134","0","left","3","in","Male","Left-handed","2","no","left","d","573.146822826","441.168594214","30","green","1"
"100","100","22","497.728814992","1","1","2","135","0","right","3","in","Male","Left-handed","2","no","right","s","575.809395461","344.812457326","30","green","0"
"100","100","22","501.640936268","1","1","2","136","1","right","1","in","Male","Left-handed","2","no","right","d","639.631922262","504.486316229","30","green","2"
"100","100","22","501.384108014","1","1","2","137","0","right","0","in","Male","Left-handed","2","no","right","d","592.045572263","400.963170097","30","red","2"
"100","100","22","500.587717147","1","1","2","138","1","right","3","in","Male","Left-handed","2","no","right","s","584.615897758","384.703901847","30","red","2"
"100","100","22","494.830503352","1","1","2","139","2","left","0","out","Male","Left-handed","2","no","left","s","443.368696393","304.489330945","30","red","2"
"100","100","22","491.403272943","1","1","2","140","1","right","2","in","Male","Left-handed","2","no","right","s","558.874702259","273.133705599","30","green","1"
"100","100","22","488.08497141","1","1","2","141","2","left","1","in","Male","Left-handed","2","no","left","d","430.749859606","392.778212703","30","green","2"
"100","100","22","485.429146607","1","1","2","142","3","left","2","in","Male","Left-handed","2","no","left","s","530.118468767","313.260233921","30","red","3"
"100","100","22","488.832094581","1","1","2","143","0","right","0","out","Male","Left-handed","2","no","right","d","643.009688469","504.801899402","30","red","1"
"100","100","22","496.114370343","1","1","2","144","1","right","1","in","Male","Left-handed","2","no","right","d","898.522692322","472.384387995","30","green","2"
"100","100","22","497.276434317","1","1","2","145","3","right","2","in","Male","Left-handed","2","no","right","s","681.152276258","376.152046945","30","green","1"
"100","100","22","501.310793762","1","1","2","146","3","right","0","in","Male","Left-handed","2","no","right","s","851.762503142","376.783213283","30","red","3"
"100","100","22","502.081341562","1","1","2","147","3","left","2","out","Male","Left-handed","2","no","left","d","632.393714379","416.460741166","30","red","3"
"100","100","22","502.741628787","1","1","2","148","3","right","3","in","Male","Left-handed","2","no","right","d","620.01092354","425.089567569","30","green","2"
"100","100","22","502.331374676","1","1","2","149","2","right","3","out","Male","Left-handed","2","no","right","s","402.723893268","576.503101151","30","red","2"
"100","100","22","499.63030353","1","1","2","150","2","left","2","out","Male","Left-handed","2","no","left","d","442.210275247","384.181778471","30","green","3"
"100","100","22","500.020643644","1","1","2","151","1","right","2","out","Male","Left-handed","2","no","right","s","400.856692846","624.947042001","30","green","3"
"100","97","22","501.393019298","1","0","2","152","0","right","0","in","Male","Left-handed","2","no","right","s","527.425748958","568.681834117","30","red","2"
"100","97","22","514.784854132","1","1","2","153","2","right","2","out","Male","Left-handed","2","no","right","d","759.0179334","1207.98021319","30","red","1"
"100","97","22","513.863664517","1","1","2","154","0","right","2","out","Male","Left-handed","2","no","right","d","520.66187797","440.739798789","30","green","0"
"100","97","22","514.467334483","1","1","2","155","0","left","2","in","Male","Left-handed","2","no","left","d","657.279564035","416.326682462","30","red","3"
"100","94","22","520.698575122","1","0","2","156","3","left","3","out","Male","Left-handed","2","no","left","s","865.938409326","649.033029433","30","red","0"
"100","95","22","519.641965442","1","1","2","157","2","left","1","out","Male","Left-handed","2","no","left","s","620.47499757","336.393378271","30","green","0"
"100","92","22","520.60631612","1","0","2","158","0","left","2","in","Male","Left-handed","2","no","left","s","758.22031618","360.140370365","30","red","3"
"100","92","22","519.598560156","1","1","2","159","1","left","2","in","Male","Left-handed","2","no","left","d","507.718478006","448.842653244","30","red","3"
"100","93","22","517.837284789","1","1","2","160","0","right","2","in","Male","Left-handed","2","no","right","s","495.462048719","392.265390052","30","green","3"
"100","93","22","524.182081547","1","1","2","161","0","right","1","out","Male","Left-handed","2","no","right","d","697.004878388","897.011805824","30","green","2"
"100","93","22","523.604983235","1","1","2","162","1","right","2","in","Male","Left-handed","2","no","right","s","531.661747442","464.76356759","30","green","0"
"100","93","22","530.966675229","1","1","2","163","2","left","2","out","Male","Left-handed","2","no","left","d","588.200204165","1136.28542574","30","green","1"
"100","93","22","533.092711174","1","1","2","164","0","left","2","in","Male","Left-handed","2","no","left","d","708.861055849","552.919673497","30","green","0"
"100","93","22","533.007776607","1","1","2","165","3","right","2","out","Male","Left-handed","2","no","right","d","569.587532155","488.444171766","30","red","0"
"100","93","22","533.274575363","1","1","2","166","3","right","0","out","Male","Left-handed","2","no","right","d","652.100985331","440.060845973","30","red","1"
"100","94","22","531.421105651","1","1","2","167","0","right","2","out","Male","Left-handed","2","no","right","s","576.598353389","304.603826062","30","red","1"
"100","94","22","531.577808252","1","1","2","168","3","left","3","out","Male","Left-handed","2","no","left","s","678.334477747","400.491398916","30","green","1"
"100","94","22","531.883324224","1","1","2","169","2","left","2","in","Male","Left-handed","2","no","left","d","478.930493769","615.998783847","30","green","1"
"100","94","22","531.972326251","1","1","2","170","3","left","1","out","Male","Left-handed","2","no","left","s","712.655430325","360.545432912","30","green","3"
"100","94","22","534.237058978","1","1","2","171","2","right","1","in","Male","Left-handed","2","no","right","d","684.377061592","624.158725506","30","red","2"
"100","94","22","534.749543907","1","1","2","172","1","left","2","in","Male","Left-handed","2","no","left","d","596.86559204","527.981868079","30","red","1"
"100","92","22","544.618889453","1","0","2","173","0","left","2","in","Male","Left-handed","2","no","left","s","1262.44685358","912.418935375","30","red","0"
"100","92","22","543.904892388","1","1","2","174","3","right","3","out","Male","Left-handed","2","no","right","d","567.907629065","439.93448442","30","red","2"
"100","93","22","547.729864257","1","1","2","175","1","right","0","in","Male","Left-handed","2","no","right","s","594.742140645","936.764380924","30","red","1"
"100","93","22","546.794521953","1","1","2","176","2","left","3","out","Male","Left-handed","2","no","left","s","568.948668664","416.140667992","30","red","0"
"100","93","22","544.87851117","1","1","2","177","1","right","2","in","Male","Left-handed","2","no","right","s","463.717396557","399.950353381","30","red","3"
"100","93","22","546.29117825","1","1","2","178","3","right","2","out","Male","Left-handed","2","no","right","d","391.476111414","870.626294687","30","green","3"
"100","93","22","543.788794246","1","1","2","179","0","left","0","out","Male","Left-handed","2","no","left","s","430.202079064","352.084660957","30","green","3"
"100","93","22","544.041203865","1","1","2","180","0","right","2","out","Male","Left-handed","2","no","right","s","551.647398668","567.733801748","30","green","1"
"100","93","22","544.429866852","1","1","2","181","0","left","2","out","Male","Left-handed","2","no","left","d","457.362436686","680.468833434","30","red","3"
"100","93","22","543.87017315","1","1","2","182","0","left","3","in","Male","Left-handed","2","no","left","s","392.046983409","624.052568972","30","green","2"
"100","93","22","542.29155599","1","1","2","183","2","right","2","in","Male","Left-handed","2","no","right","s","430.551337267","448.811543927","30","red","0"
"100","94","22","540.857623591","1","1","2","184","1","right","0","in","Male","Left-handed","2","no","right","d","364.236537284","528.199633296","30","red","3"
"100","94","22","538.342117077","1","1","2","185","2","right","2","in","Male","Left-handed","2","no","right","s","475.805771388","263.800589921","30","red","0"
"100","94","22","537.439841668","1","1","2","186","2","right","0","out","Male","Left-handed","2","no","right","s","551.685563703","400.484663911","30","red","1"
"100","94","22","537.493257548","1","1","2","187","2","left","2","in","Male","Left-handed","2","no","left","s","626.179227507","456.178679084","30","red","0"
"100","94","22","537.315211868","1","1","2","188","3","right","2","out","Male","Left-handed","2","no","right","d","537.797979949","511.906048581","30","green","1"
"100","94","22","537.053300682","1","1","2","189","2","left","0","out","Male","Left-handed","2","no","left","s","628.466243343","408.448969654","30","green","2"
"100","94","22","537.306528751","1","1","2","190","1","left","0","in","Male","Left-handed","2","no","left","d","519.167989347","591.909909985","30","green","2"
"100","93","22","538.554779731","1","0","2","191","1","left","2","in","Male","Left-handed","2","no","left","s","627.588447474","631.765755188","30","red","0"
"100","93","22","537.150904025","1","1","2","192","3","left","1","out","Male","Left-handed","2","no","left","s","522.338894632","344.189308853","30","red","0"
"100","93","22","540.919144928","1","1","2","193","3","right","0","out","Male","Left-handed","2","no","right","s","607.047318554","1040.0271068","30","green","2"
"100","93","22","542.101809568","1","1","2","194","3","left","0","in","Male","Left-handed","2","no","left","d","439.577208352","824.391436021","30","green","2"
"100","93","22","540.550872807","1","1","2","195","0","right","3","in","Male","Left-handed","2","no","right","s","482.133791225","360.123693208","30","green","2"
"100","92","22","543.193469302","1","0","2","196","3","left","2","out","Male","Left-handed","2","no","left","d","594.753365658","903.878626199","30","green","0"
"100","92","22","543.734493449","1","1","2","197","1","right","2","out","Male","Left-handed","2","no","right","d","500.467120819","672.483681239","30","red","3"
"100","92","22","542.120062584","1","1","2","198","1","right","2","out","Male","Left-handed","2","no","right","s","441.962683573","383.968503258","30","green","0"
"100","92","22","541.917287203","1","1","2","199","0","left","1","in","Male","Left-handed","2","no","left","s","675.594292177","375.390670477","30","green","3"
"100","92","22","540.800527453","1","1","2","200","0","left","1","out","Male","Left-handed","2","no","left","d","434.199786596","464.25266923","30","red","0"
"100","92","22","540.279150296","1","1","2","201","2","right","2","out","Male","Left-handed","2","no","right","d","465.986131658","528.023560979","30","red","3"
"100","92","22","538.505495228","1","1","2","202","1","right","2","out","Male","Left-handed","2","no","right","s","435.398938498","343.638000446","30","green","0"
"100","93","22","541.472574974","1","1","2","203","3","left","2","out","Male","Left-handed","2","no","left","d","1179.1931911","408.155515793","30","red","3"
"100","93","22","539.406874246","1","1","2","204","2","left","2","in","Male","Left-handed","2","no","left","s","387.785969186","335.727254038","30","green","3"
"100","93","22","542.314980911","1","1","2","205","1","left","2","out","Male","Left-handed","2","no","left","s","823.270217767","767.370303816","30","red","1"
"100","93","22","543.024525301","1","1","2","206","0","left","2","out","Male","Left-handed","2","no","left","d","755.100725233","455.828138023","30","red","0"
"100","93","22","543.086141484","1","1","2","207","2","right","1","out","Male","Left-handed","2","no","right","s","737.674055825","359.465907557","30","red","3"
"100","93","22","545.444868108","1","1","2","208","3","left","1","in","Male","Left-handed","2","no","left","d","635.274372944","880.186155584","30","green","2"
"100","93","22","545.954208982","1","1","2","209","1","left","3","out","Male","Left-handed","2","no","left","s","712.721176817","471.887280364","30","green","1"
"100","93","22","550.39367183","1","1","2","210","3","left","2","out","Male","Left-handed","2","no","left","d","590.398702774","1327.24980492","30","red","1"
"100","92","22","550.742314762","1","0","2","211","3","left","2","in","Male","Left-handed","2","no","left","s","598.104833265","568.227381522","30","red","0"
"100","92","22","557.50334518","1","1","2","212","3","left","2","in","Male","Left-handed","2","no","left","s","1026.47050051","1359.60990841","30","green","0"
"100","92","22","557.889201403","1","1","2","213","1","right","1","out","Male","Left-handed","2","no","right","d","517.010221494","672.080863697","30","green","0"
"100","100","22","473.506247681","1","1","3","214","0","left","2","in","Male","Left-handed","2","no","left","d","506.408038134","440.604457228","30","red","3"
"100","100","22","481.841860761","1","1","3","215","0","right","0","in","Male","Left-handed","2","no","right","d","524.20096362","456.153984062","30","green","1"
"100","66","22","913.871772529","1","0","3","216","1","right","2","in","Male","Left-handed","2","no","right","None","555.732340574","3000.13085156","30","red","0"
"100","75","22","793.084759739","1","1","3","217","2","right","0","out","Male","Left-handed","2","no","right","s","517.202329542","344.245113192","30","green","2"
"100","80","22","726.347346103","1","1","3","218","1","left","1","in","Male","Left-handed","2","no","left","s","557.91897274","360.876410381","30","red","2"
"100","83","22","682.382377118","1","1","3","219","1","right","1","in","Male","Left-handed","2","no","right","s","580.6043995","344.510664883","30","green","0"
"100","85","22","642.42106263","1","1","3","220","0","right","2","in","Male","Left-handed","2","no","right","s","541.282544113","264.023807289","30","red","3"
"100","87","22","634.905591242","1","1","3","221","0","right","2","in","Male","Left-handed","2","no","right","d","667.877578104","496.71700496","30","green","0"
"100","88","22","622.308612046","1","1","3","222","1","left","0","out","Male","Left-handed","2","no","left","d","578.48928669","464.576270264","30","green","3"
"100","90","22","621.676025654","1","1","3","223","1","right","2","out","Male","Left-handed","2","no","right","d","815.953434805","416.012061436","30","red","1"
"100","90","22","602.366867943","1","1","3","224","0","left","1","in","Male","Left-handed","2","no","left","s","489.780268803","328.770312862","30","green","2"
"100","91","22","594.029018365","1","1","3","225","0","left","1","out","Male","Left-handed","2","no","left","d","596.253668573","408.371677437","30","green","0"
"100","92","22","578.682862623","1","1","3","226","0","left","3","in","Male","Left-handed","2","no","left","s","468.948893165","320.109094278","30","green","0"
"100","92","22","568.997279836","1","1","3","227","3","left","2","out","Male","Left-handed","2","no","left","s","621.54907078","264.620336449","30","green","1"
"100","93","22","588.778185335","1","1","3","228","0","right","2","out","Male","Left-handed","2","no","right","d","931.289461929","800.132262703","30","red","1"
"100","93","22","603.621385026","1","1","3","229","3","right","3","in","Male","Left-handed","2","no","right","d","604.780187023","1047.75857374","30","red","0"
"100","94","22","603.789971251","1","1","3","230","2","left","3","in","Male","Left-handed","2","no","left","d","756.440029418","456.534672296","30","green","2"
"100","94","22","595.306090552","1","1","3","231","1","right","1","in","Male","Left-handed","2","no","right","d","502.020983073","400.139254282","30","green","2"
"100","94","22","599.193228912","1","1","3","232","3","left","2","out","Male","Left-handed","2","no","left","s","905.530306405","432.793132346","30","green","0"
"100","95","22","599.421871838","1","1","3","233","2","left","1","in","Male","Left-handed","2","no","left","d","375.311774682","832.220400207","30","green","2"
"100","95","22","590.038479186","1","1","3","234","1","left","3","in","Male","Left-handed","2","no","left","d","412.815819698","391.92543257","30","red","2"
"100","95","22","582.40024821","1","1","3","235","0","right","1","out","Male","Left-handed","2","no","right","s","483.413763209","360.58103223","30","green","3"
"100","95","22","583.131783959","1","1","3","236","2","left","2","out","Male","Left-handed","2","no","left","d","534.150813473","664.300327418","30","red","1"
"100","95","22","578.2671651","1","1","3","237","0","right","2","out","Male","Left-handed","2","no","right","s","500.845243336","431.916619335","30","red","1"
"100","96","22","576.196831532","1","1","3","238","2","right","2","in","Male","Left-handed","2","no","right","s","540.561898401","512.455753411","30","green","1"
"100","96","22","581.538850837","1","1","3","239","3","left","2","out","Male","Left-handed","2","no","left","d","590.016731679","840.161935219","30","green","1"
"100","96","22","576.007953437","1","1","3","240","1","right","2","out","Male","Left-handed","2","no","right","s","471.779199539","392.630042556","30","green","1"
"100","96","22","571.449429332","1","1","3","241","1","right","2","out","Male","Left-handed","2","no","right","d","464.202317034","432.536239947","30","green","3"
"100","96","22","566.865395075","1","1","3","242","3","left","2","out","Male","Left-handed","2","no","left","d","420.987627793","456.037243948","30","green","3"
"100","96","22","567.452128802","1","1","3","243","3","right","2","out","Male","Left-handed","2","no","right","d","608.414204195","560.520609601","30","green","1"
"100","93","22","573.457362499","1","0","3","244","3","right","2","out","Male","Left-handed","2","no","right","d","571.03042716","936.198319647","30","green","1"
"100","90","22","572.796587444","1","0","3","245","2","left","2","out","Male","Left-handed","2","no","left","s","600.772216625","503.852904887","30","red","0"
"100","87","22","573.768163635","1","0","3","246","1","left","2","out","Male","Left-handed","2","no","left","d","505.366677819","704.350525666","30","red","0"
"100","88","22","569.999810778","1","1","3","247","1","left","3","out","Male","Left-handed","2","no","left","s","531.163677657","360.124655352","30","red","2"
"100","88","22","570.332657557","1","1","3","248","1","right","2","out","Male","Left-handed","2","no","right","d","522.648704937","640.65019113","30","red","3"
"100","88","22","566.151128632","1","1","3","249","0","left","2","in","Male","Left-handed","2","no","left","s","463.386419084","376.208813432","30","green","3"
"100","86","22","563.740033805","1","0","3","250","1","left","0","out","Male","Left-handed","2","no","left","s","498.053422714","455.82781731","30","green","1"
"100","84","22","569.945837887","1","0","3","251","3","left","2","in","Male","Left-handed","2","no","left","d","623.62537712","975.495800721","30","green","0"
"100","84","22","568.964326117","1","1","3","252","0","left","2","in","Male","Left-handed","2","no","left","s","446.985715691","616.348042051","30","red","3"
"100","85","22","573.632829726","1","1","3","253","1","left","1","in","Male","Left-handed","2","no","left","d","719.613333644","791.7956073","30","red","3"
"100","85","22","570.248247261","1","1","3","254","0","right","2","in","Male","Left-handed","2","no","right","s","597.256863853","272.473033514","30","green","1"
"100","85","22","567.908625569","1","1","3","255","3","right","3","in","Male","Left-handed","2","no","right","s","560.05076271","383.917509636","30","red","2"
"100","86","22","567.250551967","1","1","3","256","2","right","2","in","Male","Left-handed","2","no","right","d","479.510345773","599.712575575","30","red","3"
"100","86","22","565.11389873","1","1","3","257","2","right","0","in","Male","Left-handed","2","no","right","s","610.168833788","336.306785324","30","red","1"
"100","86","22","561.717712494","1","1","3","258","3","right","0","out","Male","Left-handed","2","no","right","s","504.758602929","319.812433274","30","red","2"
"100","86","22","562.038363574","1","1","3","259","2","right","3","in","Male","Left-handed","2","no","right","d","601.46239445","551.472929925","30","red","0"
"100","85","22","562.030421363","1","0","3","260","3","right","1","out","Male","Left-handed","2","no","right","s","683.176626833","440.153532494","30","green","3"
"100","85","22","560.650158257","1","1","3","261","0","left","0","out","Male","Left-handed","2","no","left","s","695.763712873","295.791871617","30","red","3"
"100","85","22","559.502975619","1","1","3","262","0","right","2","out","Male","Left-handed","2","no","right","s","400.402881685","608.473536395","30","red","0"
"100","84","22","556.803010997","1","0","3","263","1","right","0","out","Male","Left-handed","2","no","right","s","504.929223098","344.080265884","30","red","2"
"100","84","22","552.996902834","1","1","3","264","2","right","2","out","Male","Left-handed","2","no","right","s","397.645377525","327.737611838","30","red","3"
"100","82","22","555.560113746","1","0","3","265","0","right","2","in","Male","Left-handed","2","no","right","d","612.243215841","760.324524694","30","red","1"
"100","83","22","552.811193298","1","1","3","266","0","right","2","in","Male","Left-handed","2","no","right","s","451.959357761","367.77530222","30","green","0"
"100","83","22","549.816575597","1","1","3","267","2","right","2","in","Male","Left-handed","2","no","right","s","462.689826967","319.513847975","30","red","3"
"100","83","22","550.584742901","1","1","3","268","3","left","1","in","Male","Left-handed","2","no","left","d","751.990114295","432.141440273","30","red","2"
"100","83","22","551.070461731","1","1","3","269","2","left","2","out","Male","Left-handed","2","no","left","d","691.803849662","463.766145174","30","red","1"
"100","84","22","552.146990435","1","1","3","270","2","right","0","in","Male","Left-handed","2","no","right","d","849.444057272","375.421138364","30","red","3"
"100","84","22","550.093270995","1","1","3","271","2","right","1","in","Male","Left-handed","2","no","right","s","538.008048014","328.054477864","30","green","3"
"100","84","22","549.593485271","1","1","3","272","3","left","0","in","Male","Left-handed","2","no","left","d","689.527738123","351.684088418","30","red","2"
"100","85","22","548.590224127","1","1","3","273","0","left","3","in","Male","Left-handed","2","no","left","s","667.447820535","311.347812742","30","red","2"
"100","85","22","546.348107721","1","1","3","274","3","left","3","out","Male","Left-handed","2","no","left","d","415.869343437","407.772903272","30","green","2"
"100","85","22","549.074869241","1","1","3","275","0","right","3","out","Male","Left-handed","2","no","right","s","1095.44306242","335.371581543","30","red","2"
"100","85","22","547.561372443","1","1","3","276","3","right","1","in","Male","Left-handed","2","no","right","s","612.147642893","295.301498987","30","red","2"
"100","85","22","549.510301874","1","1","3","277","1","right","3","out","Male","Left-handed","2","no","right","s","904.756742784","439.828969316","30","green","1"
"100","86","22","550.453605166","1","1","3","278","2","left","1","out","Male","Left-handed","2","no","left","d","622.350857284","599.29917445","30","green","0"
"100","86","22","552.054494834","1","1","3","279","1","left","2","in","Male","Left-handed","2","no","left","d","872.130446176","440.094200291","30","green","0"
"100","86","22","551.726277706","1","1","3","280","2","left","2","in","Male","Left-handed","2","no","left","s","716.663080009","343.464814563","30","red","0"
"100","86","22","550.983856661","1","1","3","281","0","left","0","out","Male","Left-handed","2","no","left","s","619.309841415","383.173451755","30","red","2"
"100","86","22","551.8957991","1","1","3","282","0","left","3","out","Male","Left-handed","2","no","left","d","715.904269258","511.911500729","30","green","1"
"100","87","22","551.426398816","1","1","3","283","0","left","0","in","Male","Left-handed","2","no","left","s","646.634725628","391.440832806","30","red","2"
"100","85","22","550.18351267","1","0","3","284","0","left","1","in","Male","Left-handed","2","no","left","s","455.140525915","471.222438987","30","green","2"
"100","86","22","548.149192995","1","1","3","285","2","right","0","out","Male","Left-handed","2","no","right","s","479.676796651","327.748195417","30","red","2"
"100","86","22","551.584457328","1","1","3","286","2","right","2","out","Male","Left-handed","2","no","right","d","622.491330283","975.355648443","30","red","1"
"100","86","22","549.447940084","1","1","3","287","3","right","2","in","Male","Left-handed","2","no","right","s","411.966888139","374.997474373","30","red","3"
"100","85","22","555.210358312","1","0","3","288","3","left","0","in","Male","Left-handed","2","no","left","s","571.590074142","1391.66854017","30","green","1"
"100","85","22","553.888835052","1","1","3","289","1","right","2","out","Male","Left-handed","2","no","right","d","470.303591654","439.245589456","30","green","1"
"100","85","22","552.873988329","1","1","3","290","3","right","2","out","Male","Left-handed","2","no","right","d","543.8649381","407.626336699","30","red","0"
"100","85","22","554.536169671","1","1","3","291","3","right","1","out","Male","Left-handed","2","no","right","d","597.443840466","767.604425477","30","green","0"
"100","86","22","554.701764791","1","1","3","292","2","left","2","in","Male","Left-handed","2","no","left","d","712.207071309","423.029296959","30","red","0"
"100","86","22","555.901736012","1","1","3","293","3","left","2","out","Male","Left-handed","2","no","left","s","917.679617014","383.719308011","30","red","0"
"100","85","22","556.350805029","1","0","3","294","1","left","2","in","Male","Left-handed","2","no","left","s","753.094013959","431.458638879","30","green","3"
"100","85","22","557.186693298","1","1","3","295","1","left","2","in","Male","Left-handed","2","no","left","d","882.960016191","366.827269849","30","green","0"
"100","85","22","554.23335336","1","1","3","296","2","left","3","out","Male","Left-handed","2","no","left","s","384.580426722","239.538530171","30","green","2"
"100","85","22","554.816417845","1","1","3","297","3","left","3","out","Male","Left-handed","2","no","left","s","831.250238531","375.171301686","30","red","1"
"100","85","22","554.133734858","1","1","3","298","2","left","3","out","Male","Left-handed","2","no","left","d","593.766847542","399.809880382","30","red","1"
"100","86","22","553.764762074","1","1","3","299","2","right","1","in","Male","Left-handed","2","no","right","s","653.365883729","391.438267088","30","green","2"
"100","86","22","552.210693319","1","1","3","300","3","right","2","in","Male","Left-handed","2","no","right","s","549.951780559","287.169780215","30","green","3"
"100","86","22","553.239032355","1","1","3","301","1","left","0","out","Male","Left-handed","2","no","left","d","557.803515479","727.605541564","30","green","2"
"100","86","22","554.065657047","1","1","3","302","1","left","3","in","Male","Left-handed","2","no","left","d","814.277059573","439.340200261","30","red","0"
"100","86","22","553.625229591","1","1","3","303","2","left","2","out","Male","Left-handed","2","no","left","s","469.822519746","559.031852412","30","red","0"
"100","86","22","551.652619972","1","1","3","304","1","left","2","in","Male","Left-handed","2","no","left","s","404.645294457","343.590213968","30","green","3"
"100","86","22","550.001170608","1","1","3","305","3","right","0","out","Male","Left-handed","2","no","right","d","344.340686141","455.097870869","30","green","3"
"100","87","22","548.806275934","1","1","3","306","3","right","2","out","Male","Left-handed","2","no","right","d","382.886091473","494.865840272","30","green","3"
"100","87","22","547.839975545","1","1","3","307","0","right","2","in","Male","Left-handed","2","no","right","s","508.429822996","407.518255877","30","green","0"
"100","86","22","549.169436107","1","0","3","308","1","right","2","in","Male","Left-handed","2","no","right","s","740.984151245","607.293306653","30","green","1"
"100","86","22","548.06605887","1","1","3","309","2","left","2","out","Male","Left-handed","2","no","left","s","559.748970267","326.741472276","30","red","3"
"100","100","22","426.428551042","1","1","4","310","2","right","3","out","Male","Left-handed","2","no","right","d","436.94414146","415.912960623","30","red","2"
"100","100","22","443.261497539","1","1","4","311","2","left","2","out","Male","Left-handed","2","no","left","s","535.516736971","384.6721511","30","green","1"
"100","100","22","491.408269584","1","1","4","312","2","right","1","in","Male","Left-handed","2","no","right","d","615.104631536","560.298995813","30","red","0"
"100","100","22","487.880355494","1","1","4","313","2","left","3","in","Male","Left-handed","2","no","left","d","562.745406806","391.847819639","30","red","1"
"100","100","22","475.310940826","1","1","4","314","2","left","2","in","Male","Left-handed","2","no","left","d","457.57025975","392.496304565","30","green","3"
"100","100","22","466.449430631","1","1","4","315","2","left","2","out","Male","Left-handed","2","no","left","s","540.134706549","304.149052754","30","green","3"
"100","100","22","458.053003953","1","1","4","316","3","left","2","out","Male","Left-handed","2","no","left","s","367.564272008","447.784615771","30","green","3"
"100","100","22","449.413164437","1","1","4","317","1","right","2","out","Male","Left-handed","2","no","right","s","425.342932111","352.525643539","30","green","0"
"100","100","22","455.866855405","1","1","4","318","0","left","2","out","Male","Left-handed","2","no","left","d","551.027778056","463.96498823","30","red","1"
"100","100","22","457.888905745","1","1","4","319","0","right","1","out","Male","Left-handed","2","no","right","s","592.526323453","359.648394166","30","red","2"
"100","90","22","468.502749997","1","0","4","320","2","right","2","out","Male","Left-handed","2","no","right","s","453.177431827","696.104953211","30","red","3"
"100","91","22","467.616831787","1","1","4","321","1","left","1","in","Male","Left-handed","2","no","left","d","507.754718754","407.988744198","30","green","3"
"100","92","22","469.058774924","1","1","4","322","0","right","2","in","Male","Left-handed","2","no","right","s","493.24879724","479.475387882","30","green","1"
"100","92","22","470.460970889","1","1","4","323","2","left","2","out","Male","Left-handed","2","no","left","d","561.148889509","416.230147366","30","red","0"
"100","93","22","477.153563818","1","1","4","324","0","left","0","out","Male","Left-handed","2","no","left","d","565.874939905","575.824789761","30","red","3"
"100","93","22","493.042988666","1","1","4","325","1","right","0","in","Male","Left-handed","2","no","right","s","559.48790858","903.280814178","30","green","2"
"100","94","22","487.565696736","1","1","4","326","2","left","1","out","Male","Left-handed","2","no","left","d","375.823955907","424.034095809","30","green","3"
"100","94","22","498.957784444","1","1","4","327","0","left","1","out","Male","Left-handed","2","no","left","d","929.582298093","455.664252862","30","red","3"
"100","94","22","491.575046804","1","1","4","328","3","right","0","in","Male","Left-handed","2","no","right","d","341.110448658","376.26108991","30","green","3"
"100","95","22","496.566694045","1","1","4","329","3","left","2","in","Male","Left-handed","2","no","left","s","838.902168256","343.913815006","30","green","0"
"100","95","22","497.730898365","1","1","4","330","2","right","1","in","Male","Left-handed","2","no","right","s","586.59374472","455.43622478","30","green","2"
"100","95","22","492.525760745","1","1","4","331","1","left","2","out","Male","Left-handed","2","no","left","s","486.161966648","280.273774817","30","green","0"
"100","95","22","491.424942095","1","1","4","332","2","left","3","in","Male","Left-handed","2","no","left","d","518.734062491","415.679801103","30","red","2"
"100","95","22","489.530819658","1","1","4","333","2","left","2","out","Male","Left-handed","2","no","left","s","492.486458628","399.445548592","30","green","1"
"100","96","22","489.771282381","1","1","4","334","3","right","1","out","Male","Left-handed","2","no","right","s","470.972923031","520.111852424","30","red","3"
"100","96","22","486.617973473","1","1","4","335","2","right","2","in","Male","Left-handed","2","no","right","s","487.728978198","327.841523369","30","red","0"
"100","96","22","483.793602145","1","1","4","336","2","right","0","out","Male","Left-handed","2","no","right","s","493.221215784","327.498679457","30","green","2"
"100","96","22","483.600585194","1","1","4","337","0","left","0","in","Male","Left-handed","2","no","left","d","476.838151695","479.940103342","30","red","2"
"100","93","22","488.483940377","1","0","4","338","2","right","2","in","Male","Left-handed","2","no","right","s","850.648019892","399.787751078","30","red","1"
"100","93","22","488.776645905","1","1","4","339","2","right","0","out","Male","Left-handed","2","no","right","s","667.2954811","327.23473134","30","green","2"
"100","93","22","488.230922419","1","1","4","340","1","right","3","in","Male","Left-handed","2","no","right","s","591.889704963","351.828730705","30","red","2"
"100","93","22","490.613009283","1","1","4","341","1","left","2","in","Male","Left-handed","2","no","left","d","633.405889668","495.509514479","30","red","3"
"100","93","22","489.97740138","1","1","4","342","2","right","3","out","Male","Left-handed","2","no","right","s","619.140824819","320.135072165","30","green","0"
"100","94","22","487.576030349","1","1","4","343","1","right","2","out","Male","Left-handed","2","no","right","d","424.878858077","391.782714574","30","red","1"
"100","94","22","487.838085309","1","1","4","344","3","right","1","in","Male","Left-handed","2","no","right","d","578.227904291","415.268003555","30","green","2"
"100","94","22","486.649969552","1","1","4","345","0","left","1","in","Male","Left-handed","2","no","left","s","642.077050401","248.054785752","30","green","0"
"100","94","22","483.98729627","1","1","4","346","0","right","2","in","Male","Left-handed","2","no","right","s","456.703688891","319.558427305","30","red","3"
"100","94","22","481.180382671","1","1","4","347","3","right","1","in","Male","Left-handed","2","no","right","s","419.294896117","335.354262956","30","red","0"
"100","94","22","484.044756858","1","1","4","348","3","left","2","out","Male","Left-handed","2","no","left","s","609.944654283","575.837297634","30","green","1"
"100","95","22","482.508317734","1","1","4","349","3","left","0","in","Male","Left-handed","2","no","left","s","477.540516676","367.633867078","30","red","2"
"100","95","22","480.294958405","1","1","4","350","3","left","2","out","Male","Left-handed","2","no","left","s","480.176149289","303.345021242","30","red","0"
"100","95","22","478.463010237","1","1","4","351","1","left","0","out","Male","Left-handed","2","no","left","d","406.77451871","399.931751934","30","red","1"
"100","95","22","477.672677199","1","1","4","352","1","left","2","out","Male","Left-handed","2","no","left","d","473.423824027","415.533555246","30","green","1"
"100","95","22","477.717915588","1","1","4","353","2","left","1","in","Male","Left-handed","2","no","left","d","536.165542617","423.160789946","30","red","2"
"100","95","22","475.029880802","1","1","4","354","0","left","2","in","Male","Left-handed","2","no","left","s","385.785351489","327.727348969","30","green","0"
"100","95","22","476.243090152","1","1","4","355","0","right","2","in","Male","Left-handed","2","no","right","d","590.384270614","471.2907512","30","green","1"
"100","95","22","474.845620102","1","1","4","356","0","right","3","in","Male","Left-handed","2","no","right","s","462.092014943","359.031980697","30","green","2"
"100","95","22","474.58234874","1","1","4","357","1","right","2","out","Male","Left-handed","2","no","right","s","564.618700806","359.7984886","30","green","1"
"100","95","22","476.033560571","1","1","4","358","2","right","2","in","Male","Left-handed","2","no","right","s","500.177194816","591.206262146","30","green","1"
"100","96","22","474.740309368","1","1","4","359","1","right","3","out","Male","Left-handed","2","no","right","s","543.844733082","278.897267737","30","green","1"
"100","96","22","476.326017639","1","1","4","360","0","left","0","in","Male","Left-handed","2","no","left","d","607.580346223","503.642516109","30","green","2"
"100","96","22","480.901244918","1","1","4","361","2","left","2","in","Male","Left-handed","2","no","left","d","565.291560044","863.184112314","30","green","0"
"100","94","22","482.409118664","1","0","4","362","1","right","0","in","Male","Left-handed","2","no","right","d","585.725249573","535.911857365","30","red","3"
"100","92","22","481.993383563","1","0","4","363","0","right","2","out","Male","Left-handed","2","no","right","s","368.466121472","551.452724903","30","red","3"
"100","92","22","479.594894889","1","1","4","364","0","left","3","in","Male","Left-handed","2","no","left","s","421.037338554","279.115674381","30","green","2"
"100","92","22","480.729863052","1","1","4","365","1","left","1","in","Male","Left-handed","2","no","left","d","719.7111516","366.595072475","30","green","0"
"100","92","22","480.028671211","1","1","4","366","1","right","2","in","Male","Left-handed","2","no","right","d","466.3010734","415.222782798","30","green","0"
"100","93","22","479.408079286","1","1","4","367","0","left","2","out","Male","Left-handed","2","no","left","s","601.05476619","287.013912923","30","red","0"
"100","93","22","478.987901683","1","1","4","368","3","right","0","out","Male","Left-handed","2","no","right","d","525.572018549","383.663182958","30","red","1"
"100","93","22","477.249652586","1","1","4","369","2","left","2","in","Male","Left-handed","2","no","left","s","390.089982899","359.295928818","30","green","0"
"100","93","22","476.309196049","1","1","4","370","0","right","2","in","Male","Left-handed","2","no","right","s","536.834553277","302.929054404","30","green","1"
"100","93","22","478.224474193","1","1","4","371","3","right","3","out","Male","Left-handed","2","no","right","d","526.522295921","663.590586002","30","red","2"
"100","92","22","477.088474535","1","0","4","372","3","left","3","in","Male","Left-handed","2","no","left","s","470.207377272","343.105614207","30","red","1"
"100","92","22","474.715444465","1","1","4","373","2","left","2","in","Male","Left-handed","2","no","left","s","371.691868953","278.737231147","30","green","3"
"100","90","22","474.231060218","1","0","4","374","2","left","0","out","Male","Left-handed","2","no","left","s","575.267387783","311.193549016","30","red","3"
"100","90","22","475.849186913","1","1","4","375","3","right","2","out","Male","Left-handed","2","no","right","d","730.989401345","431.065442775","30","red","1"
"100","91","22","473.733763578","1","1","4","376","3","right","2","in","Male","Left-handed","2","no","right","s","373.514169332","294.717477696","30","red","3"
"100","91","22","475.331592488","1","1","4","377","0","right","0","out","Male","Left-handed","2","no","right","d","525.355215475","639.41704348","30","green","1"
"100","91","22","475.775594003","1","1","4","378","3","right","3","out","Male","Left-handed","2","no","right","d","476.9590611","534.976332867","30","green","2"
"98","91","22","483.80143386","0","1","4","379","1","right","1","in","Male","Left-handed","2","no","left","s","393.676213593","1681.49255445","30","green","2"
"98","90","22","506.25669472","1","0","4","380","3","left","3","in","Male","Left-handed","2","no","left","None","1156.07479963","3000.17511017","30","red","0"
"98","90","22","506.072111859","1","1","4","381","1","right","2","in","Male","Left-handed","2","no","right","d","410.507315981","575.42614151","30","green","3"
"98","89","22","505.779516592","1","0","4","382","3","right","2","out","Male","Left-handed","2","no","right","s","618.18637816","351.238936546","30","green","0"
"98","87","22","506.009227358","1","0","4","383","1","right","3","in","Male","Left-handed","2","no","right","d","614.680646831","430.875579732","30","red","2"
"98","88","22","504.780834865","1","1","4","384","1","right","2","out","Male","Left-handed","2","no","right","d","372.382046782","455.377534006","30","red","3"
"98","88","22","503.100261563","1","1","4","385","3","right","2","out","Male","Left-handed","2","no","right","d","355.034914595","399.079613231","30","red","3"
"98","87","22","505.906238486","1","0","4","386","0","left","3","out","Male","Left-handed","2","no","left","s","455.684778593","982.636190653","30","red","1"
"98","87","22","504.622167647","1","1","4","387","1","left","2","in","Male","Left-handed","2","no","left","s","436.307843687","375.189582421","30","red","3"
"98","87","22","503.796416492","1","1","4","388","0","right","2","out","Male","Left-handed","2","no","right","s","392.025495526","486.75015723","30","green","3"
"98","87","22","503.967911141","1","1","4","389","3","left","2","out","Male","Left-handed","2","no","left","d","484.382000599","550.649976253","30","red","1"
"98","87","22","501.989050194","1","1","4","390","3","left","2","out","Male","Left-handed","2","no","left","s","408.204905845","279.15544299","30","green","1"
"98","86","22","506.662877176","1","0","4","391","3","right","0","in","Male","Left-handed","2","no","right","s","635.711827665","1134.77389781","30","red","2"
"98","86","22","505.833941606","1","1","4","392","1","right","0","in","Male","Left-handed","2","no","right","s","468.317406114","407.405043621","30","red","2"
"98","86","22","505.360668236","1","1","4","393","0","right","2","out","Male","Left-handed","2","no","right","d","501.100532161","431.05742491","30","red","0"
"98","85","22","504.157685636","1","0","4","394","0","left","2","out","Male","Left-handed","2","no","left","s","415.655426794","390.558867646","30","green","3"
"98","84","22","505.024348541","1","0","4","395","3","left","1","out","Male","Left-handed","2","no","left","d","510.142438976","647.238951944","30","green","2"
"98","83","22","504.154004292","1","0","4","396","0","right","2","in","Male","Left-handed","2","no","right","s","467.745571972","390.863225807","30","red","0"
"98","84","22","505.5548972","1","1","4","397","3","right","2","out","Male","Left-handed","2","no","right","s","528.296809818","726.568350536","30","green","0"
"98","84","22","504.055556879","1","1","4","398","0","left","3","out","Male","Left-handed","2","no","left","s","449.072926331","295.154290987","30","green","0"
"98","84","22","504.762642151","1","1","4","399","2","left","0","out","Male","Left-handed","2","no","left","d","505.805094679","629.581368023","30","red","1"
"98","84","22","505.098412386","1","1","4","400","1","right","3","out","Male","Left-handed","2","no","right","d","440.298816211","630.336650913","30","green","0"
"98","84","22","505.080194268","1","1","4","401","0","left","1","in","Male","Left-handed","2","no","left","d","463.959215365","542.885475701","30","green","2"
"98","84","22","503.671201099","1","1","4","402","1","left","1","in","Male","Left-handed","2","no","left","s","421.595702683","326.491956319","30","red","2"
"98","85","22","503.425997927","1","1","4","403","1","left","2","in","Male","Left-handed","2","no","left","d","490.126319862","471.117886027","30","red","1"
"98","85","22","503.994444683","1","1","4","404","3","left","2","in","Male","Left-handed","2","no","left","s","707.906929907","406.9499496","30","red","3"
"98","85","22","503.749718306","1","1","4","405","1","left","2","out","Male","Left-handed","2","no","left","s","610.474795521","350.526629413","30","red","0"
"100","100","22","413.278931586","1","1","5","406","1","left","2","in","Male","Left-handed","2","no","left","d","411.20102167","415.356841502","30","green","1"
"100","100","22","437.850561107","1","1","5","407","3","right","2","out","Male","Left-handed","2","no","right","s","492.909801902","431.934579352","30","green","1"
"100","66","22","444.434217212","1","0","5","408","1","right","2","out","Male","Left-handed","2","no","right","s","419.620100722","495.582958123","30","red","0"
"100","75","22","449.374357969","1","1","5","409","0","right","2","in","Male","Left-handed","2","no","right","d","401.108774527","527.280785955","30","red","3"
"100","80","22","427.954126266","1","1","5","410","3","right","2","out","Male","Left-handed","2","no","right","s","364.821200004","319.7251989","30","red","0"
"100","83","22","437.61654635","1","1","5","411","1","right","0","out","Male","Left-handed","2","no","right","s","636.307394681","335.549898864","30","red","1"
"100","71","22","459.685212202","1","0","5","412","3","right","2","out","Male","Left-handed","2","no","right","d","785.134685703","399.059728923","30","green","1"
"100","75","22","477.118396125","1","1","5","413","1","right","0","in","Male","Left-handed","2","no","right","d","582.629712222","615.671654955","30","red","3"
"100","77","22","466.802581952","1","1","5","414","3","left","2","out","Male","Left-handed","2","no","left","s","401.237701797","367.314435334","30","red","3"
"100","80","22","465.266800875","1","1","5","415","2","right","3","out","Male","Left-handed","2","no","right","d","503.978625016","398.910917349","30","green","2"
"100","81","22","491.976988902","1","1","5","416","0","left","2","in","Male","Left-handed","2","no","left","d","1118.63746325","399.520275096","30","green","3"
"100","83","22","479.327578537","1","1","5","417","3","right","2","out","Male","Left-handed","2","no","right","s","401.131865976","279.236263072","30","green","3"
"100","84","22","472.132047281","1","1","5","418","0","left","0","in","Male","Left-handed","2","no","left","s","467.78085058","303.790493828","30","red","3"
"100","78","22","470.909581894","1","0","5","419","2","left","3","out","Male","Left-handed","2","no","left","s","582.51906568","327.515998044","30","green","1"
"100","80","22","468.68370495","1","1","5","420","1","right","3","in","Male","Left-handed","2","no","right","s","556.020983713","319.021871772","30","red","2"
"100","81","22","467.306744195","1","1","5","421","2","left","1","out","Male","Left-handed","2","no","left","d","413.53646541","479.768200316","30","red","2"
"100","82","22","474.131207249","1","1","5","422","0","left","2","in","Male","Left-handed","2","no","left","d","527.253845929","639.39138631","30","green","1"
"100","83","22","471.675644359","1","1","5","423","3","right","3","out","Male","Left-handed","2","no","right","s","588.880760555","270.981389895","30","red","1"
"100","84","22","467.092487323","1","1","5","424","2","right","0","out","Male","Left-handed","2","no","right","s","457.68443415","311.506887184","30","green","3"
"100","85","22","464.577962032","1","1","5","425","1","right","1","out","Male","Left-handed","2","no","right","d","370.280403986","463.323559019","30","red","3"
"100","85","22","468.138760441","1","1","5","426","3","left","2","in","Male","Left-handed","2","no","left","s","599.818411392","478.891045874","30","red","0"
"100","86","22","466.117989095","1","1","5","427","2","left","1","in","Male","Left-handed","2","no","left","s","543.629212869","303.734368772","30","red","0"
"100","86","22","460.167148642","1","1","5","428","2","right","2","in","Male","Left-handed","2","no","right","s","371.125486963","287.371830418","30","green","0"
"100","83","22","459.694365932","1","0","5","429","2","left","1","out","Male","Left-handed","2","no","left","d","338.792002789","558.848724377","30","red","3"
"100","84","22","457.823374129","1","1","5","430","1","left","2","in","Male","Left-handed","2","no","left","d","346.405767472","479.433374268","30","red","3"
"100","80","22","458.216783385","1","0","5","431","0","left","0","out","Male","Left-handed","2","no","left","d","465.145217968","470.958811587","30","red","2"
"100","81","22","455.587221965","1","1","5","432","3","left","2","in","Male","Left-handed","2","no","left","s","463.756523735","310.680726368","30","green","0"
"100","82","22","451.934313388","1","1","5","433","0","left","2","in","Male","Left-handed","2","no","left","s","403.236715924","303.374847699","30","green","3"
"100","82","22","452.401479432","1","1","5","434","2","left","2","out","Male","Left-handed","2","no","left","d","467.999257227","462.965000093","30","green","1"
"100","83","22","452.009667193","1","1","5","435","2","right","2","out","Male","Left-handed","2","no","right","s","538.592069304","342.702155234","30","green","3"
"100","83","22","451.661786339","1","1","5","436","1","right","2","out","Male","Left-handed","2","no","right","d","443.228223397","439.222498004","30","red","0"
"100","84","22","452.121709508","1","1","5","437","3","left","2","out","Male","Left-handed","2","no","left","d","381.838637579","550.920017948","30","green","3"
"100","81","22","454.9820929","1","0","5","438","1","right","3","in","Male","Left-handed","2","no","right","s","726.427556827","366.601166053","30","green","1"
"100","82","22","455.367521108","1","1","5","439","1","left","2","in","Male","Left-handed","2","no","left","s","609.197068541","326.976235366","30","green","0"
"100","82","22","452.809036125","1","1","5","440","0","right","0","out","Male","Left-handed","2","no","right","s","468.716695792","262.924397622","30","green","2"
"100","83","22","453.004731467","1","1","5","441","3","right","0","out","Male","Left-handed","2","no","right","d","497.253560494","422.454576387","30","red","2"
"100","83","22","452.062757884","1","1","5","442","0","right","1","out","Male","Left-handed","2","no","right","s","461.126663988","375.176753838","30","red","0"
"100","84","22","449.450909591","1","1","5","443","0","right","1","in","Male","Left-handed","2","no","right","s","418.701894814","286.923150688","30","red","3"
"100","84","22","447.462688207","1","1","5","444","1","left","1","out","Male","Left-handed","2","no","left","s","424.448459078","319.372092119","30","green","0"
"100","85","22","446.837088527","1","1","5","445","3","right","3","out","Male","Left-handed","2","no","right","s","533.897448939","310.979953094","30","green","2"
"100","85","22","449.282528969","1","1","5","446","0","right","2","out","Male","Left-handed","2","no","right","d","655.617300243","438.58299308","30","red","1"
"100","83","22","451.852510165","1","0","5","447","3","left","0","in","Male","Left-handed","2","no","left","s","755.043638034","359.399840349","30","red","1"
"100","83","22","452.991738071","1","1","5","448","0","right","0","out","Male","Left-handed","2","no","right","d","578.735916217","422.942704015","30","green","1"
"100","84","22","452.380878797","1","1","5","449","0","left","2","out","Male","Left-handed","2","no","left","d","397.656281821","454.571578208","30","red","0"
"100","84","22","461.33271243","1","1","5","450","1","left","2","out","Male","Left-handed","2","no","left","d","447.221120212","1263.20566433","30","green","1"
"100","84","22","462.647328794","1","1","5","451","0","left","1","out","Male","Left-handed","2","no","left","d","436.700077644","606.910052702","30","red","2"
"100","85","22","464.662453782","1","1","5","452","0","right","1","in","Male","Left-handed","2","no","right","d","492.325780611","622.3906259","30","red","2"
"100","85","22","464.150945905","1","1","5","453","0","right","2","in","Male","Left-handed","2","no","right","d","465.073057185","415.147094147","30","green","3"
"100","85","22","464.209942188","1","1","5","454","1","right","0","out","Male","Left-handed","2","no","right","s","519.556054016","414.527473538","30","green","2"
"100","86","22","463.950841507","1","1","5","455","1","right","2","in","Male","Left-handed","2","no","right","d","472.179451368","430.330364907","30","green","0"
"100","86","22","464.23551414","1","1","5","456","0","left","2","out","Male","Left-handed","2","no","left","s","534.015792629","422.922498998","30","green","0"
"100","84","22","464.817136181","1","0","5","457","0","right","3","out","Male","Left-handed","2","no","right","d","486.351508978","502.608211515","30","green","2"
"100","83","22","464.637066859","1","0","5","458","2","left","2","out","Male","Left-handed","2","no","left","s","607.308700957","303.238223281","30","red","1"
"100","83","22","464.187706703","1","1","5","459","1","left","1","in","Male","Left-handed","2","no","left","d","370.08380593","510.659430918","30","green","2"
"100","83","22","464.68391083","1","1","5","460","0","left","2","out","Male","Left-handed","2","no","left","d","544.464032977","438.493834419","30","red","0"
"100","83","22","463.521425614","1","1","5","461","2","left","0","out","Male","Left-handed","2","no","left","s","480.127721385","319.04175608","30","green","2"
"100","84","22","463.966546789","1","1","5","462","2","right","3","in","Male","Left-handed","2","no","right","d","602.859747974","374.92691716","30","red","0"
"100","84","22","465.060809203","1","1","5","463","2","left","0","in","Male","Left-handed","2","no","left","d","632.476458748","422.391074899","30","green","1"
"100","84","22","467.989296047","1","1","5","464","3","left","1","in","Male","Left-handed","2","no","left","s","932.800348426","342.882717556","30","red","2"
"100","85","22","467.691034455","1","1","5","465","1","right","3","in","Male","Left-handed","2","no","right","s","557.469972293","342.717228821","30","red","0"
"100","85","22","467.298038404","1","1","5","466","2","right","2","in","Male","Left-handed","2","no","right","d","505.239354119","382.197196504","30","green","1"
"100","85","22","466.338959105","1","1","5","467","0","left","2","in","Male","Left-handed","2","no","left","d","440.747816654","374.922427156","30","red","0"
"100","85","22","465.414409517","1","1","5","468","3","left","1","in","Male","Left-handed","2","no","left","s","497.637455872","318.547214159","30","green","3"
"100","85","22","463.786848805","1","1","5","469","2","left","2","out","Male","Left-handed","2","no","left","s","427.213339673","295.287708261","30","red","0"
"100","86","22","462.787198386","1","1","5","470","3","left","2","out","Male","Left-handed","2","no","left","d","398.771406497","398.847736575","30","green","3"
"100","86","22","460.858789545","1","1","5","471","3","left","1","out","Male","Left-handed","2","no","left","s","400.540788967","270.48364083","30","red","0"
"100","86","22","459.975068796","1","1","5","472","3","right","2","in","Male","Left-handed","2","no","right","d","397.089579117","406.20941958","30","green","0"
"100","86","22","459.302981708","1","1","5","473","1","right","2","in","Male","Left-handed","2","no","right","s","485.618034679","342.92825903","30","green","3"
"100","86","22","458.971352624","1","1","5","474","1","right","3","out","Male","Left-handed","2","no","right","s","554.437615716","318.40353402","30","red","2"
"100","87","22","459.436926411","1","1","5","475","2","left","2","out","Male","Left-handed","2","no","left","s","624.033646811","359.089388614","30","green","0"
"100","87","22","461.828179753","1","1","5","476","3","right","0","in","Male","Left-handed","2","no","right","d","467.70836908","790.72345838","30","green","2"
"100","87","22","461.743879242","1","1","5","477","2","right","2","in","Male","Left-handed","2","no","right","d","529.183906412","382.333179495","30","red","3"
"100","87","22","462.480991235","1","1","5","478","3","left","3","out","Male","Left-handed","2","no","left","d","681.058306877","350.047802513","30","green","2"
"100","87","22","461.949420464","1","1","5","479","0","right","3","out","Male","Left-handed","2","no","right","d","487.591391637","358.698116794","30","red","0"
"100","88","22","460.347053825","1","1","5","480","2","left","2","in","Male","Left-handed","2","no","left","s","381.269689875","302.274155183","30","green","3"
"100","88","22","459.657018857","1","1","5","481","0","right","3","in","Male","Left-handed","2","no","right","s","504.758923642","311.049868877","30","green","2"
"100","88","22","461.231862543","1","1","5","482","0","left","2","in","Male","Left-handed","2","no","left","s","683.48226785","478.357697488","30","red","1"
"100","88","22","463.519805521","1","1","5","483","1","right","2","in","Male","Left-handed","2","no","right","s","609.18103281","670.201796839","30","red","1"
"100","88","22","463.276834151","1","1","5","484","1","right","1","out","Male","Left-handed","2","no","right","d","465.773818592","422.876316093","30","green","2"
"100","88","22","464.258666591","1","1","5","485","1","left","2","out","Male","Left-handed","2","no","left","d","629.278292723","454.368565865","30","red","1"
"100","88","22","462.725879642","1","1","5","486","2","right","2","in","Male","Left-handed","2","no","right","s","370.055262334","310.150585127","30","green","3"
"100","89","22","463.79230297","1","1","5","487","2","left","0","in","Male","Left-handed","2","no","left","d","501.712134908","598.633050216","30","green","2"
"100","89","22","462.327954631","1","1","5","488","2","left","1","in","Male","Left-handed","2","no","left","s","398.181612342","286.321169376","30","red","2"
"100","89","22","461.661726669","1","1","5","489","0","left","3","in","Male","Left-handed","2","no","left","s","526.769246164","285.960365447","30","red","1"
"100","89","22","460.549381475","1","1","5","490","3","left","2","out","Male","Left-handed","2","no","left","d","367.710197152","366.514573114","30","green","1"
"100","89","22","460.680001776","1","1","5","491","2","right","2","in","Male","Left-handed","2","no","right","d","561.307643238","382.257811565","30","red","0"
"98","88","22","473.641275902","0","0","5","492","3","right","2","in","Male","Left-handed","2","no","left","d","431.877812865","2744.74388854","30","red","1"
"98","88","22","472.818661082","1","1","5","493","2","right","2","in","Male","Left-handed","2","no","right","s","492.33347776","310.16886586","30","green","1"
"98","87","22","475.651772523","1","0","5","494","3","left","3","in","Male","Left-handed","2","no","left","s","723.953564371","725.977594236","30","green","0"
"98","87","22","474.862175572","1","1","5","495","3","left","0","out","Male","Left-handed","2","no","left","s","442.656389259","366.519704545","30","red","3"
"98","86","22","473.810974133","1","0","5","496","1","left","2","out","Male","Left-handed","2","no","left","s","472.055334816","286.350354407","30","green","3"
"98","86","22","474.572968854","1","1","5","497","3","left","1","in","Male","Left-handed","2","no","left","d","561.79416729","526.034809722","30","red","2"
"98","87","22","475.001719186","1","1","5","498","1","right","0","out","Male","Left-handed","2","no","right","d","438.415259345","590.478239996","30","red","2"
"98","87","22","474.636401589","1","1","5","499","1","right","2","in","Male","Left-handed","2","no","right","s","459.042339779","422.281390504","30","green","3"
"98","87","22","474.942920818","1","1","5","500","2","left","3","in","Male","Left-handed","2","no","left","d","433.772594744","573.738861982","30","red","2"
"98","87","22","475.863591888","1","1","5","501","0","right","2","in","Male","Left-handed","2","no","right","s","688.359054107","438.295632797","30","red","1"
dis_reply=Yes
dis_loc=3
