"acc_1","acc_2","age","avg_rt","correct_1","correct_2","count_block_loop","count_trial_sequence","cue_position","detection","dis_position","dis_shape","gender","hand","high_loc","practice","response_keyboard_response_1","response_keyboard_response_2","response_time_keyboard_response_1","response_time_keyboard_response_2","subject_nr","tar_color","tar_position"
"100","100","19","955.163634812","1","1","0","0","0","right","0","in","Female","Right-handed","1","yes","right","s","1005.20855216","905.118717465","1","green","3"
"100","100","19","977.928680039","1","1","0","1","3","right","2","in","Female","Right-handed","1","yes","right","d","1071.66922871","929.718221818","1","green","0"
"100","100","19","1013.38101853","1","1","0","2","2","right","1","out","Female","Right-handed","1","yes","right","s","615.297427892","1553.27396311","1","green","3"
"100","75","19","1006.85903618","1","0","0","3","0","left","2","in","Female","Right-handed","1","yes","left","d","1036.75749667","937.828681611","1","red","0"
"100","80","19","990.570949044","1","1","0","4","2","left","3","out","Female","Right-handed","1","yes","left","d","1241.3955456","609.441655396","1","green","1"
"100","83","19","972.456787031","1","1","0","5","1","left","1","in","Female","Right-handed","1","yes","left","s","1001.8954768","761.876477133","1","red","2"
"100","71","19","1016.52107111","1","0","0","6","2","right","1","in","Female","Right-handed","1","yes","right","d","1840.46628088","721.347270273","1","red","2"
"100","75","19","1026.13390646","1","1","0","7","0","right","2","out","Female","Right-handed","1","yes","right","d","1480.95206176","705.895446013","1","red","3"
"100","77","19","996.393658495","1","1","0","8","3","left","1","out","Female","Right-handed","1","yes","left","s","1043.59981513","473.343534484","1","green","2"
"100","70","19","1034.06845333","1","0","0","9","0","right","1","out","Female","Right-handed","1","yes","right","d","1545.11379115","1201.16942259","1","green","2"
"100","72","19","1054.80018494","1","1","0","10","0","left","1","in","Female","Right-handed","1","yes","left","s","1482.73175732","1041.5032446","1","red","3"
"100","75","19","1123.90998057","1","1","0","11","3","left","3","out","Female","Right-handed","1","yes","left","d","2695.12875291","1073.10671214","1","green","0"
"100","76","19","1094.5385523","1","1","0","12","2","left","3","in","Female","Right-handed","1","yes","left","s","578.468730567","905.694095702","1","red","2"
"100","78","19","1089.19432523","1","1","0","13","1","left","2","out","Female","Right-handed","1","yes","left","s","1126.20700339","913.231743047","1","red","3"
"100","80","19","1081.60918176","1","1","0","14","3","right","0","in","Female","Right-handed","1","yes","right","s","1308.90466778","641.929678773","1","green","1"
"100","81","19","1061.12291285","1","1","0","15","1","left","0","in","Female","Right-handed","1","yes","left","d","482.335984329","1025.32177402","1","red","1"
"100","82","19","1052.96737016","1","1","0","16","2","right","0","in","Female","Right-handed","1","yes","right","d","635.94786188","1209.00951234","1","red","2"
"100","83","19","1098.44161801","1","1","0","17","1","left","1","in","Female","Right-handed","1","yes","left","d","2173.5987343","1569.40892875","1","red","2"
"100","84","19","1114.31365028","1","1","0","18","1","right","3","in","Female","Right-handed","1","yes","right","d","1943.06321239","856.957249782","1","red","1"
"100","85","19","1099.37377103","1","1","0","19","3","left","3","in","Female","Right-handed","1","yes","left","d","1157.54459101","473.487539405","1","green","1"
"100","85","19","1095.8368023","1","1","0","20","0","left","3","in","Female","Right-handed","1","yes","left","d","1385.04895366","665.145902002","1","red","0"
"100","86","19","1069.83048355","1","1","0","21","3","right","2","out","Female","Right-handed","1","yes","right","d","493.619683965","553.775895629","1","red","3"
"100","100","19","614.715154096","1","1","1","22","2","right","0","in","Female","Right-handed","1","no","right","s","747.634743224","481.795564969","1","green","3"
"100","100","19","734.228895341","1","1","1","23","0","left","1","out","Female","Right-handed","1","no","left","d","1034.26803966","673.217233509","1","green","2"
"100","100","19","827.073662847","1","1","1","24","3","left","1","in","Female","Right-handed","1","no","left","s","1231.6769774","793.849418319","1","red","3"
"100","100","19","800.052574625","1","1","1","25","1","left","1","in","Female","Right-handed","1","no","left","d","764.456378215","673.522241705","1","red","2"
"100","100","19","839.737564662","1","1","1","26","3","right","3","out","Female","Right-handed","1","no","right","d","1387.04481696","609.910232656","1","green","1"
"100","100","19","797.44759028","1","1","1","27","2","left","1","in","Female","Right-handed","1","no","left","d","610.517683259","561.477753485","1","green","3"
"100","100","19","782.410832066","1","1","1","28","0","right","0","out","Female","Right-handed","1","no","right","d","655.225598623","729.154966934","1","green","3"
"100","100","19","757.077789759","1","1","1","29","1","left","2","out","Female","Right-handed","1","no","left","s","565.696873169","593.796114048","1","red","1"
"100","100","19","817.388734995","1","1","1","30","2","left","3","in","Female","Right-handed","1","no","left","s","1814.49151349","785.261080281","1","green","0"
"100","100","19","851.285973568","1","1","1","31","0","left","1","out","Female","Right-handed","1","no","left","d","1454.82142267","857.900818776","1","green","2"
"100","100","19","852.247539532","1","1","1","32","3","right","0","in","Female","Right-handed","1","no","right","d","1194.43390511","529.292493238","1","red","1"
"100","100","19","838.031868065","1","1","1","33","2","right","1","in","Female","Right-handed","1","no","right","s","650.121923098","713.197040747","1","green","3"
"100","100","19","833.749451717","1","1","1","34","3","right","1","in","Female","Right-handed","1","no","right","d","562.88476816","1001.83614293","1","red","3"
"100","100","19","841.315843478","1","1","1","35","3","right","1","out","Female","Right-handed","1","no","right","s","1422.15122826","457.206644496","1","red","2"
"100","100","19","860.684432833","1","1","1","36","2","left","2","out","Female","Right-handed","1","no","left","s","1365.79302612","897.896341473","1","green","1"
"100","100","19","867.449403438","1","1","1","37","3","left","2","out","Female","Right-handed","1","no","left","d","1216.33740642","721.510518613","1","red","1"
"100","100","19","864.922742482","1","1","1","38","1","left","1","in","Female","Right-handed","1","no","left","d","1023.99461954","624.997714845","1","red","2"
"100","100","19","867.926274968","1","1","1","39","1","left","1","out","Female","Right-handed","1","no","left","d","1236.46826808","601.504386377","1","red","0"
"100","100","19","870.255321856","1","1","1","40","3","left","1","in","Female","Right-handed","1","no","left","d","879.185964876","945.170366802","1","red","3"
"100","100","19","875.682475884","1","1","1","41","2","left","1","in","Female","Right-handed","1","no","left","s","923.704974008","1033.89183082","1","green","3"
"100","100","19","872.826961692","1","1","1","42","2","left","2","in","Female","Right-handed","1","no","left","s","1046.19767674","585.235678967","1","green","0"
"100","100","19","865.670662757","1","1","1","43","2","right","1","out","Female","Right-handed","1","no","right","s","869.782026582","560.994743661","1","green","2"
"100","100","19","854.860177246","1","1","1","44","1","left","0","out","Female","Right-handed","1","no","left","d","656.588994881","577.469997103","1","green","1"
"100","100","19","848.661618851","1","1","1","45","3","left","1","out","Female","Right-handed","1","no","left","s","819.095822286","593.093729243","1","green","2"
"100","100","19","848.305716354","1","1","1","46","1","right","1","in","Female","Right-handed","1","no","right","s","966.730373076","712.797739797","1","green","2"
"100","100","19","853.439195001","1","1","1","47","3","right","2","out","Female","Right-handed","1","no","right","d","1274.25304262","689.29927975","1","green","1"
"100","100","19","858.807641153","1","1","1","48","0","left","1","in","Female","Right-handed","1","no","left","s","1235.85825169","760.916230509","1","green","0"
"100","100","19","856.971241351","1","1","1","49","2","right","1","in","Female","Right-handed","1","no","right","d","981.354730305","633.422163095","1","red","2"
"100","100","19","879.008212085","1","1","1","50","2","left","1","out","Female","Right-handed","1","no","left","s","1943.00323706","1049.08354819","1","red","0"
"100","100","19","892.475454217","1","1","1","51","3","right","3","in","Female","Right-handed","1","no","right","s","1684.52819466","881.522757429","1","red","1"
"100","96","19","893.604195082","1","0","1","52","1","right","1","in","Female","Right-handed","1","no","right","s","909.997244984","944.935597086","1","green","0"
"100","96","19","905.621151116","1","1","1","53","1","left","0","out","Female","Right-handed","1","no","left","s","1738.70643811","817.587138212","1","green","2"
"100","96","19","905.213666245","1","1","1","54","0","right","1","out","Female","Right-handed","1","no","right","s","1247.20064376","537.147657002","1","red","3"
"100","97","19","905.962791377","1","1","1","55","1","right","1","out","Female","Right-handed","1","no","right","d","1236.73543089","624.632410601","1","green","2"
"100","97","19","911.271328868","1","1","1","56","2","left","1","out","Female","Right-handed","1","no","left","s","1382.31606739","801.207139693","1","green","0"
"100","97","19","910.814627037","1","1","1","57","1","left","3","in","Female","Right-handed","1","no","left","s","908.908708898","880.751417037","1","red","2"
"100","94","19","914.358544932","1","0","1","58","1","left","3","out","Female","Right-handed","1","no","left","s","1315.52087606","768.358302204","1","red","0"
"100","94","19","906.035320351","1","1","1","59","0","right","1","out","Female","Right-handed","1","no","right","s","579.055013408","617.097008321","1","red","0"
"100","94","19","916.692635003","1","1","1","60","2","left","3","in","Female","Right-handed","1","no","left","s","906.640551209","1736.70063237","1","green","1"
"100","92","19","919.128644343","1","0","1","61","0","right","2","out","Female","Right-handed","1","no","right","s","1043.15240564","985.113611544","1","green","3"
"100","92","19","921.630459091","1","1","1","62","2","left","2","out","Female","Right-handed","1","no","left","d","1434.64886693","608.757231115","1","red","1"
"100","92","19","921.1554844","1","1","1","63","3","right","0","in","Female","Right-handed","1","no","right","s","1162.34967281","641.01337129","1","red","3"
"100","93","19","919.960592461","1","1","1","64","3","left","2","in","Female","Right-handed","1","no","left","s","1154.71773271","584.832529333","1","red","0"
"100","93","19","913.755998662","1","1","1","65","0","left","0","in","Female","Right-handed","1","no","left","d","660.5075965","633.409334148","1","red","1"
"100","93","19","920.306286814","1","1","1","66","3","right","0","in","Female","Right-handed","1","no","right","d","1351.98843855","1065.04949247","1","red","1"
"100","93","19","923.019315638","1","1","1","67","0","right","1","in","Female","Right-handed","1","no","right","d","777.565316174","1312.64590922","1","green","3"
"100","93","19","921.436099807","1","1","1","68","1","right","1","in","Female","Right-handed","1","no","right","s","816.092245255","881.124097925","1","green","0"
"100","93","19","925.421891255","1","1","1","69","1","left","2","in","Female","Right-handed","1","no","left","d","960.822322622","1264.68585599","1","red","0"
"100","93","19","931.650637477","1","1","1","70","2","right","0","in","Female","Right-handed","1","no","right","s","1428.18820962","1033.0727026","1","green","1"
"100","94","19","930.722757171","1","1","1","71","2","left","1","in","Female","Right-handed","1","no","left","s","1105.76824701","664.744997433","1","green","0"
"100","94","19","931.215818916","1","1","1","72","2","right","3","out","Female","Right-handed","1","no","right","d","1279.38814907","632.349663192","1","red","1"
"100","94","19","943.170392682","1","1","1","73","3","right","0","out","Female","Right-handed","1","no","right","s","1840.81522822","1264.8920813","1","red","2"
"100","94","19","941.778777688","1","1","1","74","1","left","1","out","Female","Right-handed","1","no","left","d","1010.36514709","728.464448905","1","red","3"
"100","94","19","941.625809146","1","1","1","75","3","right","1","in","Female","Right-handed","1","no","right","s","1370.12888922","496.908063602","1","red","2"
"100","94","19","936.9176719","1","1","1","76","3","right","1","out","Female","Right-handed","1","no","right","s","1028.61304017","336.743481051","1","green","0"
"100","94","19","940.994098089","1","1","1","77","0","left","3","out","Female","Right-handed","1","no","left","d","1425.14710792","905.247969098","1","green","2"
"100","94","19","937.920630832","1","1","1","78","1","right","0","in","Female","Right-handed","1","no","right","d","658.731749621","872.881179262","1","green","1"
"100","94","19","940.76469931","1","1","1","79","0","left","1","in","Female","Right-handed","1","no","left","s","1189.38635622","1016.36684885","1","red","3"
"100","94","19","936.591161233","1","1","1","80","2","left","2","in","Female","Right-handed","1","no","left","s","676.036715161","713.015190435","1","red","3"
"100","95","19","935.916249218","1","1","1","81","3","left","3","out","Female","Right-handed","1","no","left","d","935.689454831","856.50342581","1","green","0"
"100","95","19","933.215860496","1","1","1","82","3","left","1","in","Female","Right-handed","1","no","left","d","773.227849461","769.15722483","1","red","3"
"100","95","19","928.91126041","1","1","1","83","0","left","1","out","Female","Right-handed","1","no","left","d","811.769852554","520.891457814","1","green","3"
"100","95","19","932.789891536","1","1","1","84","0","left","3","in","Female","Right-handed","1","no","left","s","1466.27703019","880.253012478","1","green","1"
"100","95","19","932.681938912","1","1","1","85","1","right","1","out","Female","Right-handed","1","no","right","s","978.794714089","872.967133202","1","red","3"
"100","93","19","946.485284446","1","0","1","86","1","right","3","in","Female","Right-handed","1","no","right","d","1059.41117061","2600.38762661","1","green","1"
"100","93","19","948.521617994","1","1","1","87","3","left","3","in","Female","Right-handed","1","no","left","d","960.834830846","1200.93176636","1","green","2"
"100","94","19","944.782532919","1","1","1","88","3","right","1","out","Female","Right-handed","1","no","right","s","763.397990153","632.607845734","1","red","0"
"100","94","19","946.32930173","1","1","1","89","2","right","0","out","Female","Right-handed","1","no","right","d","1146.91965776","953.005966422","1","green","1"
"100","94","19","956.180221892","1","1","1","90","0","left","2","in","Female","Right-handed","1","no","left","d","1971.68106342","1280.40452233","1","green","0"
"100","94","19","950.548648212","1","1","1","91","0","right","3","in","Female","Right-handed","1","no","right","s","594.995941242","528.944187349","1","red","0"
"100","94","19","947.691390249","1","1","1","92","3","left","1","in","Female","Right-handed","1","no","left","d","758.711896827","736.654768888","1","red","0"
"100","94","19","943.546099714","1","1","1","93","1","right","2","out","Female","Right-handed","1","no","right","d","866.296081173","432.164862223","1","red","1"
"100","94","19","938.408141386","1","1","1","94","2","right","1","in","Female","Right-handed","1","no","right","s","575.874396919","561.075886745","1","green","2"
"100","94","19","936.309071262","1","1","1","95","2","right","1","out","Female","Right-handed","1","no","right","d","797.574302851","768.579601527","1","green","0"
"100","94","19","935.693429666","1","1","1","96","3","left","2","in","Female","Right-handed","1","no","left","d","1212.20648574","568.065417363","1","green","3"
"100","94","19","935.752339877","1","1","1","97","0","left","0","out","Female","Right-handed","1","no","left","s","983.74797022","896.593241262","1","red","1"
"100","94","19","932.260292088","1","1","1","98","2","right","3","out","Female","Right-handed","1","no","right","d","637.397212077","696.332108062","1","green","2"
"100","94","19","927.505189535","1","1","1","99","0","right","1","in","Female","Right-handed","1","no","right","d","513.930471601","608.794114336","1","green","0"
"100","93","19","927.695894751","1","0","1","100","3","left","1","out","Female","Right-handed","1","no","left","d","1076.57790426","808.563898896","1","green","0"
"100","93","19","923.313494704","1","1","1","101","0","right","1","in","Female","Right-handed","1","no","right","s","554.129333097","600.078449005","1","red","0"
"100","93","19","922.176080383","1","1","1","102","1","right","1","in","Female","Right-handed","1","no","right","s","1061.7688102","600.597059157","1","red","3"
"100","93","19","921.42081338","1","1","1","103","1","left","0","in","Female","Right-handed","1","no","left","s","1080.23736116","640.251011161","1","green","3"
"100","93","19","925.274860269","1","1","1","104","3","right","1","in","Female","Right-handed","1","no","right","d","1337.85959937","1144.75381092","1","red","2"
"100","94","19","925.168533408","1","1","1","105","1","right","2","out","Female","Right-handed","1","no","right","d","1048.26089202","784.425915882","1","green","3"
"100","94","19","926.61239054","1","1","1","106","2","left","0","out","Female","Right-handed","1","no","left","d","1191.94701389","903.845765277","1","red","2"
"100","94","19","925.668984979","1","1","1","107","1","right","1","out","Female","Right-handed","1","no","right","s","1226.55341701","464.405607661","1","red","0"
"100","94","19","924.662068691","1","1","1","108","2","right","1","out","Female","Right-handed","1","no","right","s","932.136478178","743.998057698","1","red","2"
"100","94","19","923.150439163","1","1","1","109","0","left","2","out","Female","Right-handed","1","no","left","d","1086.69898064","496.578359684","1","red","1"
"100","94","19","921.791486229","1","1","1","110","1","right","1","out","Female","Right-handed","1","no","right","s","948.10081884","656.30643734","1","red","3"
"100","93","19","919.314044443","1","0","1","111","2","right","1","in","Female","Right-handed","1","no","right","d","556.769530227","840.873920644","1","green","3"
"100","93","19","922.094216986","1","1","1","112","0","left","1","out","Female","Right-handed","1","no","left","s","1544.25328958","800.36620227","1","green","2"
"100","93","19","918.489554177","1","1","1","113","1","right","3","out","Female","Right-handed","1","no","right","d","572.926625805","608.003851249","1","green","1"
"100","93","19","924.092225404","1","1","1","114","0","left","1","out","Female","Right-handed","1","no","left","d","1678.68332676","1200.3926299","1","red","2"
"100","93","19","923.586959644","1","1","1","115","0","right","3","in","Female","Right-handed","1","no","right","s","1185.1220145","568.072473283","1","red","1"
"100","93","19","922.762714916","1","1","1","116","0","left","2","out","Female","Right-handed","1","no","left","d","1081.89261595","608.674805136","1","red","1"
"100","93","19","923.273229854","1","1","1","117","0","right","0","out","Female","Right-handed","1","no","right","d","1247.29108783","696.253210043","1","red","2"
"100","100","19","778.984037263","1","1","2","118","3","right","1","out","Female","Right-handed","1","no","right","d","956.5050615","601.463013026","1","red","0"
"100","100","19","736.827157853","1","1","2","119","2","right","1","out","Female","Right-handed","1","no","right","s","940.230260341","449.110296544","1","red","0"
"100","100","19","701.99849324","1","1","2","120","1","left","2","in","Female","Right-handed","1","no","left","s","743.787021533","520.895306497","1","red","3"
"100","100","19","672.214811724","1","1","2","121","0","right","3","out","Female","Right-handed","1","no","right","d","716.228200012","449.499334339","1","red","0"
"100","100","19","668.462601537","1","1","2","122","0","left","2","in","Female","Right-handed","1","no","left","d","874.015578831","432.891942748","1","green","1"
"100","100","19","660.564899127","1","1","2","123","1","left","1","in","Female","Right-handed","1","no","left","d","641.6073515","600.545422648","1","red","0"
"100","100","19","649.097256837","1","1","2","124","2","right","0","out","Female","Right-handed","1","no","right","d","647.265558224","513.317247973","1","red","3"
"100","100","19","645.941430569","1","1","2","125","3","left","1","in","Female","Right-handed","1","no","left","d","758.845638591","488.85565479","1","green","0"
"100","100","19","654.276381329","1","1","2","126","0","left","3","out","Female","Right-handed","1","no","left","d","912.396257925","529.515716902","1","red","1"
"100","100","19","642.056172182","1","1","2","127","2","left","2","out","Female","Right-handed","1","no","left","d","630.989794894","433.158784829","1","red","3"
"100","100","19","641.242834487","1","1","2","128","1","right","0","in","Female","Right-handed","1","no","right","s","825.650451628","440.568463435","1","green","1"
"100","100","19","662.202313658","1","1","2","129","1","left","1","in","Female","Right-handed","1","no","left","s","1208.23817195","577.274997121","1","green","2"
"100","92","19","682.095370041","1","0","2","130","1","left","1","in","Female","Right-handed","1","no","left","s","1336.8919761","504.732117171","1","red","0"
"100","92","19","684.651089088","1","1","2","131","1","right","1","in","Female","Right-handed","1","no","right","s","923.355705946","512.395167464","1","red","3"
"100","93","19","697.007605534","1","1","2","132","3","left","3","in","Female","Right-handed","1","no","left","d","802.965346771","937.032324775","1","red","0"
"100","93","19","706.573285435","1","1","2","133","2","right","1","in","Female","Right-handed","1","no","right","s","963.60267599","736.514291927","1","red","0"
"100","94","19","718.054740095","1","1","2","134","1","left","1","in","Female","Right-handed","1","no","left","s","1354.23510776","449.280921529","1","red","3"
"100","94","19","721.754268591","1","1","2","135","1","right","0","in","Female","Right-handed","1","no","right","d","1104.60818955","464.684316517","1","green","1"
"100","94","19","719.287962763","1","1","2","136","0","left","0","out","Female","Right-handed","1","no","left","d","885.39421267","464.394703056","1","red","1"
"100","95","19","704.04517521","1","1","2","137","0","right","1","out","Female","Right-handed","1","no","right","d","379.941108722","448.923314653","1","green","0"
"100","95","19","715.883254085","1","1","2","138","0","right","0","in","Female","Right-handed","1","no","right","s","1296.73160145","608.558061725","1","red","2"
"100","95","19","702.740239585","1","1","2","139","0","right","1","in","Female","Right-handed","1","no","right","s","436.134138179","417.339731985","1","red","0"
"100","95","19","706.225052319","1","1","2","140","1","left","1","in","Female","Right-handed","1","no","left","s","1060.86629384","504.915571101","1","green","3"
"100","95","19","700.673009191","1","1","2","141","2","right","3","in","Female","Right-handed","1","no","right","d","665.562522029","480.389512465","1","green","2"
"100","96","19","710.007790378","1","1","2","142","0","left","1","out","Female","Right-handed","1","no","left","d","1235.15618761","632.928890113","1","green","2"
"100","96","19","703.381163757","1","1","2","143","1","right","1","in","Female","Right-handed","1","no","right","s","578.774059485","496.65693698","1","green","2"
"100","96","19","708.705656376","1","1","2","144","2","left","1","out","Female","Right-handed","1","no","left","d","965.083136383","729.201792588","1","red","2"
"100","96","19","706.498263304","1","1","2","145","3","right","1","in","Female","Right-handed","1","no","right","s","892.786892922","401.010407803","1","red","2"
"100","96","19","701.339085405","1","1","2","146","1","right","3","out","Female","Right-handed","1","no","right","d","609.373341257","504.390867202","1","green","1"
"100","93","19","696.83204675","1","0","2","147","0","left","1","in","Female","Right-handed","1","no","left","s","603.14456715","529.111284373","1","green","3"
"100","93","19","696.957508844","1","1","2","148","3","right","1","in","Female","Right-handed","1","no","right","s","848.666864019","552.775879272","1","green","2"
"100","93","19","691.626530774","1","1","2","149","1","left","3","in","Female","Right-handed","1","no","left","d","612.32880974","440.403611477","1","green","0"
"100","93","19","692.743453333","1","1","2","150","1","left","2","out","Female","Right-handed","1","no","left","s","727.914087113","729.055863326","1","green","1"
"100","94","19","700.971691742","1","1","2","151","0","left","1","out","Female","Right-handed","1","no","left","s","1032.4341418","912.572976659","1","red","3"
"100","94","19","701.303755404","1","1","2","152","3","right","1","in","Female","Right-handed","1","no","right","d","952.114033937","473.07380589","1","green","2"
"100","94","19","696.274506984","1","1","2","153","1","left","3","in","Female","Right-handed","1","no","left","s","543.64327319","496.858351436","1","red","1"
"100","94","19","702.760940051","1","1","2","154","3","left","0","out","Female","Right-handed","1","no","left","d","1280.26917695","592.275883923","1","red","1"
"100","94","19","700.57878044","1","1","2","155","2","right","1","out","Female","Right-handed","1","no","right","d","726.953519766","512.724229934","1","red","3"
"100","94","19","701.344640503","1","1","2","156","1","left","2","in","Female","Right-handed","1","no","left","d","620.428044205","840.466601603","1","red","0"
"100","95","19","699.503467664","1","1","2","157","3","right","3","out","Female","Right-handed","1","no","right","d","655.133550934","600.261902937","1","green","2"
"100","95","19","702.680105322","1","1","2","158","2","left","2","out","Female","Right-handed","1","no","left","s","1082.73996784","576.751255393","1","red","1"
"100","95","19","699.506474257","1","1","2","159","0","left","1","out","Female","Right-handed","1","no","left","s","530.403159256","608.372042005","1","green","0"
"100","95","19","704.573214263","1","1","2","160","2","right","0","out","Female","Right-handed","1","no","right","s","1161.9346564","672.817932557","1","red","1"
"100","95","19","704.877924704","1","1","2","161","0","left","2","out","Female","Right-handed","1","no","left","d","939.450901859","496.510045546","1","green","0"
"100","95","19","711.69260448","1","1","2","162","2","left","0","out","Female","Right-handed","1","no","left","s","1535.02927726","488.047751904","1","green","2"
"100","95","19","711.312677717","1","1","2","163","0","left","1","in","Female","Right-handed","1","no","left","s","907.651151446","480.780795324","1","red","2"
"100","95","19","707.375067064","1","1","2","164","0","right","1","out","Female","Right-handed","1","no","right","d","612.23932784","440.250626292","1","red","3"
"100","95","19","708.294642702","1","1","2","165","2","right","2","in","Female","Right-handed","1","no","right","s","902.963454501","600.065940784","1","red","0"
"100","95","19","708.441808564","1","1","2","166","2","right","3","out","Female","Right-handed","1","no","right","s","798.454047837","632.55749212","1","green","0"
"100","96","19","703.106894949","1","1","2","167","0","right","1","out","Female","Right-handed","1","no","right","s","451.084350642","432.307904972","1","red","0"
"100","96","19","705.333723685","1","1","2","168","3","left","0","in","Female","Right-handed","1","no","left","d","936.653870862","696.696450135","1","red","1"
"100","96","19","704.448667772","1","1","2","169","1","right","1","out","Female","Right-handed","1","no","right","d","846.400951395","472.220680967","1","green","3"
"100","96","19","714.174430958","1","1","2","170","3","left","3","out","Female","Right-handed","1","no","left","d","1832.07294282","607.755290417","1","green","1"
"100","96","19","716.282963576","1","1","2","171","3","left","2","in","Female","Right-handed","1","no","left","s","959.570217473","696.500167257","1","red","0"
"100","96","19","713.214636813","1","1","2","172","2","left","1","out","Female","Right-handed","1","no","left","d","599.022947457","496.027035721","1","green","2"
"100","96","19","710.671072783","1","1","2","173","2","left","1","out","Female","Right-handed","1","no","left","d","620.801687263","520.748415064","1","red","3"
"100","96","19","717.075402801","1","1","2","174","0","left","1","out","Female","Right-handed","1","no","left","s","1567.25462796","584.181139589","1","red","2"
"100","96","19","721.752656678","1","1","2","175","0","left","3","in","Female","Right-handed","1","no","left","s","1464.93255663","511.77969877","1","red","2"
"100","96","19","723.934414817","1","1","2","176","0","right","2","in","Female","Right-handed","1","no","right","d","1060.47308664","640.479687128","1","green","3"
"100","96","19","721.218315309","1","1","2","177","3","right","1","out","Female","Right-handed","1","no","right","d","625.958923639","495.977965003","1","green","0"
"100","95","19","723.136771567","1","0","2","178","1","left","0","out","Female","Right-handed","1","no","left","s","691.749929199","984.738364868","1","green","2"
"100","95","19","720.549721069","1","1","2","179","3","left","1","in","Female","Right-handed","1","no","left","s","533.221358014","592.257923397","1","green","3"
"100","95","19","721.396231539","1","1","2","180","2","right","1","in","Female","Right-handed","1","no","right","s","819.791792617","727.967968687","1","red","0"
"100","95","19","724.663114378","1","1","2","181","3","left","3","out","Female","Right-handed","1","no","left","d","1220.53022676","640.423239764","1","red","1"
"100","95","19","726.42347705","1","1","2","182","3","left","1","in","Female","Right-handed","1","no","left","d","1022.0606559","656.112720253","1","green","3"
"100","95","19","728.312751476","1","1","2","183","2","left","2","out","Female","Right-handed","1","no","left","d","1213.61670765","488.614470602","1","green","1"
"100","95","19","727.162607654","1","1","2","184","2","right","1","in","Female","Right-handed","1","no","right","d","726.186348783","576.319882076","1","green","3"
"100","94","19","728.753003506","1","0","2","185","1","right","0","out","Female","Right-handed","1","no","right","d","742.85756438","927.761486798","1","green","3"
"100","94","19","726.748282191","1","1","2","186","3","right","1","out","Female","Right-handed","1","no","right","s","701.498645423","479.355820125","1","green","0"
"100","94","19","726.551760697","1","1","2","187","3","right","1","out","Female","Right-handed","1","no","right","s","833.889200882","592.094354334","1","green","3"
"100","94","19","727.074545515","1","1","2","188","2","left","1","out","Female","Right-handed","1","no","left","s","687.684115422","839.654850031","1","green","3"
"100","94","19","729.000233362","1","1","2","189","3","right","1","out","Female","Right-handed","1","no","right","s","1355.2078626","376.240278465","1","red","2"
"100","94","19","727.449114699","1","1","2","190","0","left","0","out","Female","Right-handed","1","no","left","s","863.661977794","367.875164091","1","green","3"
"100","94","19","724.446431621","1","1","2","191","2","left","3","out","Female","Right-handed","1","no","left","s","674.098261389","336.402872529","1","green","1"
"100","94","19","725.600448671","1","1","2","192","1","left","1","in","Female","Right-handed","1","no","left","s","1094.10513129","527.890289418","1","green","2"
"100","94","19","723.870413818","1","1","2","193","1","right","1","in","Female","Right-handed","1","no","right","d","644.626323265","543.609276482","1","green","0"
"100","94","19","722.194022375","1","1","2","194","3","right","1","in","Female","Right-handed","1","no","right","d","493.255341893","696.321203458","1","green","3"
"100","94","19","721.165140355","1","1","2","195","2","right","1","out","Female","Right-handed","1","no","right","d","843.928813461","439.953636188","1","green","0"
"100","94","19","724.624170845","1","1","2","196","0","right","2","out","Female","Right-handed","1","no","right","d","1284.49759762","704.359500428","1","green","1"
"100","95","19","724.836557221","1","1","2","197","2","right","1","in","Female","Right-handed","1","no","right","s","619.016539398","864.213622481","1","red","2"
"100","95","19","723.340445044","1","1","2","198","3","right","2","in","Female","Right-handed","1","no","right","s","703.552559712","503.750382062","1","red","3"
"100","95","19","722.723526767","1","1","2","199","2","right","1","out","Female","Right-handed","1","no","right","s","777.337923103","568.168369656","1","green","2"
"100","95","19","719.905837699","1","1","2","200","1","right","1","in","Female","Right-handed","1","no","right","s","521.881531738","455.829136397","1","red","0"
"100","95","19","719.13854764","1","1","2","201","3","left","2","in","Female","Right-handed","1","no","left","s","863.47820314","447.42874242","1","green","1"
"100","95","19","720.032325926","1","1","2","202","3","right","2","in","Female","Right-handed","1","no","right","s","974.222798384","615.99660546","1","red","1"
"100","95","19","718.66943846","1","1","2","203","0","right","0","in","Female","Right-handed","1","no","right","d","709.772353557","495.875654155","1","red","1"
"100","95","19","722.290612548","1","1","2","204","3","left","0","in","Female","Right-handed","1","no","left","d","1411.15810425","656.265063989","1","green","2"
"100","95","19","720.927561457","1","1","2","205","3","left","0","out","Female","Right-handed","1","no","left","d","636.832738444","567.851494685","1","red","3"
"100","95","19","722.354621832","1","1","2","206","2","right","3","in","Female","Right-handed","1","no","right","s","1160.49717298","535.374696636","1","green","1"
"100","95","19","722.745730536","1","1","2","207","1","right","1","out","Female","Right-handed","1","no","right","s","1027.10146959","488.007340723","1","red","2"
"100","95","19","725.004642475","1","1","2","208","1","right","3","out","Female","Right-handed","1","no","right","s","1168.93220511","687.68122891","1","red","2"
"100","95","19","724.849804415","1","1","2","209","1","left","2","out","Female","Right-handed","1","no","left","d","806.361168832","615.157913102","1","red","1"
"100","95","19","723.317834345","1","1","2","210","0","right","1","in","Female","Right-handed","1","no","right","d","700.886063241","463.867112644","1","green","3"
"100","95","19","722.554677122","1","1","2","211","0","left","3","in","Female","Right-handed","1","no","left","s","687.486228928","615.675881805","1","green","1"
"100","95","19","722.987440917","1","1","2","212","2","left","0","in","Female","Right-handed","1","no","left","s","871.14542284","656.189052483","1","red","1"
"100","95","19","724.129603106","1","1","2","213","0","right","1","out","Female","Right-handed","1","no","right","d","1065.62038058","599.649641479","1","red","2"
"100","100","19","634.859806879","1","1","3","214","1","right","1","in","Female","Right-handed","1","no","right","d","820.837672457","448.881941302","1","red","2"
"100","100","19","661.649693436","1","1","3","215","0","right","1","out","Female","Right-handed","1","no","right","s","992.382492465","384.496667521","1","red","3"
"100","100","19","689.176709861","1","1","3","216","1","right","2","in","Female","Right-handed","1","no","right","s","911.180394548","577.281090871","1","green","3"
"100","100","19","725.323562059","1","1","3","217","1","right","1","in","Female","Right-handed","1","no","right","d","858.676649297","808.851588015","1","green","3"
"100","100","19","744.006941743","1","1","3","218","2","right","1","in","Female","Right-handed","1","no","right","s","845.170976178","792.309944774","1","red","0"
"100","100","19","751.727043429","1","1","3","219","0","left","1","in","Female","Right-handed","1","no","left","d","1107.85647873","472.798624994","1","red","3"
"100","100","19","712.40070682","1","1","3","220","2","left","2","in","Female","Right-handed","1","no","left","d","480.427037132","472.458337195","1","red","3"
"100","100","19","737.486706004","1","1","3","221","2","right","0","out","Female","Right-handed","1","no","right","s","1162.08539652","664.092004071","1","green","1"
"100","100","19","707.402651194","1","1","3","222","1","left","0","out","Female","Right-handed","1","no","left","d","500.801328053","432.659097374","1","red","1"
"100","100","19","710.688709148","1","1","3","223","3","left","0","in","Female","Right-handed","1","no","left","d","952.276961553","528.249499912","1","green","1"
"100","100","19","700.489794588","1","1","3","224","2","right","2","in","Female","Right-handed","1","no","right","d","780.984871786","416.016426183","1","red","1"
"100","100","19","683.120057448","1","1","3","225","0","right","3","in","Female","Right-handed","1","no","right","d","527.491629914","456.614267904","1","red","0"
"100","100","19","669.542788939","1","1","3","226","0","left","1","in","Female","Right-handed","1","no","left","d","597.143186114","416.087947557","1","green","3"
"100","100","19","661.850878803","1","1","3","227","1","left","1","out","Female","Right-handed","1","no","left","s","402.790103366","720.921990706","1","green","3"
"100","100","19","657.760341814","1","1","3","228","2","left","2","out","Female","Right-handed","1","no","left","d","680.50022627","520.485421667","1","red","0"
"100","100","19","652.43882076","1","1","3","229","2","left","1","out","Female","Right-handed","1","no","left","d","721.086521941","424.145487947","1","red","3"
"100","100","19","657.309000621","1","1","3","230","0","right","0","in","Female","Right-handed","1","no","right","s","853.823138223","616.64061856","1","red","1"
"100","100","19","659.310219278","1","1","3","231","0","left","0","in","Female","Right-handed","1","no","left","d","722.307516897","664.35435602","1","green","2"
"100","100","19","666.920381585","1","1","3","232","1","left","1","out","Female","Right-handed","1","no","left","d","1167.81544535","439.991160856","1","green","2"
"100","100","19","668.396797061","1","1","3","233","3","left","1","in","Female","Right-handed","1","no","left","d","784.457667524","608.439714697","1","red","2"
"100","100","19","662.078913322","1","1","3","234","2","left","1","in","Female","Right-handed","1","no","left","s","551.215558689","520.2269184","1","green","2"
"100","100","19","658.472072798","1","1","3","235","1","left","0","in","Female","Right-handed","1","no","left","d","684.665785105","480.791058481","1","green","2"
"100","95","19","649.942248128","1","0","3","236","2","right","1","out","Female","Right-handed","1","no","right","d","524.259376918","400.312833854","1","red","3"
"100","95","19","647.855916929","1","1","3","237","0","left","1","out","Female","Right-handed","1","no","left","s","783.863687315","415.876911393","1","red","0"
"100","96","19","645.028401683","1","1","3","238","1","right","1","in","Female","Right-handed","1","no","right","s","649.776824444","504.559247121","1","red","0"
"100","96","19","645.994172648","1","1","3","239","0","left","0","out","Female","Right-handed","1","no","left","s","892.165330478","448.111563081","1","red","1"
"100","96","19","647.582290652","1","1","3","240","1","left","1","in","Female","Right-handed","1","no","left","d","729.829128059","647.917589415","1","green","3"
"100","96","19","650.25123773","1","1","3","241","1","right","3","in","Female","Right-handed","1","no","right","s","876.314525992","568.311091682","1","green","1"
"100","96","19","644.363136328","1","1","3","242","1","right","1","out","Female","Right-handed","1","no","right","d","503.008868971","455.983725199","1","green","0"
"100","96","19","642.269891735","1","1","3","243","0","left","1","in","Female","Right-handed","1","no","left","d","578.540572665","584.591024421","1","red","0"
"100","96","19","640.639278184","1","1","3","244","1","right","3","out","Female","Right-handed","1","no","right","s","623.236941977","560.204801297","1","red","1"
"100","96","19","644.802861593","1","1","3","245","2","right","2","in","Female","Right-handed","1","no","right","s","1035.90789971","511.839994817","1","green","1"
"100","96","19","650.867425796","1","1","3","246","0","right","0","in","Female","Right-handed","1","no","right","d","953.361007509","736.505953112","1","green","3"
"100","97","19","653.448086811","1","1","3","247","3","right","1","out","Female","Right-handed","1","no","right","s","725.088190987","752.131609594","1","red","2"
"100","97","19","652.484689684","1","1","3","248","0","right","1","in","Female","Right-handed","1","no","right","s","727.750838772","511.707535948","1","red","2"
"100","97","19","648.118451513","1","1","3","249","0","left","2","in","Female","Right-handed","1","no","left","s","590.21106503","400.389166083","1","red","0"
"100","97","19","644.464435834","1","1","3","250","2","left","1","in","Female","Right-handed","1","no","left","s","513.923094957","511.916647771","1","green","2"
"100","97","19","640.403637641","1","1","3","251","2","left","3","in","Female","Right-handed","1","no","left","d","484.684964379","495.623244639","1","green","2"
"100","97","19","635.000497656","1","1","3","252","1","left","2","out","Female","Right-handed","1","no","left","s","427.125652151","432.236704321","1","green","1"
"100","97","19","631.796539167","1","1","3","253","0","left","1","out","Female","Right-handed","1","no","left","d","557.956528474","455.727787722","1","green","0"
"100","97","19","635.604624988","1","1","3","254","3","left","1","in","Female","Right-handed","1","no","left","s","695.515545635","880.340570035","1","green","0"
"100","97","19","632.246527628","1","1","3","255","3","left","1","in","Female","Right-handed","1","no","left","s","484.934808106","504.194263601","1","red","3"
"100","97","19","636.524642351","1","1","3","256","3","right","1","in","Female","Right-handed","1","no","right","s","1040.7155473","591.695374107","1","red","2"
"100","97","19","640.48602142","1","1","3","257","2","right","1","out","Female","Right-handed","1","no","right","s","1141.39840004","480.25224274","1","green","0"
"100","97","19","639.347219028","1","1","3","258","3","right","1","in","Female","Right-handed","1","no","right","d","746.825878165","431.653949439","1","green","0"
"100","97","19","636.134526533","1","1","3","259","1","right","3","out","Female","Right-handed","1","no","right","s","567.521470043","415.605258457","1","green","0"
"100","97","19","634.230042099","1","1","3","260","2","right","1","out","Female","Right-handed","1","no","right","s","565.085894605","528.16162163","1","green","3"
"100","97","19","640.825093141","1","1","3","261","2","left","0","in","Female","Right-handed","1","no","left","d","533.693142511","1367.89184172","1","red","2"
"100","97","19","643.32387432","1","1","3","262","3","right","0","out","Female","Right-handed","1","no","right","d","1070.2048045","456.325937339","1","red","1"
"100","98","19","646.065189007","1","1","3","263","3","right","2","out","Female","Right-handed","1","no","right","d","984.920535903","575.85868146","1","green","1"
"100","98","19","644.319463048","1","1","3","264","2","left","1","in","Female","Right-handed","1","no","left","s","650.562918123","463.503412018","1","green","3"
"100","98","19","644.603064633","1","1","3","265","2","left","3","in","Female","Right-handed","1","no","left","s","942.075062805","376.058428153","1","green","0"
"100","98","19","642.012833945","1","1","3","266","3","right","1","in","Female","Right-handed","1","no","right","s","542.842746947","471.79892936","1","red","3"
"100","98","19","644.490704674","1","1","3","267","2","right","1","out","Female","Right-handed","1","no","right","d","1072.2452484","479.390458279","1","red","2"
"100","98","19","648.879751634","1","1","3","268","3","left","1","in","Female","Right-handed","1","no","left","s","755.968426681","1015.80814824","1","red","0"
"100","98","19","652.997791978","1","1","3","269","3","right","2","out","Female","Right-handed","1","no","right","d","1047.44465031","711.535371489","1","green","1"
"100","98","19","661.165842415","1","1","3","270","0","left","3","in","Female","Right-handed","1","no","left","s","1381.06716948","856.086164335","1","red","2"
"100","98","19","665.311417526","1","1","3","271","2","right","3","in","Female","Right-handed","1","no","right","d","1011.60121606","791.617181679","1","red","1"
"100","98","19","668.235345996","1","1","3","272","2","left","1","in","Female","Right-handed","1","no","left","d","1091.34241772","584.30397675","1","green","0"
"100","98","19","668.812537772","1","1","3","273","0","left","2","out","Female","Right-handed","1","no","left","d","677.91968374","727.814021332","1","green","1"
"100","96","19","669.0603421","1","0","3","274","0","right","1","out","Female","Right-handed","1","no","right","d","512.423391147","855.433812419","1","red","0"
"100","96","19","668.994984182","1","1","3","275","0","right","1","in","Female","Right-handed","1","no","right","s","697.914879302","632.101423081","1","green","3"
"100","96","19","672.830985501","1","1","3","276","3","right","3","in","Female","Right-handed","1","no","right","s","1421.66052107","399.665613517","1","red","2"
"100","96","19","670.197389774","1","1","3","277","3","left","1","out","Female","Right-handed","1","no","left","s","665.181502327","343.380215649","1","red","2"
"100","96","19","670.536960724","1","1","3","278","3","left","1","out","Female","Right-handed","1","no","left","d","664.820367492","719.718635552","1","red","0"
"100","96","19","672.535608271","1","1","3","279","2","left","0","out","Female","Right-handed","1","no","left","d","1069.42063517","535.474762415","1","red","1"
"100","97","19","673.185340652","1","1","3","280","2","left","0","out","Female","Right-handed","1","no","left","s","856.012077171","576.123278475","1","green","3"
"100","97","19","675.984550402","1","1","3","281","1","right","1","in","Female","Right-handed","1","no","right","d","623.538742937","1103.52446432","1","green","0"
"100","97","19","682.704852787","1","1","3","282","1","right","1","out","Female","Right-handed","1","no","right","s","1040.23189603","1239.13893396","1","red","2"
"100","97","19","690.391524777","1","1","3","283","0","left","2","out","Female","Right-handed","1","no","left","s","1233.80113017","1207.74265391","1","green","1"
"100","97","19","691.652081382","1","1","3","284","0","left","1","out","Female","Right-handed","1","no","left","s","920.370730888","639.411356633","1","red","2"
"100","97","19","692.850911146","1","1","3","285","3","right","3","in","Female","Right-handed","1","no","right","d","980.029820885","575.905827836","1","red","1"
"100","97","19","692.258495867","1","1","3","286","1","right","2","out","Female","Right-handed","1","no","right","s","835.540606982","463.668584702","1","green","0"
"100","97","19","692.613958727","1","1","3","287","3","left","3","out","Female","Right-handed","1","no","left","s","901.973701301","535.151793695","1","green","1"
"100","97","19","689.656341396","1","1","3","288","1","right","0","out","Female","Right-handed","1","no","right","s","557.812202831","383.773114954","1","green","1"
"100","97","19","687.264699613","1","1","3","289","3","right","1","in","Female","Right-handed","1","no","right","d","496.395226477","519.387905319","1","green","3"
"100","97","19","688.020652421","1","1","3","290","0","left","3","out","Female","Right-handed","1","no","left","d","755.9754826","734.970648975","1","green","1"
"100","97","19","688.516052026","1","1","3","291","3","left","0","out","Female","Right-handed","1","no","left","d","829.641216069","623.682427133","1","red","2"
"100","97","19","686.101526876","1","1","3","292","2","left","1","out","Female","Right-handed","1","no","left","d","532.305691979","463.231438358","1","green","2"
"100","97","19","685.722577566","1","1","3","293","0","right","2","out","Female","Right-handed","1","no","right","s","599.941179282","711.629984967","1","green","3"
"100","97","19","687.151809185","1","1","3","294","0","right","1","out","Female","Right-handed","1","no","right","s","803.448998044","799.531679318","1","green","2"
"100","96","19","686.022792313","1","0","3","295","3","right","2","in","Female","Right-handed","1","no","right","s","494.014174062","695.13067725","1","green","3"
"100","96","19","686.115173943","1","1","3","296","1","right","2","out","Female","Right-handed","1","no","right","d","811.688388745","575.692546607","1","red","1"
"100","96","19","686.569264725","1","1","3","297","2","right","1","in","Female","Right-handed","1","no","right","d","929.332070538","519.185528692","1","green","0"
"100","96","19","687.2602527","1","1","3","298","1","right","1","out","Female","Right-handed","1","no","right","d","970.768925341","519.837559884","1","red","3"
"100","96","19","692.453343304","1","1","3","299","1","left","1","in","Female","Right-handed","1","no","left","d","1244.26538086","1023.4667084","1","red","0"
"100","96","19","695.603202729","1","1","3","300","3","left","2","out","Female","Right-handed","1","no","left","s","1277.97888933","655.003337129","1","red","0"
"100","96","19","696.608500783","1","1","3","301","2","right","3","out","Female","Right-handed","1","no","right","s","1048.6592308","519.479632285","1","red","1"
"100","96","19","696.254692939","1","1","3","302","1","right","3","out","Female","Right-handed","1","no","right","d","843.213278986","487.025926337","1","green","2"
"100","96","19","694.516863846","1","1","3","303","0","left","1","in","Female","Right-handed","1","no","left","d","615.886917971","463.81323107","1","red","2"
"100","96","19","697.59841845","1","1","3","304","1","left","0","out","Female","Right-handed","1","no","left","d","1438.44655573","511.430109986","1","red","3"
"100","96","19","697.233395568","1","1","3","305","3","right","1","out","Female","Right-handed","1","no","right","d","537.090247468","790.94237911","1","red","3"
"100","96","19","696.549072442","1","1","3","306","3","left","0","in","Female","Right-handed","1","no","left","d","611.627707831","655.554981815","1","red","3"
"100","96","19","696.586783116","1","1","3","307","3","left","3","out","Female","Right-handed","1","no","left","s","641.086496282","759.101255344","1","green","0"
"100","96","19","701.272317492","1","1","3","308","1","right","1","in","Female","Right-handed","1","no","right","s","988.710206613","1294.7148911","1","green","2"
"100","96","19","702.757328749","1","1","3","309","0","left","3","out","Female","Right-handed","1","no","left","s","960.356952601","727.309843747","1","green","1"
"100","100","19","617.962160381","1","1","4","310","1","left","1","out","Female","Right-handed","1","no","left","d","684.013433189","551.910887572","1","green","3"
"100","100","19","795.025191238","1","1","4","311","0","right","0","out","Female","Right-handed","1","no","right","d","1327.60542267","616.571021526","1","green","2"
"100","100","19","768.229531656","1","1","4","312","1","right","1","out","Female","Right-handed","1","no","right","s","837.234027882","592.042397102","1","red","2"
"100","100","19","725.974029722","1","1","4","313","0","right","2","out","Female","Right-handed","1","no","right","s","662.681461434","535.733586406","1","green","1"
"100","100","19","739.466424883","1","1","4","314","0","right","2","in","Female","Right-handed","1","no","right","s","1098.45125754","488.420753514","1","red","3"
"100","100","19","699.797420248","1","1","4","315","2","right","1","in","Female","Right-handed","1","no","right","s","522.910413223","479.994380921","1","red","2"
"100","100","19","668.408371748","1","1","4","316","0","right","3","in","Female","Right-handed","1","no","right","s","536.613652115","423.534509384","1","green","0"
"100","100","19","656.261095034","1","1","4","317","2","left","1","out","Female","Right-handed","1","no","left","d","646.190171809","496.270144251","1","green","2"
"100","100","19","633.423820167","1","1","4","318","2","right","1","in","Female","Right-handed","1","no","right","s","613.816646778","287.63459569","1","red","3"
"100","100","19","693.370850517","1","1","4","319","1","right","3","out","Female","Right-handed","1","no","right","s","1418.2470592","1047.54118813","1","red","2"
"100","100","19","684.971726314","1","1","4","320","3","right","0","out","Female","Right-handed","1","no","right","d","649.990747123","551.970221451","1","green","2"
"100","91","19","670.726560419","1","0","4","321","2","left","1","in","Female","Right-handed","1","no","left","d","548.398322102","479.661149044","1","red","3"
"100","92","19","700.441688282","1","1","4","322","3","right","0","out","Female","Right-handed","1","no","right","d","1090.19069908","1023.8557462","1","green","1"
"100","92","19","692.891613777","1","1","4","323","2","left","2","in","Female","Right-handed","1","no","left","d","621.723126324","567.758164099","1","red","3"
"100","93","19","693.227802421","1","1","4","324","1","right","1","in","Female","Right-handed","1","no","right","d","892.418060717","503.450826167","1","red","2"
"100","93","19","694.552703155","1","1","4","325","3","left","0","out","Female","Right-handed","1","no","left","d","948.915456924","479.936971387","1","red","1"
"100","94","19","712.905314283","1","1","4","326","0","left","1","out","Female","Right-handed","1","no","left","d","845.478550162","1167.61563451","1","red","0"
"100","94","19","708.728674237","1","1","4","327","1","left","1","in","Female","Right-handed","1","no","left","d","819.30333049","456.148256433","1","red","3"
"100","89","19","726.552294473","1","0","4","328","0","right","3","in","Female","Right-handed","1","no","right","s","774.898178259","1319.85673916","1","red","2"
"100","90","19","722.442260922","1","1","4","329","3","left","1","out","Female","Right-handed","1","no","left","s","673.265342057","615.437904853","1","red","2"
"100","90","19","719.584664699","1","1","4","330","2","right","2","in","Female","Right-handed","1","no","right","s","924.840015023","400.025465459","1","red","0"
"100","90","19","729.219089798","1","1","4","331","3","right","1","in","Female","Right-handed","1","no","right","s","1487.55993122","375.524102544","1","green","2"
"100","91","19","726.498677844","1","1","4","332","2","left","3","in","Female","Right-handed","1","no","left","s","901.087862565","432.211367154","1","red","0"
"100","91","19","720.238100965","1","1","4","333","0","right","2","in","Female","Right-handed","1","no","right","s","712.729104934","439.760560547","1","red","0"
"100","92","19","714.645621208","1","1","4","334","3","right","1","out","Female","Right-handed","1","no","right","d","625.395091453","535.457122615","1","green","2"
"100","92","19","736.073611457","1","1","4","335","0","right","1","out","Female","Right-handed","1","no","right","s","1391.87683955","1151.66989582","1","green","2"
"100","92","19","729.622944323","1","1","4","336","1","right","1","out","Female","Right-handed","1","no","right","d","724.383240393","399.427957289","1","red","2"
"100","92","19","728.498537248","1","1","4","337","0","left","0","in","Female","Right-handed","1","no","left","s","812.08801042","584.191082022","1","red","1"
"100","93","19","722.851265146","1","1","4","338","2","right","0","in","Female","Right-handed","1","no","right","s","697.716351357","431.738941208","1","green","2"
"100","93","19","729.351442246","1","1","4","339","3","left","2","in","Female","Right-handed","1","no","left","d","1276.33550132","559.377654991","1","green","1"
"100","93","19","723.775722541","1","1","4","340","3","left","3","out","Female","Right-handed","1","no","left","d","609.061918587","503.946344215","1","green","2"
"100","93","19","718.284474626","1","1","4","341","3","left","1","in","Female","Right-handed","1","no","left","s","568.560614687","527.550963791","1","green","3"
"100","93","19","717.950626964","1","1","4","342","3","left","1","out","Female","Right-handed","1","no","left","d","1015.17151178","399.363491834","1","green","0"
"100","94","19","714.814596352","1","1","4","343","3","left","0","in","Female","Right-handed","1","no","left","d","510.749855113","711.901317182","1","red","3"
"100","94","19","715.759993875","1","1","4","344","0","right","3","out","Female","Right-handed","1","no","right","s","920.44738384","575.359635453","1","green","1"
"100","94","19","710.547939081","1","1","4","345","1","right","2","out","Female","Right-handed","1","no","right","d","545.083643126","511.168399484","1","green","0"
"100","94","19","710.376046492","1","1","4","346","1","left","2","out","Female","Right-handed","1","no","left","d","896.658348165","511.717478381","1","green","1"
"100","94","19","711.070533192","1","1","4","347","0","right","2","in","Female","Right-handed","1","no","right","s","802.284771174","671.24831099","1","green","1"
"100","94","19","710.514952174","1","1","4","348","0","left","0","out","Female","Right-handed","1","no","left","d","882.884229344","495.92151764","1","red","3"
"100","95","19","709.027264397","1","1","4","349","2","right","1","out","Female","Right-handed","1","no","right","s","934.492514148","367.522368069","1","red","0"
"100","95","19","707.076061078","1","1","4","350","0","left","1","out","Female","Right-handed","1","no","left","s","578.972587428","679.083269162","1","red","3"
"100","95","19","705.913990713","1","1","4","351","2","left","0","out","Female","Right-handed","1","no","left","s","596.824707523","719.713503973","1","red","3"
"100","95","19","700.748293785","1","1","4","352","3","left","2","in","Female","Right-handed","1","no","left","d","480.246790437","487.331255257","1","red","3"
"100","95","19","705.936097736","1","1","4","353","2","right","3","out","Female","Right-handed","1","no","right","d","922.977252034","935.046083177","1","red","1"
"100","95","19","720.538508559","1","1","4","354","3","right","2","in","Female","Right-handed","1","no","right","s","990.638397228","1735.45077229","1","green","1"
"100","95","19","719.584168673","1","1","4","355","1","left","1","in","Female","Right-handed","1","no","left","d","906.18448217","447.093265477","1","green","2"
"100","95","19","713.275846643","1","1","4","356","0","left","1","in","Female","Right-handed","1","no","left","s","534.571283879","311.614782668","1","red","3"
"100","95","19","708.996903894","1","1","4","357","1","left","3","out","Female","Right-handed","1","no","left","d","600.387305887","415.385883478","1","red","0"
"100","95","19","718.167504684","1","1","4","358","2","right","0","in","Female","Right-handed","1","no","right","s","949.764733163","1366.947952","1","red","1"
"100","96","19","717.654823732","1","1","4","359","3","left","1","in","Female","Right-handed","1","no","left","d","1041.48977421","343.577139973","1","red","0"
"100","96","19","720.066859688","1","1","4","360","1","left","0","out","Female","Right-handed","1","no","left","d","594.117479152","1087.21983586","1","red","2"
"100","96","19","716.012645961","1","1","4","361","2","left","1","out","Female","Right-handed","1","no","left","d","554.628699829","463.866791919","1","green","2"
"100","96","19","712.374953402","1","1","4","362","3","right","1","out","Female","Right-handed","1","no","right","d","687.162298036","359.267582633","1","red","2"
"100","96","19","718.357199271","1","1","4","363","0","right","0","out","Female","Right-handed","1","no","right","s","1175.98203178","894.85042892","1","red","1"
"100","96","19","723.222623123","1","1","4","364","1","left","3","in","Female","Right-handed","1","no","left","s","636.44530427","1335.46571801","1","green","1"
"100","96","19","725.887442927","1","1","4","365","1","right","3","out","Female","Right-handed","1","no","right","d","905.961258508","838.943805689","1","red","1"
"100","96","19","724.295274897","1","1","4","366","1","right","0","out","Female","Right-handed","1","no","right","s","662.673443343","607.594287143","1","green","1"
"100","94","19","724.914250936","1","0","4","367","3","right","3","out","Female","Right-handed","1","no","right","s","969.083843258","551.307927102","1","red","1"
"100","93","19","727.370093588","1","0","4","368","0","left","1","out","Female","Right-handed","1","no","left","s","1036.82484864","702.793086097","1","red","0"
"100","93","19","728.56148652","1","1","4","369","0","left","1","out","Female","Right-handed","1","no","left","s","1134.26550595","463.441833075","1","red","0"
"100","93","19","726.634975454","1","1","4","370","1","right","1","in","Female","Right-handed","1","no","right","d","542.973602198","679.115020803","1","green","3"
"100","93","19","728.442510373","1","1","4","371","0","right","1","in","Female","Right-handed","1","no","right","s","998.608059337","678.79622149","1","green","2"
"100","93","19","725.255975276","1","1","4","372","0","left","1","in","Female","Right-handed","1","no","left","s","632.160115512","423.221483097","1","green","3"
"100","92","19","725.358763986","1","0","4","373","1","left","0","in","Female","Right-handed","1","no","left","d","576.882431369","886.786474057","1","green","1"
"100","92","19","726.580875885","1","1","4","374","3","right","2","in","Female","Right-handed","1","no","right","s","1058.35663123","551.235443556","1","red","0"
"100","92","19","722.927504879","1","1","4","375","3","right","1","out","Female","Right-handed","1","no","right","s","603.991598324","366.925180624","1","red","3"
"100","92","19","720.675835301","1","1","4","376","2","left","1","in","Female","Right-handed","1","no","left","d","609.611638932","534.519647372","1","green","3"
"100","92","19","719.999141404","1","1","4","377","1","left","0","out","Female","Right-handed","1","no","left","s","606.137239576","743.184061061","1","green","3"
"100","92","19","719.706355089","1","1","4","378","1","left","1","in","Female","Right-handed","1","no","left","d","928.830138016","470.763633401","1","red","0"
"100","92","19","722.431879785","1","1","4","379","3","left","3","out","Female","Right-handed","1","no","left","d","1013.48835404","807.497813466","1","green","1"
"100","92","19","721.593940643","1","1","4","380","2","right","3","in","Female","Right-handed","1","no","right","s","782.986187394","542.890214046","1","red","2"
"100","93","19","723.017904202","1","1","4","381","2","left","1","out","Female","Right-handed","1","no","left","s","1073.77926964","574.459364152","1","red","0"
"100","93","19","719.870575088","1","1","4","382","3","left","1","in","Female","Right-handed","1","no","left","s","475.318871475","511.206886322","1","green","3"
"100","91","19","717.978581866","1","0","4","383","0","right","1","out","Female","Right-handed","1","no","right","s","512.874007882","646.852145433","1","green","3"
"100","92","19","718.76467725","1","1","4","384","2","left","1","in","Female","Right-handed","1","no","left","d","802.409211954","751.462259325","1","green","2"
"100","92","19","719.815291533","1","1","4","385","3","right","3","out","Female","Right-handed","1","no","right","d","734.088338198","863.13438738","1","red","0"
"100","92","19","721.70211351","1","1","4","386","1","left","2","out","Female","Right-handed","1","no","left","s","1203.71115756","526.490009939","1","red","1"
"100","92","19","720.183666348","1","1","4","387","1","left","2","in","Female","Right-handed","1","no","left","s","631.245090925","575.281378881","1","green","3"
"100","91","19","719.831915959","1","0","4","388","2","left","1","out","Female","Right-handed","1","no","left","s","801.886432395","582.904338719","1","green","0"
"100","91","19","717.733155674","1","1","4","389","2","left","1","in","Female","Right-handed","1","no","left","s","536.349055099","567.513131227","1","red","3"
"100","91","19","717.848359314","1","1","4","390","2","right","0","in","Female","Right-handed","1","no","right","s","1015.01884733","439.110453699","1","green","1"
"100","91","19","716.962148718","1","1","4","391","2","right","2","out","Female","Right-handed","1","no","right","d","835.607958951","454.750222021","1","red","1"
"100","91","19","716.766298955","1","1","4","392","0","right","1","in","Female","Right-handed","1","no","right","s","786.253078546","615.160158168","1","green","0"
"100","91","19","723.827712659","1","1","4","393","0","left","3","out","Female","Right-handed","1","no","left","d","692.87310344","1926.97699674","1","green","1"
"100","91","19","723.02862819","1","1","4","394","1","left","1","out","Female","Right-handed","1","no","left","s","913.457211775","398.353853767","1","green","0"
"100","90","19","722.638419798","1","0","4","395","3","right","1","in","Female","Right-handed","1","no","right","s","851.958771616","526.982641473","1","green","0"
"100","90","19","722.333270637","1","1","4","396","3","right","1","in","Female","Right-handed","1","no","right","d","521.641309719","870.539575857","1","green","3"
"100","89","19","726.059404173","1","0","4","397","1","right","1","in","Female","Right-handed","1","no","right","s","709.336169386","1391.12987416","1","green","0"
"100","89","19","725.902394833","1","1","4","398","2","left","3","in","Female","Right-handed","1","no","left","d","945.582496699","478.588649141","1","red","1"
"100","90","19","723.196938828","1","1","4","399","1","right","1","out","Female","Right-handed","1","no","right","s","574.315359232","390.507349543","1","green","3"
"100","90","19","723.535749281","1","1","4","400","0","right","1","out","Female","Right-handed","1","no","right","d","1092.98516429","415.072215743","1","green","2"
"100","90","19","725.274505285","1","1","4","401","2","right","2","in","Female","Right-handed","1","no","right","d","856.389248189","910.613355127","1","red","1"
"100","90","19","723.090458517","1","1","4","402","3","right","1","in","Female","Right-handed","1","no","right","s","669.144684535","375.171627245","1","red","0"
"100","90","19","723.46428694","1","1","4","403","2","left","1","out","Female","Right-handed","1","no","left","s","997.660962382","518.799698135","1","green","0"
"100","90","19","726.158199374","1","1","4","404","0","left","1","in","Female","Right-handed","1","no","left","s","1280.44974437","678.322191929","1","green","2"
"100","90","19","729.114276792","1","1","4","405","1","left","1","in","Female","Right-handed","1","no","left","d","1028.89912567","990.984137328","1","green","0"
"100","100","19","1069.69870258","1","1","5","406","2","right","3","in","Female","Right-handed","1","no","right","s","1492.25628771","647.141117446","1","green","1"
"100","100","19","839.234140777","1","1","5","407","3","right","2","out","Female","Right-handed","1","no","right","s","825.869826607","391.669331346","1","red","1"
"100","100","19","745.497761509","1","1","5","408","2","right","1","in","Female","Right-handed","1","no","right","s","612.526375511","503.523630437","1","red","3"
"100","100","19","773.017013748","1","1","5","409","0","left","0","out","Female","Right-handed","1","no","left","s","1007.99532","703.154220931","1","red","3"
"100","100","19","766.957413351","1","1","5","410","3","right","3","in","Female","Right-handed","1","no","right","d","997.698166326","487.739857194","1","red","1"
"100","100","19","736.014871742","1","1","5","411","3","right","0","out","Female","Right-handed","1","no","right","d","683.321632265","479.28269513","1","green","1"
"100","100","19","740.779137641","1","1","5","412","2","left","3","out","Female","Right-handed","1","no","left","d","1058.73733021","479.992135855","1","red","1"
"100","100","19","708.627490379","1","1","5","413","3","right","1","in","Female","Right-handed","1","no","right","s","503.572701157","463.559217935","1","red","3"
"100","100","19","709.680769135","1","1","5","414","2","left","1","in","Female","Right-handed","1","no","left","s","877.105751249","559.10824712","1","red","0"
"100","100","19","721.238849641","1","1","5","415","3","left","1","in","Female","Right-handed","1","no","left","s","1130.70162469","519.821523701","1","red","2"
"100","100","19","727.883530896","1","1","5","416","2","right","1","out","Female","Right-handed","1","no","right","s","829.413502273","759.247184608","1","red","0"
"100","100","19","721.549539991","1","1","5","417","1","left","3","out","Female","Right-handed","1","no","left","s","591.828474422","711.922805666","1","green","1"
"100","100","19","699.582703985","1","1","5","418","2","left","0","out","Female","Right-handed","1","no","left","d","464.519785283","407.441558537","1","red","2"
"100","100","19","700.515489967","1","1","5","419","1","right","1","out","Female","Right-handed","1","no","right","d","1026.21915881","399.064256664","1","green","2"
"100","100","19","707.497300309","1","1","5","420","3","left","2","out","Female","Right-handed","1","no","left","s","1186.68458015","423.80071002","1","green","0"
"100","100","19","705.621417717","1","1","5","421","3","right","1","out","Female","Right-handed","1","no","right","d","963.510307578","391.456050116","1","red","0"
"100","100","19","695.634486947","1","1","5","422","3","left","1","out","Female","Right-handed","1","no","left","s","624.955379322","446.731809916","1","red","2"
"100","100","19","693.936819079","1","1","5","423","1","left","0","in","Female","Right-handed","1","no","left","s","802.499976748","527.652953913","1","green","2"
"100","100","19","685.16463699","1","1","5","424","3","left","1","in","Female","Right-handed","1","no","left","s","615.217567701","439.313151048","1","green","2"
"100","100","19","676.845556165","1","1","5","425","1","left","1","in","Female","Right-handed","1","no","left","d","590.693433407","446.872607601","1","green","0"
"100","100","19","675.473814601","1","1","5","426","2","left","1","in","Female","Right-handed","1","no","left","d","504.558284951","791.519681688","1","red","3"
"100","100","19","677.323480333","1","1","5","427","2","right","1","out","Female","Right-handed","1","no","right","s","673.187726932","759.145194484","1","green","0"
"100","100","19","670.926220772","1","1","5","428","0","right","1","in","Female","Right-handed","1","no","right","s","485.637834358","574.735186496","1","green","0"
"100","100","19","672.983699915","1","1","5","429","0","right","3","out","Female","Right-handed","1","no","right","d","897.283438568","543.328001837","1","green","1"
"100","100","19","674.859608031","1","1","5","430","0","right","1","out","Female","Right-handed","1","no","right","d","520.886005512","918.876800103","1","red","0"
"100","100","19","680.303018229","1","1","5","431","3","left","2","out","Female","Right-handed","1","no","left","d","1033.43415816","599.342388217","1","red","1"
"100","100","19","682.495560977","1","1","5","432","3","left","3","in","Female","Right-handed","1","no","left","d","895.983224871","583.020119957","1","green","0"
"100","100","19","679.429667891","1","1","5","433","2","left","1","out","Female","Right-handed","1","no","left","s","554.604004106","638.697105052","1","red","3"
"100","100","19","677.680352008","1","1","5","434","1","left","3","in","Female","Right-handed","1","no","left","d","730.294498082","527.104516463","1","red","0"
"100","100","19","670.925401068","1","1","5","435","1","left","1","out","Female","Right-handed","1","no","left","d","511.028884694","439.034762916","1","green","3"
"100","100","19","674.10582426","1","1","5","436","0","right","1","in","Female","Right-handed","1","no","right","s","643.524316787","895.512723268","1","red","0"
"100","100","19","669.574920284","1","1","5","437","2","left","0","in","Female","Right-handed","1","no","left","d","539.132936426","519.100857648","1","green","3"
"100","100","19","674.156015944","1","1","5","438","0","left","3","in","Female","Right-handed","1","no","left","s","786.664566997","854.837587145","1","green","0"
"100","100","19","673.028530086","1","1","5","439","1","left","1","out","Female","Right-handed","1","no","left","s","544.206784653","727.436208868","1","green","3"
"100","100","19","670.711877767","1","1","5","440","1","right","1","in","Female","Right-handed","1","no","right","d","648.942622218","534.948775621","1","green","0"
"100","100","19","670.359951009","1","1","5","441","2","left","2","out","Female","Right-handed","1","no","left","d","829.475401939","486.609627035","1","green","0"
"100","100","19","673.192000358","1","1","5","442","2","right","0","in","Female","Right-handed","1","no","right","s","1063.13348935","487.158064485","1","red","1"
"100","100","19","670.850385774","1","1","5","443","1","left","3","out","Female","Right-handed","1","no","left","d","721.640732418","446.780559912","1","green","2"
"100","100","19","676.093265321","1","1","5","444","3","right","1","out","Female","Right-handed","1","no","right","d","1015.33764664","735.307729538","1","green","0"
"100","100","19","677.487913529","1","1","5","445","3","right","0","in","Female","Right-handed","1","no","right","s","984.959664191","478.798723136","1","green","1"
"100","100","19","677.707462463","1","1","5","446","0","left","1","in","Female","Right-handed","1","no","left","s","926.459990205","446.518849411","1","red","2"
"100","100","19","673.205404915","1","1","5","447","0","left","1","out","Female","Right-handed","1","no","left","s","602.192017894","375.05007298","1","red","2"
"100","100","19","669.40694698","1","1","5","448","2","left","3","out","Female","Right-handed","1","no","left","s","476.877588438","542.86583905","1","green","2"
"100","100","19","666.454855419","1","1","5","449","3","left","1","in","Female","Right-handed","1","no","left","d","591.475678402","487.554158199","1","red","3"
"100","100","19","665.900080113","1","1","5","450","1","left","2","out","Female","Right-handed","1","no","left","s","755.934429972","527.045503309","1","green","0"
"100","100","19","664.679050374","1","1","5","451","0","left","3","in","Female","Right-handed","1","no","left","s","660.672448459","558.792975766","1","green","2"
"100","97","19","669.179752596","1","0","5","452","1","left","1","in","Female","Right-handed","1","no","left","s","561.208987061","1191.2151225","1","green","2"
"100","97","19","668.995150471","1","1","5","453","0","right","1","in","Female","Right-handed","1","no","right","d","609.915043511","710.722657748","1","green","2"
"100","97","19","668.536504122","1","1","5","454","0","right","2","in","Female","Right-handed","1","no","right","d","702.568258814","590.474699875","1","red","3"
"100","98","19","671.086775313","1","1","5","455","0","left","2","in","Female","Right-handed","1","no","left","d","649.058082734","943.042044626","1","red","1"
"100","98","19","677.959554093","1","1","5","456","2","right","2","out","Female","Right-handed","1","no","right","s","996.634967409","1046.56201881","1","green","1"
"100","98","19","677.416625604","1","1","5","457","2","right","2","out","Female","Right-handed","1","no","right","s","884.263341062","415.191204218","1","green","1"
"100","98","19","675.999662502","1","1","5","458","2","right","2","out","Female","Right-handed","1","no","right","d","645.796002436","558.839159974","1","red","3"
"100","98","19","674.175790393","1","1","5","459","2","right","1","in","Female","Right-handed","1","no","right","s","508.46822703","646.552910262","1","green","3"
"100","98","19","673.50205944","1","1","5","460","2","left","1","in","Female","Right-handed","1","no","left","d","787.038530778","487.202645072","1","green","2"
"100","98","19","675.719026926","1","1","5","461","2","right","3","in","Female","Right-handed","1","no","right","d","900.660658657","694.64381874","1","red","0"
"100","98","19","684.316255401","1","1","5","462","3","left","0","out","Female","Right-handed","1","no","left","d","605.195594925","1726.32650502","1","red","2"
"100","98","19","685.583298066","1","1","5","463","0","left","2","out","Female","Right-handed","1","no","left","d","780.848243508","734.761216429","1","green","1"
"100","98","19","687.666358748","1","1","5","464","2","left","0","out","Female","Right-handed","1","no","left","d","1034.50601662","582.461740074","1","red","1"
"100","98","19","688.739330994","1","1","5","465","3","left","1","out","Female","Right-handed","1","no","left","s","993.03997596","511.049411009","1","red","0"
"100","98","19","688.12983718","1","1","5","466","1","left","1","in","Female","Right-handed","1","no","left","s","776.500834362","526.619582297","1","red","3"
"100","98","19","691.606415711","1","1","5","467","1","right","1","in","Female","Right-handed","1","no","right","d","961.197890023","846.157522141","1","red","0"
"100","98","19","691.529922955","1","1","5","468","0","left","1","in","Female","Right-handed","1","no","left","d","550.796693597","822.778050569","1","red","3"
"100","98","19","697.23041493","1","1","5","469","1","right","2","in","Female","Right-handed","1","no","right","s","1474.33296696","638.38985179","1","red","1"
"100","98","19","701.902421703","1","1","5","470","2","right","1","out","Female","Right-handed","1","no","right","d","1138.95801375","862.863696615","1","red","0"
"100","98","19","708.744443961","1","1","5","471","0","right","1","out","Female","Right-handed","1","no","right","d","1860.4582692","446.493512242","1","red","2"
"100","98","19","706.406093121","1","1","5","472","1","left","0","in","Female","Right-handed","1","no","left","s","602.13204257","502.017832878","1","red","3"
"100","98","19","704.035916201","1","1","5","473","3","left","1","out","Female","Right-handed","1","no","left","s","499.793614328","590.674510711","1","green","3"
"100","98","19","704.257368537","1","1","5","474","1","right","1","out","Female","Right-handed","1","no","right","s","872.318950695","566.313304034","1","red","0"
"100","98","19","704.676082166","1","1","5","475","3","left","1","out","Female","Right-handed","1","no","left","d","716.035765819","751.098879423","1","green","2"
"100","98","19","705.79371789","1","1","5","476","3","left","3","in","Female","Right-handed","1","no","left","s","889.590560975","678.465876126","1","red","2"
"100","98","19","703.812751231","1","1","5","477","3","left","3","out","Female","Right-handed","1","no","left","d","672.104643148","454.223593778","1","red","1"
"100","98","19","701.470645809","1","1","5","478","1","right","1","in","Female","Right-handed","1","no","right","d","514.899377764","550.778733072","1","green","3"
"100","98","19","700.659513154","1","1","5","479","3","left","0","in","Female","Right-handed","1","no","left","d","492.382652828","790.511005793","1","green","3"
"100","98","19","702.090369877","1","1","5","480","0","right","3","in","Female","Right-handed","1","no","right","d","1121.97537548","493.972159262","1","green","1"
"100","98","19","702.012708472","1","1","5","481","0","right","1","out","Female","Right-handed","1","no","right","d","457.721405963","934.65480032","1","green","3"
"100","98","19","699.55440613","1","1","5","482","3","left","2","out","Female","Right-handed","1","no","left","d","499.352619301","526.094236948","1","red","3"
"100","97","19","702.058524074","1","0","5","483","1","right","2","in","Female","Right-handed","1","no","right","s","470.85471892","1318.89649254","1","green","3"
"100","97","19","703.119862903","1","1","5","484","0","right","1","out","Female","Right-handed","1","no","right","d","765.474034373","806.334548768","1","green","3"
"100","97","19","708.823392397","1","1","5","485","0","right","0","out","Female","Right-handed","1","no","right","s","1824.96763096","493.836813881","1","red","1"
"100","97","19","708.431073372","1","1","5","486","1","right","2","out","Female","Right-handed","1","no","right","s","843.572168756","510.518934081","1","red","1"
"100","97","19","706.597664589","1","1","5","487","0","right","1","out","Female","Right-handed","1","no","right","s","669.963171302","446.219934964","1","green","0"
"100","97","19","716.719550584","1","1","5","488","0","right","0","in","Female","Right-handed","1","no","right","s","854.79685524","2238.63154914","1","red","2"
"100","97","19","716.173213087","1","1","5","489","1","right","0","in","Female","Right-handed","1","no","right","s","847.36216019","494.29224147","1","green","1"
"100","97","19","712.739334132","1","1","5","490","0","right","1","out","Female","Right-handed","1","no","right","s","434.751819225","413.835184605","1","green","3"
"100","97","19","712.405567488","1","1","5","491","3","left","1","out","Female","Right-handed","1","no","left","s","985.584754593","382.486050927","1","green","0"
"100","97","19","713.213290746","1","1","5","492","1","right","1","out","Female","Right-handed","1","no","right","d","711.174878103","854.180103652","1","red","2"
"100","97","19","710.570804208","1","1","5","493","2","left","1","in","Female","Right-handed","1","no","left","d","498.638367721","462.710583144","1","green","2"
"100","97","19","712.679953133","1","1","5","494","0","right","0","in","Female","Right-handed","1","no","right","s","750.176798916","1046.39331817","1","green","1"
"100","97","19","710.344795391","1","1","5","495","1","right","1","out","Female","Right-handed","1","no","right","s","487.028171405","518.003341299","1","green","2"
"100","97","19","716.709215006","1","1","5","496","0","left","2","in","Female","Right-handed","1","no","left","d","972.57908965","1606.43487113","1","red","0"
"100","97","19","715.398475715","1","1","5","497","3","right","1","out","Female","Right-handed","1","no","right","s","482.054388958","710.188011415","1","red","3"
"100","96","19","717.950048063","1","0","5","498","1","right","3","in","Female","Right-handed","1","no","right","s","890.68422864","1014.70517959","1","red","1"
"100","95","19","715.645366656","1","0","5","499","2","right","1","in","Female","Right-handed","1","no","right","d","500.247117576","502.372873963","1","red","2"
"100","95","19","713.401230306","1","1","5","500","2","right","1","in","Female","Right-handed","1","no","right","s","590.909601151","413.995225706","1","green","2"
"100","94","19","715.396159329","1","0","5","501","1","left","0","in","Female","Right-handed","1","no","left","s","707.386811009","1102.44202198","1","green","1"
dis_reply=No
dis_loc=2
