"acc_1","acc_2","age","avg_rt","correct_1","correct_2","count_block_loop","count_trial_sequence","cue_position","detection","dis_position","dis_shape","gender","hand","high_loc","practice","response_keyboard_response_1","response_keyboard_response_2","response_time_keyboard_response_1","response_time_keyboard_response_2","subject_nr","tar_color","tar_position"
"0","0","19","1979.9653113","0","0","0","0","3","right","3","in","Female","Right-handed","0","yes","None","s","3000.08210348","959.848519124","16","green","2"
"50","50","19","1340.23138745","1","1","0","1","1","left","2","in","Female","Right-handed","0","yes","left","s","927.018999559","473.975927656","16","red","1"
"66","66","19","1146.19259613","1","1","0","2","1","left","0","out","Female","Right-handed","0","yes","left","s","938.725478394","577.504548564","16","red","3"
"75","50","19","1052.93929603","1","0","0","3","2","left","0","in","Female","Right-handed","0","yes","left","s","984.104961593","562.253829907","16","green","1"
"80","60","19","990.991101073","1","1","0","4","2","right","3","in","Female","Right-handed","0","yes","right","s","1100.72299154","385.673650919","16","red","0"
"83","66","19","950.970894854","1","1","0","5","1","left","0","out","Female","Right-handed","0","yes","left","s","964.343363099","537.396364409","16","green","1"
"85","71","19","909.751545842","1","1","0","6","0","left","3","out","Female","Right-handed","0","yes","left","d","683.014877723","641.856025817","16","red","2"
"87","75","19","896.721678391","1","1","0","7","1","left","1","in","Female","Right-handed","0","yes","left","s","945.4265323","665.598680178","16","red","2"
"88","66","19","903.934028153","1","0","0","8","2","right","3","out","Female","Right-handed","0","yes","right","s","1297.06701406","626.198638434","16","green","0"
"90","70","19","871.746658209","1","1","0","9","1","right","0","in","Female","Right-handed","0","yes","right","s","834.549009829","329.571647599","16","green","1"
"90","72","19","872.151084834","1","1","0","10","3","right","3","out","Female","Right-handed","0","yes","right","s","1087.32761879","665.063083376","16","green","2"
"91","75","19","872.33978893","1","1","0","11","2","left","0","in","Female","Right-handed","0","yes","left","s","1090.9616593","657.869408664","16","green","1"
"92","69","19","876.578829525","1","0","0","12","3","right","0","out","Female","Right-handed","0","yes","right","s","621.511364414","1233.38326893","16","green","2"
"92","71","19","870.399554312","1","1","0","13","3","left","2","in","Female","Right-handed","0","yes","left","s","842.085851356","738.052101718","16","red","1"
"93","73","19","851.151121581","1","1","0","14","0","left","1","in","Female","Right-handed","0","yes","left","s","849.601846305","313.7442804","16","green","0"
"93","75","19","837.781933996","1","1","0","15","2","right","0","out","Female","Right-handed","0","yes","right","s","809.1559475","465.332292923","16","green","2"
"94","70","19","849.549701544","1","0","0","16","0","left","1","in","Female","Right-handed","0","yes","left","s","1177.97754152","897.690423124","16","red","3"
"94","66","19","832.824382718","1","0","0","17","0","left","1","out","Female","Right-handed","0","yes","left","d","591.43519745","505.552727904","16","green","2"
"94","68","19","849.680177125","1","1","0","18","3","left","2","in","Female","Right-handed","0","yes","left","s","1560.13485492","746.034097974","16","green","3"
"95","70","19","832.82652083","1","1","0","19","0","left","3","in","Female","Right-handed","0","yes","left","s","679.608546081","345.605556358","16","green","1"
"95","71","19","847.674194084","1","1","0","20","3","right","2","out","Female","Right-handed","0","yes","right","d","1376.08807135","913.167246996","16","green","0"
"95","72","19","854.700228031","1","1","0","21","3","right","2","in","Female","Right-handed","0","yes","right","d","1050.86341733","953.630464501","16","green","3"
"100","100","19","755.688150515","1","1","1","22","1","left","0","in","Female","Right-handed","0","no","left","d","821.635994915","689.740306116","16","red","3"
"100","100","19","732.539222845","1","1","1","23","3","left","2","out","Female","Right-handed","0","no","left","s","993.358278676","425.422311673","16","red","1"
"100","100","19","690.983671137","1","1","1","24","2","left","0","out","Female","Right-handed","0","no","left","s","701.823947718","513.921187725","16","red","3"
"100","100","19","667.871318532","1","1","1","25","1","right","2","in","Female","Right-handed","0","no","right","s","643.558069103","553.51045233","16","red","3"
"100","80","19","686.923708237","1","0","1","26","0","left","0","in","Female","Right-handed","0","no","left","d","1044.21977172","482.046762394","16","green","1"
"100","83","19","751.480347923","1","1","1","27","3","right","3","out","Female","Right-handed","0","no","right","s","1218.66205349","929.865039216","16","green","0"
"100","85","19","778.370813425","1","1","1","28","0","right","3","in","Female","Right-handed","0","no","right","d","1190.18914906","689.238063816","16","red","0"
"100","87","19","818.310964945","1","1","1","29","3","left","1","out","Female","Right-handed","0","no","left","s","1105.9965356","1089.78751558","16","green","0"
"100","88","19","835.099911967","1","1","1","30","0","right","0","out","Female","Right-handed","0","no","right","d","1257.4052675","681.41770878","16","red","2"
"100","90","19","847.390681319","1","1","1","31","0","right","0","in","Female","Right-handed","0","no","right","d","1026.02391201","889.991298958","16","green","3"
"100","90","19","841.59040243","1","1","1","32","2","right","0","in","Female","Right-handed","0","no","right","d","685.61845558","881.556771492","16","red","2"
"100","83","19","824.391057948","1","0","1","33","0","left","2","out","Female","Right-handed","0","no","left","s","997.165826877","273.230710416","16","green","0"
"100","84","19","822.298829918","1","1","1","34","1","left","0","out","Female","Right-handed","0","no","left","d","976.757342898","617.626844236","16","green","1"
"100","85","19","815.018270083","1","1","1","35","0","right","0","out","Female","Right-handed","0","no","right","d","639.357963752","801.384020684","16","red","2"
"100","86","19","829.51252885","1","1","1","36","3","left","0","in","Female","Right-handed","0","no","left","d","1022.95176711","1041.91253608","16","green","1"
"100","81","19","821.692932159","1","0","1","37","1","left","0","out","Female","Right-handed","0","no","left","d","615.350718115","793.447245465","16","green","2"
"100","82","19","824.27092755","1","1","1","38","1","right","3","out","Female","Right-handed","0","no","right","s","713.938378147","1017.09932947","16","green","2"
"100","77","19","854.155826889","1","0","1","39","3","left","0","in","Female","Right-handed","0","no","left","d","1226.720701","1497.67753031","16","green","1"
"100","78","19","856.656616927","1","1","1","40","3","left","0","in","Female","Right-handed","0","no","left","d","634.085702564","1169.25597264","16","green","2"
"100","80","19","850.115281605","1","1","1","41","3","left","0","in","Female","Right-handed","0","no","left","s","721.801388514","729.85843246","16","red","2"
"100","80","19","863.938194113","1","1","1","42","3","right","0","out","Female","Right-handed","0","no","right","d","1463.34096318","817.451925395","16","red","1"
"100","81","19","875.61559012","1","1","1","43","2","right","0","out","Female","Right-handed","0","no","right","d","984.942994197","1256.73881831","16","red","1"
"100","82","19","884.696671274","1","1","1","44","2","right","1","in","Female","Right-handed","0","no","right","s","1087.51523806","1081.44567526","16","green","2"
"100","83","19","885.084775037","1","1","1","45","2","right","1","in","Female","Right-handed","0","no","right","s","826.985548832","961.036774359","16","green","0"
"100","80","19","889.586041386","1","0","1","46","0","left","0","out","Female","Right-handed","0","no","left","s","873.620958446","1121.6119091","16","green","1"
"100","80","19","887.473796525","1","1","1","47","0","right","3","out","Female","Right-handed","0","no","right","d","996.185075317","673.15027467","16","green","1"
"100","81","19","889.963943015","1","1","1","48","2","left","1","in","Female","Right-handed","0","no","left","s","1027.72467243","881.690831069","16","red","0"
"100","82","19","904.546136903","1","1","1","49","0","left","1","out","Female","Right-handed","0","no","left","d","1011.28217069","1585.24857307","16","green","0"
"100","82","19","894.569595643","1","1","1","50","3","right","3","out","Female","Right-handed","0","no","right","s","797.752225189","432.700655569","16","green","2"
"100","83","19","885.433439481","1","1","1","51","1","right","3","in","Female","Right-handed","0","no","right","d","751.4288729","489.54094862","16","green","0"
"100","83","19","881.971928872","1","1","1","52","2","right","0","in","Female","Right-handed","0","no","right","s","875.146607606","681.1066136","16","red","2"
"100","81","19","873.760039234","1","0","1","53","3","right","0","out","Female","Right-handed","0","no","right","d","532.74180353","705.641117413","16","green","3"
"100","81","19","877.094601726","1","1","1","54","2","left","2","out","Female","Right-handed","0","no","left","s","902.348511881","1065.25269107","16","red","1"
"100","79","19","867.470424124","1","0","1","55","1","right","0","out","Female","Right-handed","0","no","right","d","442.873146618","656.871979852","16","green","2"
"97","77","19","901.237389021","0","0","1","56","2","right","0","out","Female","Right-handed","0","no","left","None","1098.49529364","3000.1330974","16","green","1"
"97","77","19","890.270946068","1","1","1","57","0","left","2","out","Female","Right-handed","0","no","left","d","563.898785651","448.992099788","16","green","3"
"97","78","19","894.222223483","1","1","1","58","0","right","0","in","Female","Right-handed","0","no","right","s","1039.5507786","1033.38564222","16","red","2"
"97","78","19","893.7309565","1","1","1","59","3","right","1","in","Female","Right-handed","0","no","right","s","1110.09753955","641.010616702","16","red","0"
"97","79","19","892.755346157","1","1","1","60","2","left","1","in","Female","Right-handed","0","no","left","d","861.690940132","849.673366116","16","red","3"
"97","80","19","895.929500225","1","1","1","61","0","right","2","out","Female","Right-handed","0","no","right","d","902.198095777","1137.24492202","16","red","1"
"97","80","19","895.133243576","1","1","1","62","0","right","1","in","Female","Right-handed","0","no","right","s","685.813130578","1040.75282463","16","green","0"
"97","80","19","885.938448334","1","1","1","63","0","left","0","in","Female","Right-handed","0","no","left","d","480.352416285","537.551270565","16","green","3"
"97","79","19","897.100021033","1","0","1","64","1","right","0","out","Female","Right-handed","0","no","right","d","858.931814699","1872.84033408","16","red","1"
"97","77","19","905.645107423","1","0","1","65","2","right","3","out","Female","Right-handed","0","no","right","s","1080.69744328","1465.4702011","16","green","1"
"95","77","19","905.24008974","0","1","1","66","2","left","2","in","Female","Right-handed","0","no","right","d","674.012361036","1100.82626235","16","red","0"
"95","78","19","910.475276853","1","1","1","67","3","left","0","out","Female","Right-handed","0","no","left","s","1331.55720445","960.560189356","16","red","1"
"95","78","19","913.859251201","1","1","1","68","3","left","2","in","Female","Right-handed","0","no","left","d","1338.07833632","800.965806149","16","red","3"
"95","79","19","921.98816454","1","1","1","69","1","right","0","out","Female","Right-handed","0","no","right","s","879.515409964","1728.57877298","16","red","3"
"95","79","19","926.585282654","1","1","1","70","3","right","3","out","Female","Right-handed","0","no","right","s","941.328414803","1353.16548948","16","green","0"
"96","80","19","925.69066814","1","1","1","71","0","left","0","out","Female","Right-handed","0","no","left","s","642.842550267","1120.86656358","16","red","2"
"96","80","19","930.15622794","1","1","1","72","1","left","3","out","Female","Right-handed","0","no","left","d","953.430658003","1353.43777793","16","red","0"
"96","80","19","936.701432476","1","1","1","73","2","left","2","out","Female","Right-handed","0","no","left","d","588.008660619","1953.00506701","16","red","3"
"96","81","19","934.394508518","1","1","1","74","3","right","0","out","Female","Right-handed","0","no","right","d","611.55214996","1017.31677537","16","red","3"
"96","79","19","952.887411502","1","0","1","75","1","right","2","out","Female","Right-handed","0","no","right","d","1169.0070965","2697.01544283","16","red","0"
"96","78","19","958.143458137","1","0","1","76","1","right","1","in","Female","Right-handed","0","no","right","s","1147.52613599","1336.41381687","16","red","2"
"96","78","19","973.587241965","1","1","1","77","2","left","3","out","Female","Right-handed","0","no","left","d","860.97125191","2785.01945309","16","red","0"
"96","78","19","970.918001196","1","1","1","78","3","left","1","in","Female","Right-handed","0","no","left","s","1097.45200234","545.429033897","16","red","2"
"96","79","19","965.550349845","1","1","1","79","0","left","3","in","Female","Right-handed","0","no","left","d","614.085170149","705.103275599","16","green","2"
"96","77","19","966.68800574","1","0","1","80","0","left","3","in","Female","Right-handed","0","no","left","s","952.602888312","1112.74120698","16","red","0"
"96","78","19","966.739522802","1","1","1","81","2","right","0","in","Female","Right-handed","0","no","right","d","930.307948933","1009.25010993","16","red","2"
"96","78","19","965.306703945","1","1","1","82","1","left","1","in","Female","Right-handed","0","no","left","s","1125.81265593","632.862489205","16","red","0"
"96","79","19","961.84853924","1","1","1","83","1","right","0","in","Female","Right-handed","0","no","right","d","709.360468521","792.440515885","16","red","3"
"96","77","19","961.690140352","1","0","1","84","3","right","1","in","Female","Right-handed","0","no","right","d","654.914966784","1248.82385184","16","green","3"
"96","78","19","961.210640349","1","1","1","85","0","left","2","out","Female","Right-handed","0","no","left","d","997.583720658","864.420559607","16","green","0"
"96","76","19","959.922866163","1","0","1","86","3","left","2","out","Female","Right-handed","0","no","left","d","906.039639929","848.970996623","16","green","0"
"96","77","19","969.903149205","1","1","1","87","2","right","0","in","Female","Right-handed","0","no","right","s","1284.65912788","1952.58396602","16","green","1"
"97","77","19","972.32499077","1","1","1","88","1","left","2","in","Female","Right-handed","0","no","left","d","927.151776268","1337.1812918","16","green","0"
"97","77","19","975.448991062","1","1","1","89","1","left","0","out","Female","Right-handed","0","no","left","s","1176.83162086","1192.6824004","16","red","2"
"97","76","19","976.381033015","1","0","1","90","3","left","0","in","Female","Right-handed","0","no","left","d","902.243637538","1177.27613417","16","red","2"
"97","77","19","974.314327251","1","1","1","91","3","right","2","out","Female","Right-handed","0","no","right","s","918.623920268","744.799338805","16","green","0"
"97","77","19","972.913321078","1","1","1","92","2","right","2","in","Female","Right-handed","0","no","right","s","885.41820008","864.267577766","16","green","0"
"97","77","19","970.628832809","1","1","1","93","2","left","3","in","Female","Right-handed","0","no","left","s","815.865019336","800.995312078","16","green","2"
"97","78","19","966.209951643","1","1","1","94","0","right","1","out","Female","Right-handed","0","no","right","s","655.556400103","640.544615366","16","green","2"
"95","77","19","964.951138513","0","0","1","95","3","right","3","in","Female","Right-handed","0","no","left","s","967.106337135","779.009222839","16","red","1"
"96","77","19","965.568286937","1","1","1","96","0","right","1","out","Female","Right-handed","0","no","right","s","989.745405503","1032.72913522","16","red","3"
"96","77","19","973.603522856","1","1","1","97","1","left","0","out","Female","Right-handed","0","no","left","s","888.188229903","2264.30420359","16","red","1"
"96","77","19","975.209104034","1","1","1","98","0","right","0","in","Female","Right-handed","0","no","right","d","569.727169554","1624.73937761","16","green","3"
"96","78","19","976.67833146","1","1","1","99","3","right","0","in","Female","Right-handed","0","no","right","d","667.296874919","1512.3208116","16","red","3"
"96","78","19","979.928851079","1","1","1","100","1","left","0","out","Female","Right-handed","0","no","left","s","1057.99198657","1408.94677609","16","red","2"
"96","77","19","977.48993992","1","0","1","101","3","right","0","out","Female","Right-handed","0","no","right","d","777.223151759","792.408764944","16","green","2"
"96","77","19","982.224835389","1","1","1","102","1","left","0","in","Female","Right-handed","0","no","left","d","785.081992799","1936.95095312","16","red","3"
"96","78","19","984.191388856","1","1","1","103","2","left","0","in","Female","Right-handed","0","no","left","d","582.563212462","1704.4012268","16","green","3"
"96","77","19","989.38170314","1","0","1","104","2","right","0","in","Female","Right-handed","0","no","right","d","1733.97643439","1095.99851444","16","red","2"
"96","77","19","989.81731475","1","1","1","105","1","left","1","out","Female","Right-handed","0","no","left","s","1011.56375991","1040.3823969","16","red","3"
"96","77","19","994.014063123","1","1","1","106","0","left","0","out","Female","Right-handed","0","no","left","s","1157.03859218","1536.04326083","16","green","1"
"96","77","19","989.628310348","1","1","1","107","2","left","0","in","Female","Right-handed","0","no","left","s","448.919938528","784.758710419","16","green","3"
"96","78","19","988.337490687","1","1","1","108","3","right","0","out","Female","Right-handed","0","no","right","d","602.370994107","1152.28300553","16","red","3"
"96","78","19","989.979978752","1","1","1","109","1","left","1","out","Female","Right-handed","0","no","left","d","1216.88560391","1048.86727687","16","green","0"
"96","78","19","990.866957061","1","1","1","110","2","right","0","in","Female","Right-handed","0","no","right","d","1105.4728053","1032.36929112","16","green","1"
"96","78","19","988.546454365","1","1","1","111","1","left","3","in","Female","Right-handed","0","no","left","d","795.08354186","768.959887006","16","red","1"
"96","79","19","986.568023244","1","1","1","112","1","right","2","out","Female","Right-handed","0","no","right","s","936.550698738","680.467746017","16","red","1"
"96","79","19","983.520021455","1","1","1","113","2","left","3","out","Female","Right-handed","0","no","left","s","796.212143789","616.091573582","16","green","0"
"96","79","19","978.75961321","1","1","1","114","2","left","0","in","Female","Right-handed","0","no","left","d","592.822617735","488.781491556","16","green","3"
"96","79","19","977.212327237","1","1","1","115","0","right","0","in","Female","Right-handed","0","no","right","d","1210.42252175","456.206941803","16","green","1"
"96","78","19","975.046905233","1","0","1","116","1","left","0","in","Female","Right-handed","0","no","left","s","950.983910589","592.010563123","16","green","1"
"96","79","19","978.827637418","1","1","1","117","0","right","0","in","Female","Right-handed","0","no","right","d","931.452907389","1744.54148262","16","green","3"
"100","0","19","717.358019538","1","0","2","118","2","right","3","out","Female","Right-handed","0","no","right","d","881.387112371","553.328926704","16","green","2"
"100","50","19","581.446958116","1","1","2","119","3","right","0","in","Female","Right-handed","0","no","right","s","474.059634696","417.012158694","16","green","3"
"100","66","19","613.501679647","1","1","2","120","1","left","2","in","Female","Right-handed","0","no","left","d","753.756313701","601.465931715","16","green","3"
"100","50","19","653.18995214","1","0","2","121","3","left","0","out","Female","Right-handed","0","no","left","d","711.197212833","833.312326402","16","green","1"
"100","60","19","704.20074682","1","1","2","122","1","left","0","in","Female","Right-handed","0","no","left","s","751.819185069","1064.66866602","16","green","1"
"100","50","19","786.898291444","1","0","2","123","0","right","1","out","Female","Right-handed","0","no","right","d","1087.53287746","1313.23915167","16","red","0"
"100","42","19","799.975708","1","0","2","124","1","left","1","out","Female","Right-handed","0","no","left","s","571.975714032","1184.90470064","16","red","3"
"100","50","19","853.663802982","1","1","2","125","0","right","0","in","Female","Right-handed","0","no","right","s","1145.63326625","1313.32766946","16","green","1"
"100","44","19","849.691557874","1","0","2","126","1","right","0","out","Female","Right-handed","0","no","right","d","682.865423762","952.961770265","16","green","2"
"100","50","19","854.481598397","1","1","2","127","1","left","0","in","Female","Right-handed","0","no","left","d","1153.5992267","641.584699508","16","red","2"
"100","54","19","846.59043348","1","1","2","128","1","left","2","out","Female","Right-handed","0","no","left","s","846.234321361","689.123247255","16","green","0"
"100","58","19","833.93526505","1","1","2","129","3","left","1","in","Female","Right-handed","0","no","left","d","620.776602562","768.680222071","16","green","2"
"100","61","19","829.505370287","1","1","2","130","0","left","1","out","Female","Right-handed","0","no","left","d","759.433319326","793.25994695","16","red","0"
"100","64","19","841.894933313","1","1","2","131","0","right","3","in","Female","Right-handed","0","no","right","d","597.03747608","1408.8810292","16","green","0"
"100","66","19","835.204757808","1","1","2","132","3","right","3","in","Female","Right-handed","0","no","right","d","825.644953176","657.439648319","16","green","2"
"100","68","19","852.767209493","1","1","2","133","0","left","2","out","Female","Right-handed","0","no","left","s","879.246328666","1353.16164087","16","red","1"
"100","70","19","841.972025241","1","1","2","134","0","left","0","in","Female","Right-handed","0","no","left","s","553.687808628","784.810345795","16","red","3"
"100","72","19","863.24589029","1","1","2","135","3","left","2","in","Female","Right-handed","0","no","left","d","896.395689953","1553.40750227","16","green","3"
"100","73","19","874.277845247","1","1","2","136","2","right","0","in","Female","Right-handed","0","no","right","s","1208.72657205","936.97949691","16","green","1"
"100","75","19","867.308308452","1","1","2","137","0","left","0","out","Female","Right-handed","0","no","left","d","532.385166618","937.389052066","16","green","3"
"100","76","19","878.196279419","1","1","2","138","3","left","2","out","Female","Right-handed","0","no","left","s","830.967246147","1360.94415135","16","green","0"
"100","77","19","903.865538139","1","1","2","139","1","right","0","in","Female","Right-handed","0","no","right","d","941.445797129","1944.39414539","16","green","1"
"100","78","19","904.828878766","1","1","2","140","3","right","0","out","Female","Right-handed","0","no","right","s","563.078071747","1288.96667337","16","green","3"
"100","79","19","904.048891489","1","1","2","141","1","left","0","out","Female","Right-handed","0","no","left","s","1027.65154906","744.566819223","16","red","2"
"100","80","19","916.234985247","1","1","2","142","3","left","2","out","Female","Right-handed","0","no","left","d","1184.21740484","1233.18506603","16","green","0"
"100","80","19","923.808305084","1","1","2","143","2","right","2","out","Female","Right-handed","0","no","right","s","889.698805346","1336.58379668","16","green","0"
"100","81","19","941.251894201","1","1","2","144","3","left","0","out","Female","Right-handed","0","no","left","d","964.254203864","1825.3162186","16","green","1"
"100","82","19","938.233940031","1","1","2","145","2","left","1","in","Female","Right-handed","0","no","left","d","632.71848741","1080.77986745","16","green","3"
"100","82","19","945.409744452","1","1","2","146","0","right","0","in","Female","Right-handed","0","no","right","s","907.274719793","1385.38981669","16","red","2"
"100","83","19","936.763456815","1","1","2","147","1","left","3","in","Female","Right-handed","0","no","left","d","498.988620006","873.053610674","16","red","1"
"100","83","19","930.91948318","1","1","2","148","2","left","0","out","Female","Right-handed","0","no","left","s","758.639545558","752.561002737","16","red","3"
"100","84","19","927.695626537","1","1","2","149","2","right","3","out","Female","Right-handed","0","no","right","s","758.289643709","897.2224975","16","red","0"
"100","84","19","915.591398459","1","1","2","150","2","right","0","in","Female","Right-handed","0","no","right","d","423.695573176","632.816626719","16","green","2"
"97","85","19","909.584492887","0","1","2","151","3","right","3","in","Female","Right-handed","0","no","left","s","795.44659314","627.266624913","16","red","0"
"97","85","19","910.033382479","1","1","2","152","3","right","0","out","Female","Right-handed","0","no","right","s","1137.72439343","712.866863789","16","green","1"
"97","86","19","915.89213593","1","1","2","153","0","right","0","in","Female","Right-handed","0","no","right","d","1025.56368359","1216.33332979","16","red","1"
"97","86","19","919.08726916","1","1","2","154","2","left","0","out","Female","Right-handed","0","no","left","d","1123.1093352","945.114795701","16","red","1"
"97","84","19","921.759816034","1","0","2","155","1","left","0","in","Female","Right-handed","0","no","left","d","1256.66922278","784.618877951","16","red","2"
"97","82","19","925.204614966","1","0","2","156","0","left","0","in","Female","Right-handed","0","no","left","s","831.159676163","1281.05427264","16","red","2"
"97","82","19","920.480176181","1","1","2","157","1","right","1","in","Female","Right-handed","0","no","right","d","743.612045742","728.842081357","16","red","2"
"97","80","19","911.549348784","1","0","2","158","2","left","0","out","Female","Right-handed","0","no","left","s","572.34934895","536.283156893","16","green","3"
"97","80","19","906.342648455","1","1","2","159","0","left","0","out","Female","Right-handed","0","no","left","d","744.867010013","640.868859919","16","green","1"
"97","81","19","909.884193613","1","1","2","160","2","right","0","out","Female","Right-handed","0","no","right","d","1036.64893424","1080.60924622","16","red","1"
"97","81","19","906.627779624","1","1","2","161","0","left","0","out","Female","Right-handed","0","no","left","s","580.207227875","952.99672836","16","green","2"
"97","82","19","906.994566666","1","1","2","162","1","right","0","out","Female","Right-handed","0","no","right","d","909.597670572","936.668722454","16","green","3"
"97","82","19","906.661994102","1","1","2","163","3","left","2","in","Female","Right-handed","0","no","left","d","671.23142691","1112.16103056","16","red","1"
"97","82","19","912.920104108","1","1","2","164","1","left","0","out","Female","Right-handed","0","no","left","s","928.796732012","1472.78959674","16","red","1"
"97","83","19","925.480541798","1","1","2","165","0","right","1","out","Female","Right-handed","0","no","right","s","759.316899173","2272.32532727","16","red","2"
"97","83","19","921.008602451","1","1","2","166","2","left","1","out","Female","Right-handed","0","no","left","s","683.809292881","728.901734663","16","red","0"
"98","82","19","923.009063131","1","0","2","167","0","left","3","in","Female","Right-handed","0","no","left","s","1289.53434186","752.528931043","16","green","1"
"98","82","19","919.567836562","1","1","2","168","3","right","1","in","Female","Right-handed","0","no","right","s","574.126439984","920.886576321","16","red","3"
"98","80","19","920.780002777","1","0","2","169","0","left","0","out","Female","Right-handed","0","no","left","s","660.63815559","1304.56280385","16","green","3"
"98","81","19","916.069971806","1","1","2","170","3","left","0","in","Female","Right-handed","0","no","left","s","678.127476538","664.16924604","16","green","2"
"98","81","19","921.832895358","1","1","2","171","0","right","2","in","Female","Right-handed","0","no","right","s","1189.7876118","1264.74807545","16","red","0"
"98","81","19","918.441426655","1","1","2","172","2","right","0","in","Female","Right-handed","0","no","right","d","558.2878477","912.316385715","16","green","2"
"98","80","19","920.108889949","1","0","2","173","3","right","3","out","Female","Right-handed","0","no","right","s","1006.90182255","1016.73691964","16","red","1"
"98","80","19","918.5092725","1","1","2","174","0","left","0","in","Female","Right-handed","0","no","left","s","873.480484559","784.380906203","16","green","1"
"98","81","19","912.8032723","1","1","2","175","0","right","3","in","Female","Right-handed","0","no","right","s","631.071928074","544.050593686","16","green","2"
"98","81","19","912.504578433","1","1","2","176","2","left","1","in","Female","Right-handed","0","no","left","s","869.741249015","920.619419339","16","green","2"
"98","81","19","915.910093391","1","1","2","177","3","right","3","in","Female","Right-handed","0","no","right","d","1105.32399279","1128.34695898","16","green","0"
"98","81","19","913.120698397","1","1","2","178","3","right","0","in","Female","Right-handed","0","no","right","d","514.712716453","976.801281067","16","red","3"
"98","82","19","914.987055409","1","1","2","179","2","right","0","out","Female","Right-handed","0","no","right","d","889.381295856","1168.28837045","16","red","2"
"98","82","19","915.779983096","1","1","2","180","1","right","2","in","Female","Right-handed","0","no","right","d","1121.94577514","807.937224192","16","green","1"
"98","82","19","912.362190555","1","1","2","181","1","left","3","in","Female","Right-handed","0","no","left","d","665.569174249","728.513346781","16","red","2"
"98","83","19","924.358062782","1","1","2","182","2","left","2","in","Female","Right-handed","0","no","left","s","992.121274496","2392.06649613","16","green","1"
"98","81","19","920.733213001","1","0","2","183","2","left","3","in","Female","Right-handed","0","no","left","d","842.662179202","527.573775267","16","green","1"
"98","80","19","923.418974207","1","0","2","184","0","right","3","in","Female","Right-handed","0","no","right","d","1385.1399784","816.218449094","16","red","0"
"98","80","19","921.379175874","1","1","2","185","2","right","3","out","Female","Right-handed","0","no","right","d","976.730081951","592.695293191","16","red","0"
"98","81","19","925.523128265","1","1","2","186","1","right","1","in","Female","Right-handed","0","no","right","d","894.365553482","1520.25822824","16","red","0"
"98","81","19","931.362582142","1","1","2","187","2","right","0","in","Female","Right-handed","0","no","right","s","1516.78711179","1151.78268752","16","red","2"
"98","80","19","932.433460202","1","0","2","188","3","right","1","out","Female","Right-handed","0","no","right","s","822.404432052","1192.38541677","16","red","0"
"98","80","19","930.878352419","1","1","2","189","2","right","0","out","Female","Right-handed","0","no","right","s","761.05005201","879.881347675","16","red","3"
"98","80","19","929.324983118","1","1","2","190","1","right","1","in","Female","Right-handed","0","no","right","s","818.411830318","816.552956559","16","red","0"
"98","81","19","933.511459799","1","1","2","191","2","left","1","in","Female","Right-handed","0","no","left","d","974.159217236","1504.08929778","16","red","0"
"98","80","19","929.099933279","1","0","2","192","2","right","2","out","Female","Right-handed","0","no","right","s","828.659048362","376.63489327","16","red","3"
"98","80","19","928.886406091","1","1","2","193","1","right","3","out","Female","Right-handed","0","no","right","d","825.386134849","1000.35759908","16","green","0"
"98","80","19","930.347649071","1","1","2","194","3","left","0","in","Female","Right-handed","0","no","left","d","954.874524439","1127.92970662","16","red","2"
"98","80","19","931.887431198","1","1","2","195","3","right","0","out","Female","Right-handed","0","no","right","s","884.429109923","1216.47220012","16","green","1"
"98","81","19","933.305563735","1","1","2","196","1","left","0","in","Female","Right-handed","0","no","left","s","1167.95707014","919.882733142","16","green","1"
"98","80","19","936.507632494","1","0","2","197","2","right","2","out","Female","Right-handed","0","no","right","d","947.516001354","1431.42612756","16","green","0"
"98","79","19","936.872957601","1","0","2","198","0","left","2","out","Female","Right-handed","0","no","left","d","884.222568391","1047.97536385","16","red","0"
"98","79","19","935.888360157","1","1","2","199","3","left","0","in","Female","Right-handed","0","no","left","d","727.668258391","984.603676014","16","red","2"
"98","79","19","940.951837434","1","1","2","200","3","right","0","out","Female","Right-handed","0","no","right","s","1024.13841872","1688.1755295","16","green","3"
"98","79","19","942.901566314","1","1","2","201","2","right","0","in","Female","Right-handed","0","no","right","d","1521.78772597","687.670400774","16","green","1"
"98","80","19","945.204594496","1","1","2","202","1","left","2","in","Female","Right-handed","0","no","left","s","893.154848105","1384.16307545","16","red","0"
"98","79","19","945.443716758","1","0","2","203","0","right","0","out","Female","Right-handed","0","no","right","d","955.826732185","975.711485866","16","red","3"
"98","79","19","946.959688816","1","1","2","204","2","right","0","out","Female","Right-handed","0","no","right","s","594.466290582","1560.20028112","16","green","3"
"98","79","19","946.744827211","1","1","2","205","3","left","0","out","Female","Right-handed","0","no","left","d","1000.0346374","856.069097761","16","red","2"
"98","79","19","945.050573107","1","1","2","206","1","left","3","in","Female","Right-handed","0","no","left","d","927.45357065","664.458853164","16","red","0"
"98","78","19","946.829951001","1","0","2","207","3","left","1","out","Female","Right-handed","0","no","left","s","914.184239547","1296.20492767","16","red","0"
"98","79","19","943.526081684","1","1","2","208","1","right","0","out","Female","Right-handed","0","no","right","s","548.741074861","743.614611478","16","green","3"
"98","79","19","940.518124179","1","1","2","209","0","right","1","out","Female","Right-handed","0","no","right","s","613.277605589","720.310376753","16","red","3"
"98","79","19","937.354481927","1","1","2","210","0","left","2","out","Female","Right-handed","0","no","left","d","580.770085595","711.828703934","16","red","3"
"98","79","19","934.574674674","1","1","2","211","0","left","0","out","Female","Right-handed","0","no","left","d","504.702828766","847.402371466","16","green","2"
"98","80","19","939.801756254","1","1","2","212","1","right","0","in","Female","Right-handed","0","no","right","d","558.184256224","2304.11059337","16","red","3"
"98","80","19","938.246905672","1","1","2","213","1","left","0","out","Female","Right-handed","0","no","left","s","549.601878389","1031.47032231","16","green","3"
"100","100","19","755.148063647","1","1","3","214","1","left","0","out","Female","Right-handed","0","no","left","d","645.70622929","864.589898003","16","green","1"
"100","100","19","838.954293693","1","1","3","215","3","left","0","out","Female","Right-handed","0","no","left","d","997.310790786","848.210256692","16","red","1"
"100","100","19","792.075219593","1","1","3","216","0","left","1","out","Female","Right-handed","0","no","left","d","555.771825486","840.862317302","16","green","3"
"100","100","19","820.055543307","1","1","3","217","1","right","2","out","Female","Right-handed","0","no","right","d","679.598283139","1128.39474576","16","green","3"
"100","100","19","845.440675909","1","1","3","218","2","left","0","out","Female","Right-handed","0","no","left","s","700.986235781","1192.97617686","16","green","2"
"100","100","19","832.225604708","1","1","3","219","2","left","1","out","Female","Right-handed","0","no","left","d","971.599898272","560.700599133","16","green","0"
"100","100","19","855.23223345","1","1","3","220","1","left","0","out","Female","Right-handed","0","no","left","s","865.15403862","1121.38997318","16","red","3"
"100","87","19","846.867877079","1","0","3","221","3","left","0","in","Female","Right-handed","0","no","left","d","511.914463568","1064.72030139","16","red","3"
"100","77","19","922.302967984","1","0","3","222","1","right","0","out","Female","Right-handed","0","no","right","d","1195.27956392","1856.28782652","16","red","2"
"100","80","19","925.098291636","1","1","3","223","3","right","1","in","Female","Right-handed","0","no","right","s","1155.72525744","744.787151576","16","green","0"
"100","81","19","951.22061408","1","1","3","224","1","right","1","in","Female","Right-handed","0","no","right","s","568.469318823","1856.41835822","16","red","3"
"100","75","19","908.111830371","1","0","3","225","0","right","0","out","Female","Right-handed","0","no","right","d","530.905700638","336.924718489","16","green","3"
"100","76","19","876.035560174","1","1","3","226","2","right","1","in","Female","Right-handed","0","no","right","s","397.685452015","584.555183625","16","red","3"
"100","78","19","851.298597793","1","1","3","227","0","right","2","out","Female","Right-handed","0","no","right","d","371.275397134","688.160776539","16","green","3"
"93","80","19","854.301243384","0","1","3","228","2","left","0","out","Female","Right-handed","0","no","right","d","821.858572279","970.817991038","16","green","2"
"93","81","19","849.870857421","1","1","3","229","1","right","0","in","Female","Right-handed","0","no","right","s","990.384273086","576.445862855","16","red","1"
"94","76","19","876.52425545","1","0","3","230","0","left","2","in","Female","Right-handed","0","no","left","s","1444.97640649","1160.98084135","16","green","0"
"94","77","19","858.971610267","1","1","3","231","2","left","0","in","Female","Right-handed","0","no","left","d","512.679693551","608.47359075","16","red","3"
"94","78","19","864.848631947","1","1","3","232","0","left","2","in","Female","Right-handed","0","no","left","d","1085.12942679","856.140617572","16","green","1"
"95","80","19","861.265693867","1","1","3","233","3","left","0","out","Female","Right-handed","0","no","left","d","505.755100108","1080.6246406","16","green","3"
"95","76","19","883.840403935","1","0","3","234","2","left","3","in","Female","Right-handed","0","no","left","s","774.379677867","1896.28953274","16","red","1"
"95","77","19","870.632666385","1","1","3","235","2","left","0","out","Female","Right-handed","0","no","left","d","577.788382827","608.751972817","16","red","1"
"95","78","19","861.452431493","1","1","3","236","1","right","0","out","Female","Right-handed","0","no","right","s","630.442682013","688.531845721","16","red","1"
"95","79","19","856.665497119","1","1","3","237","0","right","0","in","Female","Right-handed","0","no","right","d","797.044082807","696.087930235","16","red","2"
"96","80","19","857.683354516","1","1","3","238","2","left","3","out","Female","Right-handed","0","no","left","d","859.582869511","904.640994588","16","green","2"
"96","76","19","877.567080912","1","0","3","239","2","left","0","out","Female","Right-handed","0","no","left","d","781.12819785","1968.19228376","16","red","1"
"96","74","19","871.311465898","1","0","3","240","2","left","0","in","Female","Right-handed","0","no","left","s","968.764121557","448.566829494","16","green","1"
"96","75","19","861.667625151","1","1","3","241","2","right","0","in","Female","Right-handed","0","no","right","s","578.205635189","624.362214818","16","red","3"
"96","75","19","857.36646854","1","1","3","242","3","left","2","out","Female","Right-handed","0","no","left","d","696.849311586","777.018855268","16","red","1"
"96","73","19","870.005471426","1","0","3","243","3","left","2","in","Female","Right-handed","0","no","left","d","608.547034877","1864.52607537","16","red","3"
"96","74","19","868.277311943","1","1","3","244","0","right","0","out","Female","Right-handed","0","no","right","s","848.864839412","784.000215499","16","red","2"
"96","75","19","857.556747005","1","1","3","245","2","right","1","in","Female","Right-handed","0","no","right","d","529.632134799","520.806333021","16","green","2"
"96","75","19","857.365658035","1","1","3","246","0","right","0","in","Female","Right-handed","0","no","right","s","974.253828637","728.247793391","16","green","1"
"97","76","19","856.12796342","1","1","3","247","3","left","3","out","Female","Right-handed","0","no","left","d","782.750703424","847.817378817","16","red","1"
"97","77","19","850.734690854","1","1","3","248","2","left","0","in","Female","Right-handed","0","no","left","d","646.373961383","688.352885831","16","green","1"
"97","75","19","868.059357385","1","0","3","249","2","left","1","in","Female","Right-handed","0","no","left","d","972.913232981","1975.93213894","16","red","0"
"97","75","19","888.610084984","1","1","3","250","3","right","0","out","Female","Right-handed","0","no","right","s","928.539517248","2328.33303986","16","green","1"
"97","73","19","889.580794291","1","0","3","251","0","right","2","in","Female","Right-handed","0","no","right","d","898.978741927","952.015335381","16","green","0"
"97","74","19","890.745168138","1","1","3","252","3","right","2","in","Female","Right-handed","0","no","right","s","981.392340065","888.590408577","16","green","0"
"97","72","19","895.292865626","1","0","3","253","1","right","0","in","Female","Right-handed","0","no","right","s","1297.0654105","848.240724794","16","red","2"
"97","70","19","894.227864353","1","0","3","254","0","left","3","out","Female","Right-handed","0","no","left","s","814.729682345","888.525944552","16","red","0"
"97","71","19","895.371550022","1","1","3","255","3","right","3","out","Female","Right-handed","0","no","right","d","1052.25564839","832.269676524","16","red","0"
"97","69","19","893.660655564","1","0","3","256","1","left","0","in","Female","Right-handed","0","no","left","d","667.83022671","975.775949919","16","green","2"
"97","70","19","888.859857957","1","1","3","257","3","left","3","in","Female","Right-handed","0","no","left","s","732.430580072","632.42054166","16","red","2"
"97","71","19","887.519892006","1","1","3","258","3","left","0","in","Female","Right-handed","0","no","left","d","649.160027038","1007.96275324","16","green","2"
"97","71","19","884.650191759","1","1","3","259","2","left","2","in","Female","Right-handed","0","no","left","s","710.502219823","800.525141473","16","red","0"
"97","70","19","890.309054107","1","0","3","260","0","left","0","out","Female","Right-handed","0","no","left","s","1221.14664546","1080.08679876","16","green","1"
"97","68","19","896.744349053","1","0","3","261","1","left","1","in","Female","Right-handed","0","no","left","d","846.72213142","1551.68429166","16","red","0"
"97","67","19","904.601657701","1","0","3","262","1","right","0","out","Female","Right-handed","0","no","right","d","787.206740701","1776.2982049","16","green","1"
"98","68","19","900.393917031","1","1","3","263","2","right","2","out","Female","Right-handed","0","no","right","s","708.676700597","679.752547847","16","green","1"
"98","68","19","894.080615604","1","1","3","264","1","right","0","in","Female","Right-handed","0","no","right","s","516.486921028","640.344167448","16","green","3"
"98","69","19","887.367127396","1","1","3","265","1","right","3","out","Female","Right-handed","0","no","right","d","545.893110917","544.06534665","16","red","0"
"98","69","19","881.831922189","1","1","3","266","0","right","0","out","Female","Right-handed","0","no","right","d","588.509299327","599.493203539","16","red","3"
"98","70","19","882.41384817","1","1","3","267","3","right","0","out","Female","Right-handed","0","no","right","s","842.234984622","984.276865725","16","red","2"
"98","70","19","886.584296715","1","1","3","268","0","left","0","in","Female","Right-handed","0","no","left","s","1703.76781138","519.809224876","16","green","1"
"98","69","19","887.794684777","1","0","3","269","0","left","0","in","Female","Right-handed","0","no","left","s","548.389248696","1360.34280763","16","green","2"
"98","68","19","888.673108469","1","0","3","270","0","right","1","in","Female","Right-handed","0","no","right","s","1091.93375148","783.795919008","16","red","2"
"98","68","19","890.901915854","1","1","3","271","1","right","3","in","Female","Right-handed","0","no","right","s","1124.37584528","911.51202831","16","red","1"
"98","69","19","888.833707504","1","1","3","272","0","left","1","out","Female","Right-handed","0","no","left","d","793.851669179","743.903577182","16","red","0"
"98","70","19","884.672413588","1","1","3","273","0","left","0","out","Female","Right-handed","0","no","left","d","558.769564115","719.542581064","16","red","3"
"98","70","19","883.18958208","1","1","3","274","1","right","3","out","Female","Right-handed","0","no","right","s","780.229870463","808.209512645","16","green","2"
"98","70","19","879.974477058","1","1","3","275","3","left","1","in","Female","Right-handed","0","no","left","s","591.846997646","775.859143818","16","red","2"
"98","71","19","886.528806254","1","1","3","276","3","right","3","out","Female","Right-handed","0","no","right","d","1242.45570181","1343.33873101","16","red","0"
"98","71","19","883.48902674","1","1","3","277","3","left","0","out","Female","Right-handed","0","no","left","s","583.996495203","799.969339482","16","red","3"
"98","72","19","880.097370072","1","1","3","278","2","right","0","out","Female","Right-handed","0","no","right","d","750.486607343","575.576079282","16","red","2"
"98","72","19","876.900803824","1","1","3","279","2","left","2","in","Female","Right-handed","0","no","left","d","634.16107095","704.086924466","16","red","0"
"98","73","19","878.733840207","1","1","3","280","2","right","3","in","Female","Right-handed","0","no","right","s","687.778803025","1311.64967993","16","green","0"
"98","73","19","874.817557026","1","1","3","281","1","right","0","out","Female","Right-handed","0","no","right","d","585.511881451","639.341286471","16","green","3"
"98","73","19","873.674350801","1","1","3","282","0","right","0","out","Female","Right-handed","0","no","right","s","1047.9667045","543.905950471","16","red","2"
"98","74","19","873.129082179","1","1","3","283","2","right","3","in","Female","Right-handed","0","no","right","s","831.599699421","839.411395136","16","green","0"
"98","74","19","873.031621258","1","1","3","284","3","left","2","in","Female","Right-handed","0","no","left","d","868.178396719","864.240316849","16","red","0"
"98","73","19","882.852072595","1","0","3","285","3","left","0","out","Female","Right-handed","0","no","left","s","1088.65763081","2071.55060413","16","red","1"
"98","73","19","882.089150173","1","1","3","286","1","right","2","in","Female","Right-handed","0","no","right","s","798.266654718","856.050816917","16","red","0"
"98","72","19","886.908930138","1","0","3","287","0","right","3","in","Female","Right-handed","0","no","right","s","861.741934059","1615.76380115","16","green","0"
"98","73","19","886.934693857","1","1","3","288","3","left","1","in","Female","Right-handed","0","no","left","s","753.322704783","1024.35971325","16","red","0"
"98","73","19","886.130450608","1","1","3","289","1","right","0","in","Female","Right-handed","0","no","right","s","707.847968762","943.776445085","16","red","2"
"98","74","19","887.382487594","1","1","3","290","2","right","0","out","Female","Right-handed","0","no","right","s","581.6437178","1383.4308793","16","green","3"
"98","74","19","888.15465538","1","1","3","291","0","right","3","out","Female","Right-handed","0","no","right","d","975.080636184","920.142513641","16","green","1"
"98","74","19","884.718337474","1","1","3","292","0","right","0","in","Female","Right-handed","0","no","right","d","529.624758288","703.746323387","16","green","3"
"98","75","19","882.67465147","1","1","3","293","3","right","0","in","Female","Right-handed","0","no","right","d","683.172349615","759.274564567","16","red","2"
"98","75","19","882.841190253","1","1","3","294","2","right","0","in","Female","Right-handed","0","no","right","s","528.611614369","1263.71697141","16","red","3"
"98","75","19","880.324474444","1","1","3","295","0","right","3","out","Female","Right-handed","0","no","right","d","553.480625676","799.460362148","16","green","2"
"98","75","19","881.277970188","1","1","3","296","1","left","3","in","Female","Right-handed","0","no","left","d","1319.97323938","598.956003145","16","green","0"
"98","75","19","880.323115774","1","0","3","297","2","left","0","in","Female","Right-handed","0","no","left","d","530.566382397","1071.57401642","16","green","2"
"98","74","19","883.450060049","1","0","3","298","0","left","1","out","Female","Right-handed","0","no","left","s","1053.11164114","1239.11511709","16","green","0"
"98","74","19","888.041384547","1","1","3","299","3","right","0","out","Female","Right-handed","0","no","right","s","828.831593913","1727.77633992","16","red","1"
"98","73","19","888.630251178","1","0","3","300","0","left","0","out","Female","Right-handed","0","no","left","d","839.226662327","1039.31890044","16","green","1"
"98","72","19","886.83133419","1","0","3","301","1","right","0","in","Female","Right-handed","0","no","right","d","548.825744074","911.825368471","16","green","3"
"98","73","19","883.276540719","1","1","3","302","2","right","2","out","Female","Right-handed","0","no","right","s","565.481843107","575.427587464","16","green","3"
"98","73","19","882.934486531","1","1","3","303","1","right","1","in","Female","Right-handed","0","no","right","s","970.034480241","734.948847298","16","green","0"
"98","73","19","880.255172889","1","1","3","304","3","left","1","out","Female","Right-handed","0","no","left","d","678.7179159","599.515974405","16","green","3"
"98","73","19","878.786114213","1","1","3","305","1","left","2","in","Female","Right-handed","0","no","left","s","523.146923195","967.056626046","16","green","1"
"98","74","19","876.291367789","1","1","3","306","1","left","2","in","Female","Right-handed","0","no","left","d","701.718431927","591.830961785","16","green","0"
"98","73","19","872.703452909","1","0","3","307","3","left","0","out","Female","Right-handed","0","no","left","s","454.612017842","623.442720156","16","green","3"
"98","73","19","868.848537557","1","1","3","308","3","left","0","out","Female","Right-handed","0","no","left","d","421.912388556","591.06060036","16","red","2"
"97","73","19","865.550374244","0","1","3","309","1","right","1","out","Female","Right-handed","0","no","left","s","445.71597912","658.733740071","16","red","2"
"100","100","19","618.822796678","1","1","4","310","3","right","0","out","Female","Right-handed","0","no","right","d","645.725793031","591.919800325","16","red","2"
"100","100","19","682.603799156","1","1","4","311","0","right","0","in","Female","Right-handed","0","no","right","d","396.316954022","1096.45264925","16","green","3"
"100","100","19","681.748581449","1","1","4","312","0","right","0","out","Female","Right-handed","0","no","right","d","407.950309425","952.125982644","16","red","3"
"100","100","19","657.580763673","1","1","4","313","2","right","0","out","Female","Right-handed","0","no","right","d","497.57874955","672.57587114","16","red","3"
"100","100","19","651.226372406","1","1","4","314","2","left","0","in","Female","Right-handed","0","no","left","d","787.264469691","464.353144984","16","red","2"
"100","100","19","646.004816527","1","1","4","315","0","left","0","out","Female","Right-handed","0","no","left","s","719.811983087","519.982091181","16","red","2"
"100","100","19","633.088273738","1","1","4","316","0","left","0","in","Female","Right-handed","0","no","left","d","494.657982956","616.520051058","16","red","3"
"100","100","19","655.531624752","1","1","4","317","0","right","3","in","Female","Right-handed","0","no","right","d","1025.21281957","600.057344127","16","red","0"
"100","100","19","689.977101902","1","1","4","318","3","left","1","out","Female","Right-handed","0","no","left","d","931.70050066","999.381337548","16","green","0"
"100","90","19","693.256900141","1","0","4","319","1","right","3","out","Female","Right-handed","0","no","right","s","941.225144052","504.325024521","16","green","1"
"100","81","19","732.628097808","1","0","4","320","0","right","0","out","Female","Right-handed","0","no","right","d","764.826811413","1487.85333754","16","green","2"
"100","83","19","722.817405531","1","1","4","321","1","left","1","in","Female","Right-handed","0","no","left","s","533.403121284","696.39645968","16","green","2"
"100","84","19","726.678366412","1","1","4","322","3","right","0","out","Female","Right-handed","0","no","right","d","889.958585845","656.061208137","16","red","2"
"100","85","19","721.311058555","1","1","4","323","1","left","0","out","Female","Right-handed","0","no","left","s","607.598354981","695.473757835","16","red","3"
"100","86","19","706.537819819","1","1","4","324","3","left","0","in","Female","Right-handed","0","no","left","s","455.242867494","544.182087528","16","red","3"
"93","87","19","706.490725917","0","1","4","325","2","right","3","in","Female","Right-handed","0","no","left","d","584.911499842","826.657134952","16","red","2"
"94","88","19","718.983543633","1","1","4","326","1","right","2","in","Female","Right-handed","0","no","right","d","981.359626952","856.377627206","16","green","0"
"94","88","19","714.734272171","1","1","4","327","2","left","0","in","Female","Right-handed","0","no","left","d","564.980242227","720.013072423","16","green","2"
"94","84","19","736.095806034","1","0","4","328","1","right","1","out","Female","Right-handed","0","no","right","d","1265.56782724","975.639003882","16","green","0"
"95","85","19","765.247848232","1","1","4","329","0","left","2","out","Female","Right-handed","0","no","left","s","902.167948429","1736.10535156","16","green","0"
"95","85","19","760.025041557","1","1","4","330","1","right","1","out","Female","Right-handed","0","no","right","s","575.490127231","735.647688881","16","red","3"
"95","86","19","807.349729593","1","1","4","331","3","right","0","out","Female","Right-handed","0","no","right","d","2026.20800334","1576.12835336","16","green","1"
"95","86","19","806.409295172","1","1","4","332","1","left","0","out","Female","Right-handed","0","no","left","s","803.712423658","767.727052153","16","green","1"
"95","83","19","809.676169983","1","0","4","333","1","left","0","in","Female","Right-handed","0","no","left","s","745.256360068","1024.3722212","16","green","1"
"96","84","19","825.042153395","1","1","4","334","0","right","0","in","Female","Right-handed","0","no","right","s","803.845521033","1583.80598953","16","green","2"
"96","84","19","826.035764941","1","1","4","335","2","left","0","in","Female","Right-handed","0","no","left","s","965.33501902","736.417088163","16","red","1"
"96","85","19","834.164393349","1","1","4","336","3","left","3","in","Female","Right-handed","0","no","left","d","979.088632273","1111.92883167","16","red","0"
"96","82","19","835.981347623","1","0","4","337","1","right","3","in","Female","Right-handed","0","no","right","s","978.537641088","791.540584934","16","red","0"
"96","82","19","841.783481904","1","1","4","338","1","left","3","in","Female","Right-handed","0","no","left","d","904.271208274","1104.21527529","16","green","0"
"96","80","19","845.345102352","1","0","4","339","3","left","0","in","Female","Right-handed","0","no","left","s","1049.56355272","847.70063794","16","red","3"
"96","80","19","838.562830571","1","1","4","340","3","left","2","out","Female","Right-handed","0","no","left","s","750.149213418","520.040140895","16","green","0"
"96","81","19","837.652815475","1","1","4","341","0","left","3","in","Female","Right-handed","0","no","left","s","594.994510931","1023.89018403","16","red","2"
"96","81","19","835.327068454","1","1","4","342","1","right","3","out","Female","Right-handed","0","no","right","d","690.370193625","831.436133914","16","green","2"
"97","82","19","833.306869492","1","1","4","343","2","right","2","in","Female","Right-handed","0","no","right","d","829.088167259","704.192440258","16","red","1"
"97","82","19","827.357589317","1","1","4","344","3","right","2","in","Female","Right-handed","0","no","right","d","538.558000175","711.606126599","16","red","3"
"97","83","19","825.216302006","1","1","4","345","2","left","1","in","Female","Right-handed","0","no","left","s","604.126597115","896.415895084","16","green","2"
"97","81","19","828.074763283","1","0","4","346","0","right","3","in","Female","Right-handed","0","no","right","d","878.126706812","983.832031692","16","red","1"
"97","81","19","828.635931443","1","1","4","347","0","left","0","in","Female","Right-handed","0","no","left","s","683.378570423","1015.41973633","16","green","1"
"97","82","19","827.221353696","1","1","4","348","2","left","2","in","Female","Right-handed","0","no","left","d","722.921331093","824.013467529","16","green","0"
"97","82","19","827.782192977","1","1","4","349","3","left","3","out","Female","Right-handed","0","no","left","d","595.625681337","1103.68416851","16","red","2"
"97","82","19","828.631286816","1","1","4","350","0","right","0","out","Female","Right-handed","0","no","right","d","885.042961599","840.147119132","16","green","1"
"97","83","19","839.274185667","1","1","4","351","1","right","2","in","Female","Right-handed","0","no","right","s","1119.61416501","1431.65191211","16","green","0"
"97","81","19","839.518719601","1","0","4","352","3","left","2","out","Female","Right-handed","0","no","left","d","716.275119718","983.303169924","16","green","0"
"97","81","19","857.288043387","1","1","4","353","3","right","0","in","Female","Right-handed","0","no","right","d","1730.89627156","1511.84166089","16","red","2"
"97","82","19","851.554903858","1","1","4","354","0","right","2","out","Female","Right-handed","0","no","right","s","807.263398485","391.33013066","16","green","0"
"97","82","19","845.022326132","1","1","4","355","2","right","0","in","Female","Right-handed","0","no","right","s","806.179696898","295.932959969","16","green","2"
"97","82","19","843.077394682","1","1","4","356","0","right","0","in","Female","Right-handed","0","no","right","s","635.603975214","871.617120748","16","green","2"
"97","83","19","848.151592288","1","1","4","357","1","left","0","in","Female","Right-handed","0","no","left","d","1037.05143364","1136.22632591","16","red","2"
"97","83","19","842.37782788","1","1","4","358","2","left","3","out","Female","Right-handed","0","no","left","d","666.720867797","463.753404794","16","green","0"
"98","82","19","836.228769759","1","0","4","359","3","right","0","in","Female","Right-handed","0","no","right","s","726.391164644","343.45867901","16","green","3"
"98","82","19","834.056760069","1","1","4","360","0","right","2","in","Female","Right-handed","0","no","right","s","483.010515978","967.902035161","16","green","3"
"98","82","19","836.144692406","1","1","4","361","3","right","0","out","Female","Right-handed","0","no","right","d","749.666855583","1135.59162762","16","red","2"
"98","83","19","838.417382246","1","1","4","362","1","left","1","in","Female","Right-handed","0","no","left","s","978.181004146","935.013503768","16","red","0"
"98","83","19","838.245593034","1","1","4","363","3","left","3","out","Female","Right-handed","0","no","left","d","866.628052375","791.653477179","16","green","1"
"98","83","19","837.945886176","1","1","4","364","3","right","0","in","Female","Right-handed","0","no","right","s","956.185614137","687.337817595","16","red","3"
"98","83","19","839.122108698","1","1","4","365","1","right","2","out","Female","Right-handed","0","no","right","d","975.860298378","831.768396398","16","red","3"
"98","84","19","837.768813802","1","1","4","366","2","left","3","out","Female","Right-handed","0","no","left","s","748.649863061","775.318736239","16","green","1"
"98","84","19","838.143671287","1","1","4","367","1","right","0","out","Female","Right-handed","0","no","right","d","623.888195609","1095.13290017","16","green","2"
"98","84","19","840.517500684","1","1","4","368","3","left","1","out","Female","Right-handed","0","no","left","s","1100.85833402","855.540877412","16","red","0"
"98","85","19","843.346339997","1","1","4","369","0","right","1","in","Female","Right-handed","0","no","right","d","997.282567726","1023.21315117","16","green","0"
"98","85","19","839.983600968","1","1","4","370","1","right","0","in","Female","Right-handed","0","no","right","s","540.726686217","735.71183224","16","green","3"
"98","85","19","837.504845795","1","1","4","371","2","left","0","out","Female","Right-handed","0","no","left","d","461.250211258","911.351349263","16","green","3"
"98","84","19","837.853007418","1","0","4","372","2","right","2","out","Female","Right-handed","0","no","right","d","711.982327222","1006.89572893","16","green","0"
"98","84","19","834.989884996","1","1","4","373","3","left","3","in","Female","Right-handed","0","no","left","s","765.663881873","543.56246296","16","green","0"
"98","84","19","831.408322858","1","1","4","374","3","left","1","in","Female","Right-handed","0","no","left","d","565.182935185","639.193756797","16","green","3"
"98","84","19","832.769822011","1","1","4","375","0","right","0","in","Female","Right-handed","0","no","right","s","1146.74775666","695.786777302","16","red","1"
"98","83","19","836.471873754","1","0","4","376","1","right","0","out","Female","Right-handed","0","no","right","s","994.383289129","1167.23128836","16","red","1"
"98","83","19","833.54289573","1","1","4","377","1","left","0","out","Female","Right-handed","0","no","left","s","498.842052504","775.760683784","16","red","3"
"98","84","19","831.252330744","1","1","4","378","0","right","0","out","Female","Right-handed","0","no","right","d","855.445624562","495.542198769","16","red","1"
"98","82","19","829.107611847","1","0","4","379","2","left","1","out","Female","Right-handed","0","no","left","s","811.132524279","551.111491688","16","red","0"
"98","83","19","831.122680821","1","1","4","380","2","right","0","out","Female","Right-handed","0","no","right","d","480.730541254","1463.62447672","16","green","3"
"98","83","19","828.81929756","1","1","4","381","2","left","2","out","Female","Right-handed","0","no","left","s","555.292674806","775.265497272","16","red","3"
"98","83","19","827.101305575","1","1","4","382","1","right","2","out","Female","Right-handed","0","no","right","s","887.965011091","518.846754189","16","red","1"
"98","82","19","828.424695498","1","0","4","383","2","left","0","out","Female","Right-handed","0","no","left","d","1010.59359202","839.470727718","16","red","1"
"98","81","19","828.559222094","1","0","4","384","0","right","2","out","Female","Right-handed","0","no","right","s","821.961201611","855.067178927","16","red","1"
"98","81","19","824.783704463","1","1","4","385","3","right","2","in","Female","Right-handed","0","no","right","s","651.662258402","431.577505835","16","red","1"
"98","81","19","822.167218342","1","1","4","386","2","left","3","in","Female","Right-handed","0","no","left","d","839.329933107","407.298613194","16","red","0"
"98","80","19","819.086081609","1","0","4","387","0","left","1","out","Female","Right-handed","0","no","left","d","684.898125968","478.778980381","16","red","0"
"98","79","19","815.033421334","1","0","4","388","2","left","0","in","Female","Right-handed","0","no","left","d","502.429589047","495.422250737","16","green","3"
"98","80","19","814.695846751","1","1","4","389","3","left","0","in","Female","Right-handed","0","no","left","d","761.016056058","815.038853209","16","green","1"
"98","80","19","820.602281577","1","1","4","390","0","left","0","out","Female","Right-handed","0","no","left","s","618.706697249","1967.52743813","16","red","3"
"98","79","19","818.804060948","1","0","4","391","0","left","1","out","Female","Right-handed","0","no","left","d","571.192844683","775.103535357","16","green","2"
"98","79","19","818.376027927","1","1","4","392","1","left","0","in","Female","Right-handed","0","no","left","s","591.700109391","974.854530942","16","red","2"
"98","78","19","817.429887558","1","0","4","393","3","right","0","out","Female","Right-handed","0","no","right","s","782.51369379","695.286780043","16","green","1"
"98","78","19","817.835147825","1","1","4","394","2","left","1","out","Female","Right-handed","0","no","left","s","480.960815796","1222.79320477","16","green","3"
"98","79","19","815.703398651","1","1","4","395","1","right","0","in","Female","Right-handed","0","no","right","s","461.451300624","807.558137109","16","green","3"
"98","79","19","813.96242673","1","1","4","396","3","left","0","out","Female","Right-handed","0","no","left","d","553.320908773","775.156774325","16","red","1"
"98","78","19","819.272679413","1","0","4","397","0","right","1","out","Female","Right-handed","0","no","right","s","707.851175917","1854.67814963","16","green","3"
"97","77","19","813.43982121","0","0","4","398","1","left","0","in","Female","Right-handed","0","no","right","d","142.21699239","458.079606352","16","green","2"
"97","76","19","812.161641696","1","0","4","399","3","right","1","in","Female","Right-handed","0","no","right","d","565.797749034","831.009580783","16","red","2"
"97","76","19","825.769089918","1","1","4","400","2","right","0","in","Female","Right-handed","0","no","right","d","1269.48826772","2831.39059215","16","green","1"
"96","77","19","826.14989368","0","1","4","401","0","left","3","out","Female","Right-handed","0","no","right","s","935.849932808","785.75613926","16","green","0"
"96","77","19","827.104569194","1","1","4","402","2","left","0","in","Female","Right-handed","0","no","left","s","1070.42168145","759.447751567","16","red","2"
"96","76","19","839.736961774","1","0","4","403","2","right","0","out","Female","Right-handed","0","no","right","None","1029.00785982","3000.09108352","16","red","1"
"96","76","19","838.285517602","1","1","4","404","1","right","0","in","Female","Right-handed","0","no","right","s","853.360645561","550.338885252","16","red","1"
"96","77","19","835.933433413","1","1","4","405","2","left","1","out","Female","Right-handed","0","no","left","d","801.975101494","422.995769419","16","red","0"
"100","100","19","615.326183266","1","1","5","406","2","right","2","in","Female","Right-handed","0","no","right","d","623.367993161","607.284373371","16","green","3"
"100","50","19","680.919154707","1","0","5","407","0","left","0","out","Female","Right-handed","0","no","left","s","581.057127012","911.967125285","16","green","2"
"100","66","19","825.149499404","1","1","5","408","3","left","3","in","Female","Right-handed","0","no","left","s","923.667510476","1303.55286712","16","green","1"
"100","75","19","905.513824975","1","1","5","409","3","right","3","out","Female","Right-handed","0","no","right","d","829.154876323","1464.05872706","16","red","0"
"100","80","19","887.619727542","1","1","5","410","1","left","2","out","Female","Right-handed","0","no","left","d","712.568276562","919.518399052","16","red","0"
"100","83","19","908.486547703","1","1","5","411","1","right","0","out","Female","Right-handed","0","no","right","s","698.256937001","1327.38436002","16","red","2"
"100","85","19","862.447144179","1","1","5","412","0","right","0","in","Female","Right-handed","0","no","right","s","476.677644794","695.743801276","16","red","3"
"100","87","19","903.132142965","1","1","5","413","3","right","2","out","Female","Right-handed","0","no","right","d","912.544094549","1463.31017438","16","red","0"
"100","88","19","870.276970554","1","1","5","414","1","right","0","in","Female","Right-handed","0","no","right","s","558.968729165","655.902453378","16","green","3"
"100","90","19","844.617524539","1","1","5","415","3","left","0","out","Female","Right-handed","0","no","left","s","595.648452232","631.716568576","16","red","2"
"100","90","19","841.264554307","1","1","5","416","0","left","1","out","Female","Right-handed","0","no","left","s","688.135119213","927.334584761","16","green","0"
"100","91","19","897.728200864","1","1","5","417","0","left","3","in","Female","Right-handed","0","no","left","s","717.858497868","2319.7981281","16","red","1"
"100","84","19","882.808824674","1","0","5","418","0","right","1","in","Female","Right-handed","0","no","right","s","616.295228683","791.257392121","16","green","0"
"100","85","19","879.383125788","1","1","5","419","0","right","1","in","Female","Right-handed","0","no","right","s","597.788594489","1071.90948605","16","green","2"
"100","86","19","872.354555264","1","1","5","420","3","right","0","in","Female","Right-handed","0","no","right","s","772.489053139","775.420082704","16","red","3"
"100","87","19","859.465517268","1","1","5","421","3","right","2","out","Female","Right-handed","0","no","right","d","573.106240278","759.153654391","16","green","3"
"100","88","19","849.570378339","1","1","5","422","2","left","0","out","Female","Right-handed","0","no","left","d","470.740858698","911.755452253","16","red","3"
"100","88","19","830.061818494","1","1","5","423","0","right","0","out","Female","Right-handed","0","no","right","d","453.463210754","543.369391497","16","red","3"
"100","84","19","819.159614995","1","0","5","424","1","right","2","in","Female","Right-handed","0","no","right","d","446.92828806","798.911615944","16","green","3"
"100","85","19","811.425996076","1","1","5","425","2","left","0","in","Female","Right-handed","0","no","left","s","953.457277501","375.51719573","16","green","1"
"100","80","19","833.935914123","1","0","5","426","1","left","0","in","Female","Right-handed","0","no","left","d","985.129330598","1583.13921955","16","red","1"
"100","77","19","839.807888388","1","0","5","427","3","right","1","in","Female","Right-handed","0","no","right","s","1294.72931032","631.509385596","16","red","0"
"100","78","19","830.648572335","1","1","5","428","2","left","0","out","Female","Right-handed","0","no","left","s","531.160028942","727.127209364","16","green","3"
"100","79","19","833.219625914","1","1","5","429","2","right","0","in","Female","Right-handed","0","no","right","d","576.848041557","1207.8596749","16","green","3"
"100","76","19","868.584680583","1","0","5","430","1","right","0","out","Female","Right-handed","0","no","right","d","571.500411956","2863.19157336","16","green","3"
"100","76","19","878.133466533","1","1","5","431","3","left","0","in","Female","Right-handed","0","no","left","d","1497.9164642","735.789766361","16","red","2"
"100","77","19","876.772260963","1","1","5","432","2","left","0","in","Female","Right-handed","0","no","left","d","867.366983555","815.39484873","16","red","1"
"100","78","19","866.638767753","1","1","5","433","2","right","1","in","Female","Right-handed","0","no","right","d","507.046946819","679.021955322","16","red","3"
"100","79","19","861.326816105","1","1","5","434","1","left","3","out","Female","Right-handed","0","no","left","d","793.604396662","631.579943292","16","red","0"
"100","76","19","856.971225622","1","0","5","435","1","right","2","in","Female","Right-handed","0","no","right","d","662.206780806","799.111422413","16","red","0"
"100","77","19","865.707016206","1","1","5","436","2","left","3","in","Female","Right-handed","0","no","left","s","951.74978199","1303.81168544","16","green","1"
"100","75","19","866.9020747","1","0","5","437","0","left","0","in","Female","Right-handed","0","no","left","s","656.473970477","1151.42380557","16","red","2"
"100","75","19","863.8281522","1","1","5","438","3","right","1","in","Female","Right-handed","0","no","right","s","523.863404204","1007.06186017","16","green","3"
"100","76","19","863.850259354","1","1","5","439","0","right","2","out","Female","Right-handed","0","no","right","s","1097.59824915","631.561341724","16","red","0"
"100","77","19","857.086846269","1","1","5","440","1","left","2","in","Female","Right-handed","0","no","left","d","695.145985403","559.11561739","16","red","1"
"97","75","19","853.453118869","0","0","5","441","0","right","0","in","Female","Right-handed","0","no","left","d","778.787928371","673.757391312","16","red","2"
"97","75","19","857.867655126","1","1","5","442","0","left","2","in","Female","Right-handed","0","no","left","d","834.307830897","1199.27408992","16","red","0"
"97","76","19","865.669957778","1","1","5","443","3","left","3","out","Female","Right-handed","0","no","left","s","957.882846706","1350.82746504","16","green","0"
"97","74","19","872.074865664","1","0","5","444","2","right","1","out","Female","Right-handed","0","no","right","d","647.510260518","1583.41247018","16","green","0"
"97","72","19","867.922344555","1","0","5","445","0","left","0","in","Female","Right-handed","0","no","left","s","677.080657362","734.867385268","16","red","3"
"95","73","19","859.545775878","0","1","5","446","1","right","1","out","Female","Right-handed","0","no","left","d","510.412226751","538.553830848","16","red","2"
"95","73","19","855.44202415","1","1","5","447","3","left","1","out","Female","Right-handed","0","no","left","s","575.163316942","799.213089602","16","green","2"
"93","74","19","843.379253173","0","1","5","448","0","left","0","out","Female","Right-handed","0","no","right","d","463.698562235","209.787182044","16","green","1"
"93","72","19","841.435368727","1","0","5","449","1","left","3","out","Female","Right-handed","0","no","left","s","868.389748998","647.30692617","16","red","0"
"93","71","19","842.257548807","1","0","5","450","3","left","3","out","Female","Right-handed","0","no","left","s","990.008072433","766.858872171","16","green","2"
"93","71","19","839.861245563","1","1","5","451","1","left","3","in","Female","Right-handed","0","no","left","d","632.543376123","831.511823053","16","red","2"
"93","70","19","839.71793543","1","0","5","452","2","left","3","in","Female","Right-handed","0","no","left","d","803.07163173","863.179706852","16","green","0"
"93","70","19","852.571575674","1","1","5","453","1","left","0","out","Female","Right-handed","0","no","left","d","650.792154105","2262.5931802","16","red","2"
"93","71","19","857.992762839","1","1","5","454","2","right","1","in","Female","Right-handed","0","no","right","d","1269.27563257","967.143860995","16","green","0"
"94","72","19","856.767968232","1","1","5","455","2","right","3","out","Female","Right-handed","0","no","right","d","834.795961651","758.710103255","16","green","2"
"94","70","19","857.551711144","1","0","5","456","1","right","1","out","Female","Right-handed","0","no","right","d","674.241673492","1119.23604007","16","red","0"
"94","71","19","852.442236401","1","1","5","457","2","left","3","out","Female","Right-handed","0","no","left","d","696.913454914","486.804594053","16","red","0"
"94","69","19","845.339788138","1","0","5","458","3","left","0","in","Female","Right-handed","0","no","left","s","632.526057452","319.498899451","16","green","2"
"94","68","19","844.410441352","1","0","5","459","0","left","0","out","Female","Right-handed","0","no","left","d","919.285238022","671.024885349","16","red","1"
"94","69","19","848.933901375","1","1","5","460","0","left","3","in","Female","Right-handed","0","no","left","d","763.659402757","1422.74208253","16","red","0"
"94","69","19","849.376774794","1","1","5","461","2","right","0","out","Female","Right-handed","0","no","right","d","740.250293689","1007.21933204","16","red","3"
"94","68","19","859.165780293","1","0","5","462","2","right","2","in","Female","Right-handed","0","no","right","s","775.937719387","2038.76245703","16","green","0"
"94","68","19","856.668799211","1","1","5","463","3","right","1","in","Female","Right-handed","0","no","right","s","549.337607867","879.344147251","16","red","0"
"94","67","19","852.657118236","1","0","5","464","1","left","0","in","Female","Right-handed","0","no","left","s","520.995876548","718.963366787","16","green","2"
"95","68","19","847.813506148","1","1","5","465","2","right","0","in","Female","Right-handed","0","no","right","d","597.541642637","526.53914332","16","red","2"
"95","68","19","852.622981472","1","1","5","466","3","left","0","out","Female","Right-handed","0","no","left","s","883.211990207","1399.17101158","16","green","1"
"95","69","19","860.195453838","1","1","5","467","2","right","0","in","Female","Right-handed","0","no","right","d","1013.73340812","1630.49912814","16","red","1"
"95","69","19","862.614387734","1","1","5","468","0","right","0","out","Female","Right-handed","0","no","right","d","626.077407534","1399.09917105","16","green","3"
"95","68","19","861.421072071","1","0","5","469","3","right","0","in","Female","Right-handed","0","no","right","d","733.777910791","838.706459908","16","red","2"
"95","69","19","862.665635045","1","1","5","470","1","right","0","out","Female","Right-handed","0","no","right","d","917.275627406","967.359703296","16","red","1"
"95","68","19","865.684061765","1","0","5","471","2","right","2","in","Female","Right-handed","0","no","right","d","1068.90212593","1054.86147123","16","red","0"
"95","67","19","875.097554709","1","0","5","472","3","right","0","out","Female","Right-handed","0","no","right","d","1138.45755171","1854.31862622","16","red","1"
"95","67","19","879.337648029","1","1","5","473","3","right","2","out","Female","Right-handed","0","no","right","s","1144.00915711","1182.83864393","16","green","1"
"95","66","19","880.882292742","1","0","5","474","3","right","0","out","Female","Right-handed","0","no","right","d","877.411508671","1094.42475779","16","green","1"
"95","67","19","876.340736528","1","1","5","475","3","right","0","out","Female","Right-handed","0","no","right","s","822.951253969","302.995461534","16","red","1"
"95","67","19","879.211978115","1","1","5","476","1","left","1","in","Female","Right-handed","0","no","left","s","705.716165103","1454.68161334","16","green","3"
"95","68","19","877.460611718","1","1","5","477","1","right","0","out","Female","Right-handed","0","no","right","s","803.078046098","703.149148962","16","green","3"
"95","68","19","872.253517066","1","1","5","478","1","left","0","in","Female","Right-handed","0","no","left","d","467.903799115","526.78160512","16","green","3"
"95","68","19","874.708222601","1","1","5","479","1","right","0","out","Female","Right-handed","0","no","right","s","1589.42077609","518.382677197","16","green","2"
"96","69","19","869.09888133","1","1","5","480","3","left","0","out","Female","Right-handed","0","no","left","d","468.86466624","439.150588354","16","green","3"
"96","69","19","870.783160377","1","1","5","481","2","right","0","in","Female","Right-handed","0","no","right","s","627.633524768","1366.57465305","16","green","2"
"96","70","19","870.833601622","1","1","5","482","3","right","2","out","Female","Right-handed","0","no","right","d","886.132436077","863.201836299","16","green","0"
"96","69","19","868.402976504","1","0","5","483","0","left","2","in","Female","Right-handed","0","no","left","d","675.794583542","686.695101409","16","red","3"
"96","69","19","867.409308017","1","1","5","484","2","left","0","in","Female","Right-handed","0","no","left","d","685.347129271","894.459202769","16","green","2"
"96","70","19","864.15949424","1","1","5","485","2","left","1","out","Female","Right-handed","0","no","left","s","511.928575113","702.919836534","16","green","2"
"96","70","19","864.677976301","1","1","5","486","1","right","0","in","Female","Right-handed","0","no","right","d","1053.73126574","758.581816597","16","red","1"
"95","70","19","864.037207373","0","1","5","487","1","left","1","in","Female","Right-handed","0","no","right","s","639.19471897","985.075129487","16","green","0"
"95","69","19","872.075225863","1","0","5","488","0","left","3","out","Female","Right-handed","0","no","left","s","943.666759995","2118.71872409","16","red","0"
"95","70","19","872.393508973","1","1","5","489","0","right","0","out","Female","Right-handed","0","no","right","s","967.376380577","830.245633697","16","green","2"
"95","70","19","872.158705546","1","1","5","490","3","left","0","out","Female","Right-handed","0","no","left","s","601.904030656","1102.96640461","16","red","3"
"95","69","19","875.324618403","1","0","5","491","0","left","3","out","Female","Right-handed","0","no","left","d","658.377423854","1630.47699869","16","green","2"
"95","68","19","877.250186338","1","0","5","492","3","left","0","in","Female","Right-handed","0","no","left","s","1143.93410939","941.763948038","16","green","3"
"95","69","19","875.218446314","1","1","5","493","1","right","3","out","Female","Right-handed","0","no","right","d","966.499861912","430.414266506","16","green","1"
"95","68","19","877.211986863","1","0","5","494","1","right","0","in","Female","Right-handed","0","no","right","d","1219.25537928","886.031731061","16","green","1"
"95","68","19","878.473004192","1","1","5","495","2","right","0","out","Female","Right-handed","0","no","right","s","622.656643623","1358.75044941","16","red","2"
"95","69","19","882.19485668","1","1","5","496","0","left","0","in","Female","Right-handed","0","no","left","d","812.160421192","1622.16273998","16","red","1"
"95","69","19","880.200851179","1","1","5","497","0","left","1","out","Female","Right-handed","0","no","left","s","590.816214274","806.676487002","16","red","3"
"95","69","19","887.317991097","1","1","5","498","2","left","0","out","Female","Right-handed","0","no","left","d","597.959215753","2486.23051125","16","green","1"
"95","70","19","887.083147753","1","1","5","499","2","right","2","in","Female","Right-handed","0","no","right","s","851.801000448","878.68443309","16","green","1"
"95","70","19","886.391603854","1","1","5","500","0","left","2","out","Female","Right-handed","0","no","left","s","724.294319109","918.478635605","16","red","1"
"95","70","19","887.934387666","1","1","5","501","0","left","0","in","Female","Right-handed","0","no","left","d","711.028836609","1357.96886293","16","green","1"
dis_reply=No
dis_loc=3
