"acc_1","acc_2","age","avg_rt","correct_1","correct_2","count_block_loop","count_trial_sequence","cue_position","detection","dis_position","dis_shape","gender","hand","high_loc","practice","response_keyboard_response_1","response_keyboard_response_2","response_time_keyboard_response_1","response_time_keyboard_response_2","subject_nr","tar_color","tar_position"
"100","100","21","1204.5801583","1","1","0","0","1","left","3","out","Female","Right-handed","0","yes","left","s","1119.52151879","1289.63879781","4","red","1"
"100","100","21","1224.37931153","1","1","0","1","3","right","0","in","Female","Right-handed","0","yes","right","s","1126.19577806","1362.16115145","4","red","1"
"100","100","21","1161.8064204","1","1","0","2","1","left","1","out","Female","Right-handed","0","yes","left","s","1207.63970161","865.681574651","4","red","3"
"100","100","21","1167.28091928","1","1","0","3","0","left","2","in","Female","Right-handed","0","yes","left","s","958.26775871","1409.14107319","4","green","0"
"100","100","21","1083.20142504","1","1","0","4","0","left","3","in","Female","Right-handed","0","yes","left","s","747.833912614","745.932983511","4","red","1"
"100","100","21","1057.89981384","1","1","0","5","1","left","0","out","Female","Right-handed","0","yes","left","s","765.41566267","1097.36785304","4","red","1"
"100","100","21","1025.40688034","1","1","0","6","2","left","1","in","Female","Right-handed","0","yes","left","s","1083.00424414","577.894314498","4","red","0"
"100","100","21","976.668817387","1","1","0","7","2","left","3","out","Female","Right-handed","0","yes","left","s","629.561291735","641.443461711","4","red","0"
"100","100","21","951.841044653","1","1","0","8","3","left","1","in","Female","Right-handed","0","yes","left","s","657.288813898","849.148911675","4","red","0"
"100","100","21","951.239981796","1","1","0","9","3","left","3","in","Female","Right-handed","0","yes","left","d","553.82079694","1337.84003523","4","red","0"
"100","100","21","944.702839183","1","1","0","10","0","left","0","in","Female","Right-handed","0","yes","left","s","813.298100769","945.364725336","4","green","1"
"100","100","21","927.890725068","1","1","0","11","1","left","2","in","Female","Right-handed","0","yes","left","s","563.974587141","921.940352455","4","green","0"
"100","100","21","930.21124809","1","1","0","12","3","right","3","out","Female","Right-handed","0","yes","right","d","802.542312267","1113.57273643","4","red","2"
"100","92","21","927.882708885","1","0","0","13","1","left","0","out","Female","Right-handed","0","yes","left","s","842.1545702","953.068828261","4","green","3"
"100","86","21","935.001246012","1","0","0","14","2","right","0","in","Female","Right-handed","0","yes","right","s","923.644357237","1145.67717432","4","green","3"
"100","87","21","924.670572707","1","1","0","15","2","right","2","in","Female","Right-handed","0","yes","right","s","762.21740638","777.203539892","4","red","0"
"100","82","21","916.790681386","1","0","0","16","1","left","0","in","Female","Right-handed","0","yes","left","s","579.691649866","1001.73319063","4","red","2"
"100","83","21","912.87538343","1","1","0","17","0","right","1","out","Female","Right-handed","0","yes","right","s","835.258049443","857.372586917","4","green","0"
"100","84","21","900.145990032","1","1","0","18","2","right","0","in","Female","Right-handed","0","yes","right","s","645.010550204","697.023267538","4","green","3"
"100","85","21","897.799531038","1","1","0","19","1","right","3","out","Female","Right-handed","0","yes","right","d","600.773457169","1105.66016314","4","red","2"
"100","85","21","888.127045482","1","1","0","20","2","left","3","in","Female","Right-handed","0","yes","left","s","644.197836464","745.156832265","4","red","2"
"100","86","21","886.660509842","1","1","0","21","3","right","3","in","Female","Right-handed","0","yes","right","s","517.830150526","1193.89637226","4","red","2"
"100","0","21","741.217864692","1","0","1","22","0","right","0","out","Female","Right-handed","0","no","right","d","656.588353431","825.847375952","4","red","2"
"100","50","21","684.214366559","1","1","1","23","0","left","0","out","Female","Right-handed","0","no","left","s","541.24939183","713.172345022","4","green","2"
"100","66","21","708.727222071","1","1","1","24","1","right","3","out","Female","Right-handed","0","no","right","d","529.730601749","985.775264442","4","red","0"
"100","75","21","714.536462911","1","1","1","25","0","right","3","out","Female","Right-handed","0","no","right","s","670.429503498","793.498867366","4","green","0"
"100","60","21","785.546684695","1","0","1","26","2","right","0","in","Female","Right-handed","0","no","right","s","802.069244877","1337.10589878","4","green","2"
"100","66","21","785.316218022","1","1","1","27","2","left","2","in","Female","Right-handed","0","no","left","d","702.70296275","865.624806564","4","green","1"
"100","71","21","797.869872608","1","1","1","28","1","left","0","out","Female","Right-handed","0","no","left","s","961.167100551","785.216499691","4","red","3"
"100","75","21","785.861575189","1","1","1","29","0","right","1","in","Female","Right-handed","0","no","right","d","617.708307611","785.898678907","4","green","3"
"100","77","21","782.479123295","1","1","1","30","3","left","1","in","Female","Right-handed","0","no","left","d","637.384062407","873.454953882","4","red","3"
"100","80","21","774.286077161","1","1","1","31","0","left","0","in","Female","Right-handed","0","no","left","d","632.052993813","769.0443301","4","green","3"
"100","81","21","767.629326493","1","1","1","32","2","left","0","in","Female","Right-handed","0","no","left","d","672.615876654","729.507762957","4","red","2"
"100","75","21","774.133105341","1","0","1","33","1","left","0","out","Female","Right-handed","0","no","left","s","554.115541978","1137.23380338","4","green","2"
"100","69","21","777.798038192","1","0","1","34","1","left","2","in","Female","Right-handed","0","no","left","s","730.829465138","912.724999671","4","green","1"
"100","71","21","773.443879752","1","1","1","35","3","right","1","out","Female","Right-handed","0","no","right","s","720.313577935","713.366062111","4","green","0"
"100","66","21","774.585162661","1","0","1","36","0","left","1","in","Female","Right-handed","0","no","left","s","748.082152724","833.044094048","4","green","2"
"100","68","21","769.864350331","1","1","1","37","0","left","2","in","Female","Right-handed","0","no","left","s","700.501515577","697.602815184","4","green","1"
"100","70","21","785.000039524","1","1","1","38","3","left","0","in","Female","Right-handed","0","no","left","d","661.191700059","1393.15043318","4","green","1"
"100","72","21","828.285802266","1","1","1","39","2","right","0","in","Female","Right-handed","0","no","right","s","1950.74101597","1177.54652177","4","green","3"
"100","73","21","826.6484086","1","1","1","40","0","left","1","in","Female","Right-handed","0","no","left","s","753.174282196","841.17636305","4","red","0"
"100","70","21","819.65336027","1","0","1","41","3","right","0","out","Female","Right-handed","0","no","right","s","540.71089681","832.783987167","4","red","3"
"100","71","21","815.071068773","1","1","1","42","0","left","0","out","Female","Right-handed","0","no","left","s","589.456402271","857.394075399","4","red","3"
"100","72","21","806.773371621","1","1","1","43","1","right","0","out","Female","Right-handed","0","no","right","s","664.074364267","600.969098596","4","red","2"
"100","73","21","809.288504273","1","1","1","44","3","right","1","in","Female","Right-handed","0","no","right","d","751.598246156","977.644599061","4","green","2"
"100","75","21","814.156631223","1","1","1","45","3","right","3","out","Female","Right-handed","0","no","right","d","867.149847545","985.097254637","4","green","1"
"100","72","21","810.959191443","1","0","1","46","3","right","3","in","Female","Right-handed","0","no","right","d","659.725992955","808.715280462","4","red","0"
"100","73","21","809.973133966","1","1","1","47","0","left","0","out","Female","Right-handed","0","no","left","s","985.375322045","585.268072056","4","green","1"
"100","74","21","815.343147643","1","1","1","48","3","right","3","in","Female","Right-handed","0","no","right","d","684.965982447","1224.96102406","4","green","0"
"100","75","21","809.280406996","1","1","1","49","0","left","2","out","Female","Right-handed","0","no","left","s","737.664086231","553.508732824","4","green","0"
"100","75","21","806.808733163","1","1","1","50","3","left","1","out","Female","Right-handed","0","no","left","d","538.056267116","937.147464567","4","green","0"
"100","76","21","807.970485299","1","1","1","51","3","right","2","in","Female","Right-handed","0","no","right","d","817.582006632","865.7405878","4","red","1"
"100","77","21","803.62465632","1","1","1","52","3","left","0","out","Female","Right-handed","0","no","left","d","529.381975139","817.117598781","4","red","2"
"100","78","21","801.288077314","1","1","1","53","1","right","1","in","Female","Right-handed","0","no","right","s","728.84194065","728.866315643","4","red","2"
"100","78","21","801.673272651","1","1","1","54","1","left","0","in","Female","Right-handed","0","no","left","d","730.442351684","897.556695123","4","red","1"
"100","79","21","795.802700844","1","1","1","55","0","left","2","out","Female","Right-handed","0","no","left","s","683.134329651","521.013332804","4","red","3"
"100","80","21","791.469795414","1","1","1","56","2","right","0","out","Female","Right-handed","0","no","right","d","583.679207066","704.622814548","4","green","3"
"100","77","21","793.77082766","1","0","1","57","1","left","3","in","Female","Right-handed","0","no","left","s","659.334710093","1089.27920245","4","red","1"
"100","78","21","789.882634472","1","1","1","58","2","left","0","in","Female","Right-handed","0","no","left","d","690.887182565","608.928176822","4","red","3"
"100","76","21","786.150653759","1","0","1","59","2","left","1","in","Female","Right-handed","0","no","left","s","655.571980169","640.562754554","4","red","2"
"100","76","21","787.905903232","1","1","1","60","3","right","2","out","Female","Right-handed","0","no","right","s","740.147449495","969.063316945","4","green","0"
"100","77","21","792.650264645","1","1","1","61","1","right","0","in","Female","Right-handed","0","no","right","d","1106.72849364","848.632225865","4","green","1"
"100","75","21","795.15158765","1","0","1","62","1","right","0","in","Female","Right-handed","0","no","right","s","861.230892489","929.17812318","4","red","3"
"100","76","21","792.701895808","1","1","1","63","1","right","1","in","Female","Right-handed","0","no","right","s","559.822177976","824.706882631","4","green","0"
"100","74","21","797.53457787","1","0","1","64","1","left","0","out","Female","Right-handed","0","no","left","d","703.596178126","1297.41827079","4","red","2"
"100","75","21","797.000958293","1","1","1","65","3","left","0","out","Female","Right-handed","0","no","left","d","554.982778744","993.127854239","4","green","2"
"100","75","21","795.648489154","1","1","1","66","1","left","1","out","Female","Right-handed","0","no","left","s","607.665487794","864.614206326","4","green","3"
"100","76","21","798.617533234","1","1","1","67","3","right","2","out","Female","Right-handed","0","no","right","d","591.284527101","1273.16450654","4","red","3"
"100","74","21","799.013505898","1","0","1","68","3","right","0","in","Female","Right-handed","0","no","right","d","865.615184855","768.84131203","4","green","1"
"100","75","21","804.425725185","1","1","1","69","0","left","0","out","Female","Right-handed","0","no","left","d","956.35400066","1161.24606272","4","green","1"
"100","75","21","803.138688089","1","1","1","70","2","left","1","in","Female","Right-handed","0","no","left","d","785.923374631","696.798440255","4","red","3"
"100","76","21","806.677238787","1","1","1","71","1","left","3","out","Female","Right-handed","0","no","left","s","855.503730178","1104.62871586","4","red","0"
"100","76","21","807.606699147","1","1","1","72","1","right","2","in","Female","Right-handed","0","no","right","d","715.096686956","993.06274734","4","red","3"
"100","76","21","805.751516338","1","1","1","73","2","right","1","out","Female","Right-handed","0","no","right","d","797.571737061","624.702649078","4","red","0"
"100","77","21","809.506856699","1","1","1","74","3","right","0","in","Female","Right-handed","0","no","right","d","624.253956685","1385.31515429","4","green","2"
"100","77","21","810.578242418","1","1","1","75","0","right","3","in","Female","Right-handed","0","no","right","s","669.958681174","1064.76468987","4","red","2"
"100","78","21","812.139713988","1","1","1","76","3","left","0","out","Female","Right-handed","0","no","left","d","920.478814758","872.439542789","4","red","3"
"100","76","21","815.788345273","1","0","1","77","0","left","0","in","Female","Right-handed","0","no","left","d","632.087631966","1400.83849993","4","green","3"
"100","77","21","816.9064332","1","1","1","78","0","left","1","in","Female","Right-handed","0","no","left","d","750.556535721","1008.48217851","4","green","0"
"100","77","21","815.892221523","1","1","1","79","2","left","0","out","Female","Right-handed","0","no","left","s","675.050489921","841.113821938","4","red","2"
"100","76","21","825.38924939","1","0","1","80","0","right","3","out","Female","Right-handed","0","no","right","s","855.849470274","1896.584261","4","green","1"
"100","76","21","822.785472651","1","1","1","81","3","left","0","in","Female","Right-handed","0","no","left","s","561.115656477","777.209633641","4","green","3"
"100","75","21","825.499472281","1","0","1","82","0","right","0","out","Female","Right-handed","0","no","right","s","1111.80202114","864.876879001","4","red","2"
"100","75","21","825.982059195","1","1","1","83","1","right","0","in","Female","Right-handed","0","no","right","s","734.472244414","976.367477469","4","red","1"
"100","76","21","826.489459618","1","1","1","84","1","left","2","in","Female","Right-handed","0","no","left","d","954.958532035","760.938039719","4","red","0"
"100","76","21","823.387425516","1","1","1","85","1","left","3","in","Female","Right-handed","0","no","left","s","663.398599529","592.519954622","4","green","2"
"100","75","21","824.199739587","1","0","1","86","2","left","0","out","Female","Right-handed","0","no","left","d","759.103500408","993.272179883","4","green","1"
"100","75","21","821.463856237","1","1","1","87","2","right","3","out","Female","Right-handed","0","no","right","s","598.663736964","688.599140009","4","green","2"
"100","76","21","820.118746449","1","1","1","88","2","right","2","out","Female","Right-handed","0","no","right","s","686.32200206","776.360998851","4","red","0"
"100","76","21","820.909085352","1","1","1","89","2","left","2","out","Female","Right-handed","0","no","left","s","1058.85086639","688.872717288","4","red","3"
"100","75","21","818.554138625","1","0","1","90","2","left","0","in","Female","Right-handed","0","no","left","s","492.350259738","824.485262587","4","red","2"
"100","75","21","817.082960626","1","1","1","91","3","right","3","in","Female","Right-handed","0","no","right","s","798.132682732","633.010674646","4","green","2"
"100","76","21","814.923853496","1","1","1","92","1","left","0","in","Female","Right-handed","0","no","left","s","630.750214321","696.82249453","4","red","2"
"100","76","21","815.554434003","1","1","1","93","2","right","0","in","Female","Right-handed","0","no","right","s","952.354576679","768.296723261","4","red","1"
"100","76","21","816.614495399","1","1","1","94","1","right","2","out","Female","Right-handed","0","no","right","s","632.934021691","1152.94381018","4","green","0"
"100","77","21","818.30914567","1","1","1","95","1","right","0","out","Female","Right-handed","0","no","right","d","643.540994417","1240.49623647","4","red","3"
"100","77","21","817.858761213","1","1","1","96","1","left","0","out","Female","Right-handed","0","no","left","d","696.964895833","872.095727031","4","green","1"
"100","76","21","817.592991418","1","0","1","97","2","left","0","in","Female","Right-handed","0","no","left","s","602.69972344","992.620790141","4","green","1"
"100","75","21","817.010139695","1","0","1","98","0","right","3","out","Female","Right-handed","0","no","right","d","585.20521022","960.22160722","4","red","0"
"100","75","21","819.123756082","1","1","1","99","2","left","2","in","Female","Right-handed","0","no","left","d","682.896673421","1280.84776242","4","green","0"
"100","75","21","818.841313856","1","1","1","100","0","left","0","out","Female","Right-handed","0","no","left","s","809.396497505","784.225142874","4","red","1"
"100","76","21","817.523833376","1","1","1","101","0","right","0","out","Female","Right-handed","0","no","right","s","586.898951842","839.986799016","4","red","3"
"100","75","21","818.686369045","1","0","1","102","3","right","0","out","Female","Right-handed","0","no","right","s","662.824824907","1160.55362035","4","green","3"
"100","75","21","818.606564216","1","1","1","103","2","right","3","in","Female","Right-handed","0","no","right","d","856.162817287","768.121928868","4","red","0"
"100","75","21","817.211470344","1","1","1","104","0","right","0","out","Female","Right-handed","0","no","right","d","652.769176148","752.858369397","4","red","1"
"100","76","21","815.112064129","1","1","1","105","2","right","0","in","Female","Right-handed","0","no","right","d","681.323203171","600.399493385","4","red","1"
"100","75","21","814.580121891","1","0","1","106","3","left","2","in","Female","Right-handed","0","no","left","s","915.825114524","623.968833359","4","red","0"
"100","74","21","814.608710017","1","0","1","107","1","right","0","out","Female","Right-handed","0","no","right","d","825.552630911","808.524770611","4","green","3"
"100","73","21","812.563538536","1","0","1","108","2","left","3","out","Female","Right-handed","0","no","left","d","769.185769234","504.171812947","4","green","0"
"100","73","21","812.729567068","1","1","1","109","2","right","3","in","Female","Right-handed","0","no","right","s","829.590541733","824.757556969","4","green","1"
"100","74","21","810.658100039","1","1","1","110","0","right","2","in","Female","Right-handed","0","no","right","s","624.32002576","632.417977333","4","red","0"
"100","74","21","809.522468848","1","1","1","111","2","left","1","out","Female","Right-handed","0","no","left","s","576.916428076","839.986157567","4","red","0"
"100","73","21","808.149441109","1","0","1","112","3","left","0","out","Female","Right-handed","0","no","left","d","584.579157643","784.574731657","4","red","2"
"100","73","21","807.894315057","1","1","1","113","0","right","0","in","Female","Right-handed","0","no","right","s","601.158004832","968.197683797","4","green","2"
"100","73","21","805.580418823","1","0","1","114","2","left","0","out","Female","Right-handed","0","no","left","d","680.702602898","504.7013277","4","green","3"
"100","73","21","807.455264697","1","1","1","115","3","right","0","out","Female","Right-handed","0","no","right","s","1163.45456581","800.177296038","4","green","1"
"100","72","21","807.075658423","1","0","1","116","1","right","1","out","Female","Right-handed","0","no","right","d","782.912420953","759.87291646","4","green","0"
"100","72","21","808.334310872","1","1","1","117","3","right","0","in","Female","Right-handed","0","no","right","d","991.408454724","864.404132331","4","red","1"
"100","100","21","671.862977873","1","1","2","118","2","left","1","out","Female","Right-handed","0","no","left","s","734.370895738","609.355060009","4","red","0"
"100","100","21","614.199991725","1","1","2","119","2","right","0","in","Female","Right-handed","0","no","right","s","599.937009872","513.137001279","4","red","2"
"100","100","21","701.835832893","1","1","2","120","1","left","2","out","Female","Right-handed","0","no","left","s","1104.65597738","649.559053083","4","green","0"
"100","100","21","684.415861196","1","1","2","121","2","right","3","in","Female","Right-handed","0","no","right","s","607.184081589","657.12781062","4","red","0"
"100","100","21","671.801014064","1","1","2","122","3","left","1","in","Female","Right-handed","0","no","left","d","593.829469308","648.853781764","4","green","0"
"100","100","21","672.310387373","1","1","2","123","1","right","0","out","Female","Right-handed","0","no","right","d","564.252654549","785.461853287","4","green","3"
"100","100","21","687.199043803","1","1","2","124","1","left","1","in","Female","Right-handed","0","no","left","s","816.059852168","737.002112604","4","red","0"
"100","100","21","687.2573926","1","1","2","125","2","right","0","in","Female","Right-handed","0","no","right","d","678.642274135","696.689394212","4","green","3"
"100","100","21","679.57948211","1","1","2","126","0","left","0","in","Female","Right-handed","0","no","left","d","603.111532615","633.200863773","4","red","2"
"100","100","21","673.800902452","1","1","2","127","3","right","1","out","Female","Right-handed","0","no","right","d","610.889401975","632.697969082","4","red","0"
"100","100","21","667.27066706","1","1","2","128","2","left","0","in","Female","Right-handed","0","no","left","s","571.409923639","632.526702648","4","green","2"
"100","100","21","661.836755508","1","1","2","129","3","left","1","in","Female","Right-handed","0","no","left","s","563.163477018","640.963979847","4","red","3"
"100","100","21","655.174011456","1","1","2","130","1","left","0","in","Female","Right-handed","0","no","left","d","541.793980592","608.648185072","4","red","2"
"100","100","21","660.759880018","1","1","2","131","3","left","0","out","Female","Right-handed","0","no","left","s","577.490202693","889.26213995","4","green","1"
"100","93","21","651.541061127","1","0","2","132","0","left","3","in","Female","Right-handed","0","no","left","d","475.927284249","569.027909052","4","green","2"
"100","93","21","650.609974297","1","1","2","133","1","left","1","in","Female","Right-handed","0","no","left","d","592.653375665","680.633968033","4","red","3"
"100","94","21","650.027262454","1","1","2","134","2","left","3","in","Female","Right-handed","0","no","left","d","664.230556689","617.177189237","4","green","2"
"100","94","21","662.037421608","1","1","2","135","3","right","0","in","Female","Right-handed","0","no","right","s","635.731052687","1096.68920178","4","green","2"
"100","94","21","656.711975522","1","1","2","136","1","right","0","out","Female","Right-handed","0","no","right","d","617.178151409","504.529740545","4","green","3"
"100","90","21","661.419854847","1","0","2","137","0","left","0","in","Female","Right-handed","0","no","left","s","708.944886526","792.794237495","4","red","3"
"100","85","21","655.690197382","1","0","2","138","1","right","0","out","Female","Right-handed","0","no","right","s","537.506867495","544.687228689","4","red","2"
"100","86","21","655.646271431","1","1","2","139","1","right","3","out","Female","Right-handed","0","no","right","s","604.177297319","705.270355611","4","green","1"
"100","86","21","659.936624727","1","1","2","140","0","left","3","out","Female","Right-handed","0","no","left","s","619.803915972","888.844878478","4","green","1"
"100","87","21","658.204112436","1","1","2","141","1","left","0","out","Female","Right-handed","0","no","left","s","532.340971578","704.371687927","4","red","2"
"100","88","21","658.576840096","1","1","2","142","2","left","2","in","Female","Right-handed","0","no","left","d","614.100807936","720.943799915","4","red","3"
"100","88","21","657.039710301","1","1","2","143","0","left","0","out","Female","Right-handed","0","no","left","s","588.56928064","648.653650205","4","green","3"
"100","88","21","662.641074012","1","1","2","144","1","left","3","out","Female","Right-handed","0","no","left","d","784.309172472","832.24388853","4","red","0"
"100","85","21","667.363832076","1","0","2","145","2","left","3","out","Female","Right-handed","0","no","left","s","596.824066077","992.932533536","4","red","0"
"100","86","21","662.969111846","1","1","2","146","3","left","2","in","Female","Right-handed","0","no","left","s","567.432308868","512.401581935","4","green","0"
"100","83","21","668.253334697","1","0","2","147","3","right","3","in","Female","Right-handed","0","no","right","d","842.068616257","800.922978539","4","green","0"
"100","83","21","670.832968683","1","1","2","148","0","right","1","out","Female","Right-handed","0","no","right","s","647.742795023","848.701181451","4","red","0"
"100","81","21","672.158680073","1","0","2","149","3","left","0","in","Female","Right-handed","0","no","left","s","690.260488543","736.250977807","4","green","3"
"100","81","21","682.011393523","1","1","2","150","2","left","2","out","Female","Right-handed","0","no","left","s","801.751728461","1192.8447194","4","red","1"
"100","82","21","680.995395295","1","1","2","151","3","left","0","out","Female","Right-handed","0","no","left","s","590.438458104","704.496449431","4","red","2"
"100","80","21","686.623748038","1","0","2","152","0","right","3","out","Female","Right-handed","0","no","right","d","635.0071794","1120.9683032","4","red","0"
"100","80","21","690.816057643","1","1","2","153","3","right","0","out","Female","Right-handed","0","no","right","d","794.586120555","880.507667058","4","green","1"
"100","81","21","692.297304795","1","1","2","154","1","left","3","in","Female","Right-handed","0","no","left","d","786.08501935","705.159385223","4","red","0"
"100","78","21","693.441396217","1","0","2","155","2","left","3","out","Female","Right-handed","0","no","left","s","638.697425777","832.848131897","4","red","1"
"100","76","21","696.272934548","1","0","2","156","3","right","2","out","Female","Right-handed","0","no","right","d","751.269504406","856.473277785","4","red","0"
"100","77","21","693.887215602","1","1","2","157","2","right","0","in","Female","Right-handed","0","no","right","s","624.822279006","576.866074461","4","green","2"
"100","78","21","693.902638108","1","1","2","158","1","right","1","out","Female","Right-handed","0","no","right","d","676.530308869","712.508767785","4","red","0"
"100","78","21","693.70356771","1","1","2","159","0","left","0","in","Female","Right-handed","0","no","left","s","715.00560144","656.077761374","4","red","1"
"100","76","21","694.497628424","1","0","2","160","3","left","0","out","Female","Right-handed","0","no","left","s","646.792490832","808.903865971","4","red","2"
"100","77","21","696.492972843","1","1","2","161","3","right","1","in","Female","Right-handed","0","no","right","d","732.261816986","832.32374872","4","red","2"
"100","77","21","705.624324053","1","1","2","162","0","left","0","out","Female","Right-handed","0","no","left","s","869.909353874","1344.89820071","4","green","1"
"100","78","21","710.314871564","1","1","2","163","0","left","0","out","Female","Right-handed","0","no","left","d","650.50133918","1192.27767998","4","green","3"
"100","76","21","713.298242708","1","0","2","164","1","left","0","in","Female","Right-handed","0","no","left","s","733.019045532","968.047585127","4","green","3"
"100","77","21","718.386940822","1","1","2","165","1","right","2","in","Female","Right-handed","0","no","right","d","810.59375891","1104.51774548","4","red","1"
"100","77","21","718.239981685","1","1","2","166","1","right","0","in","Female","Right-handed","0","no","right","s","590.18733148","832.184554656","4","green","1"
"100","78","21","717.900260716","1","1","2","167","2","right","1","out","Female","Right-handed","0","no","right","s","593.643770309","808.864096238","4","red","0"
"100","78","21","718.420308463","1","1","2","168","2","right","0","out","Female","Right-handed","0","no","right","s","736.434431736","752.410959896","4","green","1"
"100","78","21","720.527096622","1","1","2","169","1","right","0","out","Female","Right-handed","0","no","right","d","582.985802528","1072.96078287","4","green","1"
"100","79","21","720.45367063","1","1","2","170","2","right","0","in","Female","Right-handed","0","no","right","d","608.635035402","824.636002704","4","green","3"
"100","79","21","719.671536689","1","1","2","171","3","left","3","out","Female","Right-handed","0","no","left","d","644.191101266","712.245774386","4","red","2"
"100","80","21","721.161594602","1","1","2","172","2","right","0","out","Female","Right-handed","0","no","right","s","610.745717779","992.503726004","4","red","1"
"100","80","21","722.3531112","1","1","2","173","0","right","2","out","Female","Right-handed","0","no","right","d","647.317836181","928.455212066","4","green","1"
"100","78","21","722.846990965","1","0","2","174","0","right","2","out","Female","Right-handed","0","no","right","d","604.999632771","896.008882763","4","green","0"
"100","77","21","734.530090797","1","0","2","175","2","left","1","in","Female","Right-handed","0","no","left","s","1016.65421724","1784.27934517","4","green","2"
"100","77","21","735.877573932","1","1","2","176","3","right","2","in","Female","Right-handed","0","no","right","s","780.027832399","848.03535914","4","red","3"
"100","78","21","737.15645552","1","1","2","177","2","left","2","out","Female","Right-handed","0","no","left","s","664.634027049","960.58691146","4","green","0"
"100","78","21","735.181706171","1","1","2","178","2","right","1","in","Female","Right-handed","0","no","right","d","489.197546209","744.195944193","4","red","3"
"100","79","21","735.652641963","1","1","2","179","0","left","1","out","Female","Right-handed","0","no","left","d","728.860221898","799.89922863","4","green","0"
"100","79","21","736.902861363","1","1","2","180","1","left","1","in","Female","Right-handed","0","no","left","s","588.463441833","1040.36948648","4","red","2"
"100","79","21","737.084187795","1","1","2","181","2","left","0","out","Female","Right-handed","0","no","left","s","665.029800039","831.985705987","4","red","2"
"100","78","21","737.869820588","1","0","2","182","2","right","0","in","Female","Right-handed","0","no","right","d","511.62703431","1064.67360435","4","red","3"
"100","78","21","737.102511259","1","1","2","183","0","right","2","in","Female","Right-handed","0","no","right","d","686.288967521","688.165842352","4","green","3"
"100","79","21","732.471771304","1","1","2","184","0","right","0","in","Female","Right-handed","0","no","right","s","493.908976703","359.776891797","4","red","2"
"100","77","21","730.420099125","1","0","2","185","3","right","0","in","Female","Right-handed","0","no","right","s","537.350354352","648.56577192","4","green","3"
"100","78","21","731.103737318","1","1","2","186","0","right","3","in","Female","Right-handed","0","no","right","s","947.080917616","608.101351241","4","green","0"
"100","78","21","729.382181318","1","1","2","187","1","right","0","out","Female","Right-handed","0","no","right","s","677.631994622","543.557639972","4","red","1"
"100","78","21","727.619084592","1","1","2","188","0","right","1","out","Female","Right-handed","0","no","right","d","536.229104451","672.175523076","4","green","3"
"100","79","21","732.136761484","1","1","2","189","1","left","2","in","Female","Right-handed","0","no","left","s","1017.95763818","1087.82600357","4","green","0"
"100","79","21","732.48989324","1","1","2","190","1","right","3","in","Female","Right-handed","0","no","right","s","739.410426533","776.420332724","4","green","2"
"100","78","21","736.631999676","1","0","2","191","3","right","0","in","Female","Right-handed","0","no","right","s","621.98323321","1456.02830579","4","red","2"
"100","78","21","735.997997402","1","1","2","192","1","left","0","out","Female","Right-handed","0","no","left","d","658.536749641","719.626908584","4","green","3"
"100","78","21","735.684609372","1","1","2","193","3","left","3","in","Female","Right-handed","0","no","left","d","752.233599717","672.127414528","4","red","0"
"100","79","21","737.561977399","1","1","2","194","0","right","0","out","Female","Right-handed","0","no","right","s","656.713435659","1103.77045937","4","red","2"
"100","78","21","737.322246213","1","0","2","195","0","right","0","in","Female","Right-handed","0","no","right","d","525.440922862","912.284966816","4","red","3"
"100","78","21","735.773402015","1","1","2","196","0","left","1","in","Female","Right-handed","0","no","left","s","613.98534742","615.941761716","4","green","2"
"100","78","21","735.133845198","1","1","2","197","1","left","2","out","Female","Right-handed","0","no","left","s","553.667811757","815.549901552","4","red","3"
"100","79","21","733.158081217","1","1","2","198","3","right","0","out","Female","Right-handed","0","no","right","s","526.136572469","624.057353089","4","green","3"
"100","79","21","731.958248132","1","1","2","199","3","left","0","in","Female","Right-handed","0","no","left","s","653.755401385","615.788135085","4","green","3"
"100","79","21","732.410126557","1","1","2","200","3","right","0","in","Female","Right-handed","0","no","right","d","818.376118405","720.55219633","4","green","1"
"100","79","21","732.006347228","1","1","2","201","3","left","3","out","Female","Right-handed","0","no","left","d","588.983655602","808.001670328","4","green","1"
"100","80","21","732.277634319","1","1","2","202","2","left","2","out","Female","Right-handed","0","no","left","d","726.535937567","783.595562341","4","green","0"
"100","80","21","736.718779363","1","1","2","203","0","right","2","out","Female","Right-handed","0","no","right","d","580.250671195","1648.18154498","4","green","0"
"100","80","21","738.201504796","1","1","2","204","2","left","0","in","Female","Right-handed","0","no","left","d","707.733834006","1023.69795016","4","green","1"
"100","80","21","737.935607962","1","1","2","205","0","right","0","in","Female","Right-handed","0","no","right","d","718.340165284","711.265001446","4","red","1"
"100","80","21","737.446549106","1","1","2","206","2","right","0","out","Female","Right-handed","0","no","right","d","620.943767841","767.874971658","4","red","1"
"100","81","21","737.664437245","1","1","2","207","3","right","0","in","Female","Right-handed","0","no","right","d","626.561563385","887.551399974","4","green","1"
"100","81","21","739.404228813","1","1","2","208","3","left","2","in","Female","Right-handed","0","no","left","s","711.939804019","1080.03113585","4","red","1"
"100","80","21","739.97354755","1","0","2","209","2","right","0","in","Female","Right-handed","0","no","right","s","807.816933502","775.746171599","4","red","3"
"100","80","21","739.627599556","1","1","2","210","1","left","0","out","Female","Right-handed","0","no","left","s","551.35795999","864.242808333","4","green","2"
"100","80","21","738.646094296","1","1","2","211","0","right","0","out","Female","Right-handed","0","no","right","d","654.848748327","639.883461852","4","red","1"
"100","81","21","737.107948037","1","1","2","212","0","right","0","out","Female","Right-handed","0","no","right","d","537.534770454","647.509628929","4","green","2"
"100","81","21","737.3063808","1","1","2","213","1","left","0","out","Female","Right-handed","0","no","left","s","736.095747558","776.219238993","4","red","1"
"100","100","21","554.051878333","1","1","3","214","3","left","0","in","Female","Right-handed","0","no","left","d","539.033512094","569.070244572","4","green","2"
"100","100","21","590.398768549","1","1","3","215","3","left","0","in","Female","Right-handed","0","no","left","d","636.849416074","616.641901455","4","red","1"
"100","100","21","577.561937884","1","1","3","216","2","left","2","in","Female","Right-handed","0","no","left","d","519.408431632","584.368121479","4","green","0"
"100","100","21","570.772485374","1","1","3","217","2","left","1","out","Female","Right-handed","0","no","left","s","499.889831426","600.918424261","4","red","2"
"100","100","21","582.749140541","1","1","3","218","1","left","0","out","Female","Right-handed","0","no","left","s","516.641227932","744.67029448","4","green","2"
"100","100","21","576.176251332","1","1","3","219","0","right","0","out","Female","Right-handed","0","no","right","d","510.233169305","576.390441278","4","red","3"
"100","100","21","571.221086132","1","1","3","220","3","right","0","in","Female","Right-handed","0","no","right","s","505.981335805","576.998854056","4","green","3"
"100","100","21","563.194607256","1","1","3","221","1","right","0","in","Female","Right-handed","0","no","right","d","461.472910556","552.545599687","4","red","3"
"100","100","21","558.584113395","1","1","3","222","2","right","1","in","Female","Right-handed","0","no","right","d","459.182302213","584.218022807","4","green","3"
"100","90","21","592.554993683","1","0","3","223","0","right","3","in","Female","Right-handed","0","no","right","s","779.824172878","1016.76165967","4","red","0"
"100","90","21","604.716098481","1","1","3","224","2","left","0","out","Female","Right-handed","0","no","left","d","668.276164877","784.378128057","4","red","1"
"100","91","21","600.606654139","1","1","3","225","2","right","0","out","Female","Right-handed","0","no","right","s","581.956600316","528.848932423","4","red","3"
"100","84","21","597.917413017","1","0","3","226","1","left","0","in","Female","Right-handed","0","no","left","s","634.676834034","496.616205077","4","red","2"
"100","85","21","598.722509573","1","1","3","227","2","left","0","out","Female","Right-handed","0","no","left","d","626.160979544","592.216550049","4","green","2"
"100","86","21","595.592572767","1","1","3","228","1","right","3","out","Female","Right-handed","0","no","right","d","606.781894123","496.765020853","4","green","0"
"100","87","21","605.70720929","1","1","3","229","1","left","2","in","Female","Right-handed","0","no","left","s","570.361798735","944.491715545","4","green","3"
"100","88","21","605.343174971","1","1","3","230","3","left","0","out","Female","Right-handed","0","no","left","s","486.992250357","712.045001379","4","red","3"
"100","88","21","606.637675386","1","1","3","231","3","right","0","out","Female","Right-handed","0","no","right","s","624.599376064","632.688988819","4","green","1"
"100","84","21","620.063828734","1","0","3","232","3","right","2","in","Female","Right-handed","0","no","right","d","667.238944574","1056.2302334","4","green","0"
"100","85","21","623.40425549","1","1","3","233","2","left","3","in","Female","Right-handed","0","no","left","d","580.906871793","792.837855912","4","green","1"
"100","85","21","627.478695587","1","1","3","234","0","right","3","out","Female","Right-handed","0","no","right","s","593.41894303","824.516052056","4","green","1"
"100","86","21","635.390320251","1","1","3","235","3","left","1","in","Female","Right-handed","0","no","left","s","595.053992223","1008.01488414","4","red","3"
"100","86","21","629.315610442","1","1","3","236","3","right","0","in","Female","Right-handed","0","no","right","s","486.658697751","504.685291518","4","green","3"
"100","83","21","628.915688379","1","0","3","237","3","left","0","out","Female","Right-handed","0","no","left","d","479.32727572","760.107686176","4","green","1"
"100","84","21","640.873381829","1","1","3","238","1","left","3","in","Female","Right-handed","0","no","left","d","631.868577708","1223.84747153","4","red","2"
"100","84","21","639.98681505","1","1","3","239","2","left","2","out","Female","Right-handed","0","no","left","d","595.277857337","640.367433847","4","green","3"
"100","85","21","642.194845964","1","1","3","240","2","right","0","out","Female","Right-handed","0","no","right","s","654.985697329","744.221602083","4","green","2"
"100","85","21","640.481084566","1","1","3","241","1","right","0","out","Female","Right-handed","0","no","right","s","571.674520656","616.744533025","4","green","3"
"100","86","21","643.147339308","1","1","3","242","3","left","1","in","Female","Right-handed","0","no","left","s","795.309673122","640.295271027","4","green","0"
"100","86","21","644.752356971","1","1","3","243","0","right","0","out","Female","Right-handed","0","no","right","s","814.92577332","567.669965097","4","green","1"
"100","87","21","643.502233411","1","1","3","244","0","left","1","in","Female","Right-handed","0","no","left","d","523.48130133","688.515751859","4","green","0"
"100","87","21","642.208267358","1","1","3","245","2","left","0","out","Female","Right-handed","0","no","left","d","644.134012455","560.056626968","4","red","1"
"100","87","21","643.177361824","1","1","3","246","3","left","0","out","Female","Right-handed","0","no","left","d","667.69116493","680.685604544","4","green","2"
"100","85","21","643.740008161","1","0","3","247","2","right","1","out","Female","Right-handed","0","no","right","s","532.264960075","792.349714509","4","green","0"
"100","85","21","644.773627059","1","1","3","248","1","left","0","in","Female","Right-handed","0","no","left","d","727.836151262","631.997187895","4","red","1"
"100","86","21","651.40533444","1","1","3","249","3","right","0","in","Female","Right-handed","0","no","right","s","654.540853619","1112.48933193","4","red","1"
"100","86","21","654.139485301","1","1","3","250","3","left","2","out","Female","Right-handed","0","no","left","s","841.030113068","664.107719531","4","green","0"
"100","86","21","649.417407168","1","1","3","251","1","left","0","out","Female","Right-handed","0","no","left","s","500.743277072","448.657755467","4","red","1"
"100","84","21","644.157692552","1","0","3","252","3","left","1","out","Female","Right-handed","0","no","left","s","472.322671089","416.254403135","4","red","2"
"100","82","21","643.901840601","1","0","3","253","3","left","2","out","Female","Right-handed","0","no","left","s","483.920679912","783.926549153","4","green","1"
"100","80","21","654.095884749","1","0","3","254","0","right","0","out","Female","Right-handed","0","no","right","d","667.42111561","1456.2941857","4","green","1"
"100","80","21","653.679435699","1","1","3","255","3","right","2","out","Female","Right-handed","0","no","right","s","672.998820701","600.2112286","4","red","3"
"100","81","21","652.003146344","1","1","3","256","1","left","0","out","Female","Right-handed","0","no","left","s","587.598770857","575.599216023","4","red","1"
"100","81","21","652.112177384","1","1","3","257","2","right","2","in","Female","Right-handed","0","no","right","d","585.405341782","728.195682481","4","green","0"
"100","82","21","651.285230558","1","1","3","258","3","left","3","out","Female","Right-handed","0","no","left","d","629.952895317","599.846245081","4","green","0"
"100","82","21","648.406299057","1","1","3","259","3","left","3","out","Female","Right-handed","0","no","left","s","613.367954382","424.340808655","4","green","1"
"100","80","21","647.028874403","1","0","3","260","1","left","0","out","Female","Right-handed","0","no","left","d","575.139619024","592.195061559","4","red","2"
"100","81","21","650.333700936","1","1","3","261","0","left","1","in","Female","Right-handed","0","no","left","d","611.611671648","999.709424366","4","red","2"
"100","81","21","651.681883684","1","1","3","262","3","right","3","in","Female","Right-handed","0","no","right","s","744.459258312","688.330052864","4","green","0"
"100","82","21","650.537279474","1","1","3","263","1","right","3","in","Female","Right-handed","0","no","right","d","597.005595668","591.897750735","4","red","0"
"100","80","21","652.851205939","1","0","3","264","1","right","0","in","Female","Right-handed","0","no","right","d","681.469132436","855.625925887","4","red","1"
"100","80","21","651.453851431","1","1","3","265","1","right","1","out","Female","Right-handed","0","no","right","s","562.081355402","598.296187654","4","red","0"
"100","79","21","651.947811944","1","0","3","266","0","left","0","out","Female","Right-handed","0","no","left","s","723.514079287","631.753437916","4","red","3"
"100","79","21","650.213534246","1","1","3","267","0","left","0","in","Female","Right-handed","0","no","left","s","501.367405304","615.226227241","4","green","3"
"100","78","21","649.890605535","1","0","3","268","0","right","3","out","Female","Right-handed","0","no","right","s","672.979898001","591.925012242","4","red","2"
"100","78","21","650.690016326","1","1","3","269","0","right","0","in","Female","Right-handed","0","no","right","s","533.709178697","855.606041023","4","green","2"
"100","78","21","653.732157362","1","1","3","270","2","left","1","out","Female","Right-handed","0","no","left","s","872.112083936","776.072026838","4","green","0"
"100","79","21","651.800159391","1","1","3","271","0","right","1","in","Female","Right-handed","0","no","right","s","611.721038415","471.631511613","4","red","0"
"100","79","21","651.954293444","1","1","3","272","2","left","0","in","Female","Right-handed","0","no","left","d","610.356679983","711.431457024","4","red","2"
"100","80","21","650.1797763","1","1","3","273","2","right","0","in","Female","Right-handed","0","no","right","s","586.926854798","504.039674801","4","red","3"
"100","80","21","649.180543963","1","1","3","274","1","right","0","in","Female","Right-handed","0","no","right","s","634.735847187","543.717360357","4","red","2"
"100","79","21","649.907671936","1","0","3","275","1","right","1","in","Female","Right-handed","0","no","right","d","452.295403163","936.229553466","4","green","3"
"100","79","21","652.169456003","1","1","3","276","0","right","2","out","Female","Right-handed","0","no","right","d","856.935440574","727.864695669","4","red","3"
"100","79","21","652.337046124","1","1","3","277","1","left","0","in","Female","Right-handed","0","no","left","d","646.415961263","679.374486241","4","green","3"
"100","80","21","652.594016624","1","1","3","278","0","left","0","in","Female","Right-handed","0","no","left","d","714.078389352","624.001867895","4","red","2"
"100","80","21","654.678390613","1","1","3","279","0","left","0","in","Female","Right-handed","0","no","left","s","692.561039327","887.764360483","4","red","1"
"100","80","21","656.344431127","1","1","3","280","1","left","2","in","Female","Right-handed","0","no","left","d","605.282511035","927.323699008","4","green","0"
"100","79","21","656.917274408","1","0","3","281","2","left","2","in","Female","Right-handed","0","no","left","s","574.762768727","815.832779819","4","green","1"
"100","79","21","656.663470167","1","1","3","282","3","right","0","out","Female","Right-handed","0","no","right","d","655.363830516","623.445733079","4","red","2"
"100","80","21","655.483226771","1","1","3","283","0","right","0","in","Female","Right-handed","0","no","right","d","508.045192528","640.047672365","4","red","3"
"100","80","21","656.761288984","1","1","3","284","1","left","0","out","Female","Right-handed","0","no","left","s","572.730984375","919.720303314","4","green","3"
"100","79","21","656.524609607","1","0","3","285","0","left","0","out","Female","Right-handed","0","no","left","s","568.242456818","711.19829093","4","red","2"
"100","79","21","656.344249781","1","1","3","286","0","left","0","in","Female","Right-handed","0","no","left","s","654.790055902","631.926628692","4","red","1"
"100","79","21","657.933982035","1","1","3","287","2","right","0","in","Female","Right-handed","0","no","right","d","804.557418993","743.411454132","4","red","1"
"100","80","21","658.396616921","1","1","3","288","2","left","0","in","Female","Right-handed","0","no","left","s","545.170559235","840.09263782","4","green","1"
"100","80","21","659.478698134","1","1","3","289","2","right","3","out","Female","Right-handed","0","no","right","d","833.658921296","647.610656877","4","red","2"
"100","80","21","661.442441394","1","1","3","290","2","left","3","in","Female","Right-handed","0","no","left","s","838.085549185","783.288309078","4","red","0"
"100","80","21","659.659751182","1","1","3","291","2","right","0","out","Female","Right-handed","0","no","right","d","452.879440938","591.905768822","4","red","3"
"100","79","21","663.157125064","1","0","3","292","0","right","2","out","Female","Right-handed","0","no","right","s","656.524208702","1215.38036703","4","red","1"
"100","80","21","663.280428897","1","1","3","293","3","right","0","out","Female","Right-handed","0","no","right","s","642.031027448","704.011835983","4","green","2"
"100","79","21","661.773603635","1","0","3","294","1","right","2","in","Female","Right-handed","0","no","right","s","514.774295538","567.680869699","4","red","0"
"100","79","21","663.321453755","1","1","3","295","1","left","2","out","Female","Right-handed","0","no","left","d","730.270123084","847.124503962","4","red","1"
"100","79","21","661.833462294","1","1","3","296","0","right","2","out","Female","Right-handed","0","no","right","s","535.778166995","543.858158038","4","red","0"
"100","79","21","661.935727392","1","1","3","297","1","right","1","out","Female","Right-handed","0","no","right","d","629.364688135","711.482772811","4","red","2"
"100","80","21","660.983989985","1","1","3","298","1","right","1","in","Female","Right-handed","0","no","right","s","531.030494727","631.045600811","4","green","0"
"100","80","21","661.206798309","1","1","3","299","0","right","0","out","Female","Right-handed","0","no","right","s","512.786450323","847.50456149","4","green","2"
"100","80","21","664.058744659","1","1","3","300","2","right","0","out","Female","Right-handed","0","no","right","d","795.27182773","1023.38043374","4","green","2"
"100","80","21","663.414520906","1","1","3","301","3","right","0","in","Female","Right-handed","0","no","right","s","694.825027607","519.909081256","4","green","3"
"100","80","21","662.8309601","1","1","3","302","0","left","1","out","Female","Right-handed","0","no","left","d","623.366193613","599.589024707","4","green","3"
"100","81","21","665.265986284","1","1","3","303","0","right","3","in","Female","Right-handed","0","no","right","d","805.11644033","958.850192866","4","green","0"
"100","81","21","664.649700214","1","1","3","304","0","left","2","in","Female","Right-handed","0","no","left","s","618.732378239","599.635529638","4","red","0"
"100","81","21","665.536532955","1","1","3","305","3","right","3","in","Female","Right-handed","0","no","right","s","749.217835186","743.258789669","4","red","2"
"100","80","21","668.755463963","1","0","3","306","1","right","3","out","Female","Right-handed","0","no","right","s","1065.93917989","863.855053434","4","green","1"
"100","79","21","670.747079625","1","0","3","307","2","left","0","in","Female","Right-handed","0","no","left","s","776.499551466","935.43512097","4","green","3"
"100","80","21","669.645583987","1","1","3","308","3","left","1","out","Female","Right-handed","0","no","left","s","573.134454735","559.075533307","4","red","0"
"100","80","21","669.243971892","1","1","3","309","2","right","3","in","Female","Right-handed","0","no","right","s","734.575838157","527.605807536","4","green","0"
"100","100","21","609.383764775","1","1","4","310","2","left","2","out","Female","Right-handed","0","no","left","s","610.341926694","608.425602856","4","green","0"
"100","50","21","613.961694048","1","0","4","311","2","left","2","out","Female","Right-handed","0","no","left","d","580.972299417","656.106947226","4","green","1"
"100","66","21","650.012663238","1","1","4","312","0","right","0","out","Female","Right-handed","0","no","right","d","547.654563943","896.57463929","4","green","2"
"100","75","21","649.817917162","1","1","4","313","1","left","1","in","Female","Right-handed","0","no","left","s","770.251213217","528.216144652","4","green","0"
"100","60","21","646.424428365","1","0","4","314","0","right","0","in","Female","Right-handed","0","no","right","d","601.820299176","663.880647182","4","green","3"
"100","66","21","781.010529677","1","1","4","315","0","right","3","in","Female","Right-handed","0","no","right","s","923.538839153","1984.34323332","4","green","0"
"100","71","21","754.640332933","1","1","4","316","2","right","0","out","Female","Right-handed","0","no","right","s","544.842138214","647.996166714","4","green","2"
"100","75","21","737.199558106","1","1","4","317","0","left","0","out","Female","Right-handed","0","no","left","s","694.495323689","535.732944958","4","red","1"
"100","77","21","737.133217309","1","1","4","318","1","right","0","in","Female","Right-handed","0","no","right","s","761.088459112","712.116522751","4","green","1"
"100","80","21","719.097730591","1","1","4","319","1","right","1","in","Female","Right-handed","0","no","right","d","529.718414251","583.838286002","4","green","2"
"100","72","21","712.303679583","1","0","4","320","2","left","0","out","Female","Right-handed","0","no","left","s","568.360803849","720.365535166","4","red","1"
"100","75","21","704.485063739","1","1","4","321","1","left","0","in","Female","Right-handed","0","no","left","s","572.992053432","663.968525463","4","green","2"
"100","76","21","686.072269352","1","1","4","322","1","left","3","in","Female","Right-handed","0","no","left","s","506.629839038","423.607634377","4","red","2"
"100","78","21","681.693467175","1","1","4","323","1","left","0","out","Female","Right-handed","0","no","left","d","617.208940879","632.329136879","4","red","3"
"100","73","21","674.030706296","1","0","4","324","1","right","3","out","Female","Right-handed","0","no","right","s","629.670017053","503.834090934","4","red","0"
"100","75","21","667.930284459","1","1","4","325","3","right","0","out","Female","Right-handed","0","no","right","s","584.447660946","568.400252858","4","red","2"
"100","76","21","670.731370488","1","1","4","326","2","left","0","out","Female","Right-handed","0","no","left","d","470.983008381","960.114485515","4","green","3"
"100","77","21","669.391989199","1","1","4","327","3","left","2","in","Female","Right-handed","0","no","left","s","669.629939424","623.615075165","4","green","1"
"100","73","21","676.80530408","1","0","4","328","2","right","0","out","Female","Right-handed","0","no","right","d","644.260377576","976.229566295","4","green","1"
"100","75","21","669.778851418","1","1","4","329","0","left","3","in","Female","Right-handed","0","no","left","s","584.880317154","487.672184503","4","green","2"
"100","76","21","669.193571983","1","1","4","330","0","right","3","in","Female","Right-handed","0","no","right","s","691.442034491","623.533932081","4","red","0"
"100","77","21","663.166293553","1","1","4","331","0","right","0","in","Female","Right-handed","0","no","right","s","553.014497673","520.17239538","4","red","2"
"100","78","21","660.104000641","1","1","4","332","0","left","0","out","Female","Right-handed","0","no","left","d","577.696107281","607.771005874","4","red","3"
"100","79","21","661.531794084","1","1","4","333","3","right","2","out","Female","Right-handed","0","no","right","d","525.31199195","863.430094592","4","green","3"
"100","80","21","659.89037024","1","1","4","334","2","left","3","out","Female","Right-handed","0","no","left","s","568.989422216","672.002973752","4","red","2"
"100","80","21","659.971667272","1","1","4","335","0","right","0","out","Female","Right-handed","0","no","right","d","668.425942822","655.582243329","4","green","1"
"100","81","21","655.421341021","1","1","4","336","2","right","0","out","Female","Right-handed","0","no","right","s","578.13549869","496.090218283","4","green","3"
"100","82","21","654.02338891","1","1","4","337","3","left","0","in","Female","Right-handed","0","no","left","s","648.803107426","583.754256404","4","red","1"
"100","82","21","653.22770591","1","1","4","338","1","left","0","in","Female","Right-handed","0","no","left","s","710.383652844","551.513510967","4","red","2"
"100","83","21","649.234266928","1","1","4","339","0","left","3","in","Female","Right-handed","0","no","left","d","538.868980861","527.98009204","4","green","1"
"100","83","21","648.049991382","1","1","4","340","2","right","1","out","Female","Right-handed","0","no","right","d","705.449960857","519.593489182","4","red","2"
"100","84","21","646.821035238","1","1","4","341","0","right","0","out","Female","Right-handed","0","no","right","d","689.252133375","528.194656166","4","red","3"
"100","84","21","645.035775606","1","1","4","342","0","left","1","in","Female","Right-handed","0","no","left","d","655.885006458","519.929928298","4","green","0"
"100","85","21","643.725967068","1","1","4","343","0","right","1","in","Female","Right-handed","0","no","right","s","569.487826775","631.516743859","4","red","3"
"100","85","21","643.721969612","1","1","4","344","1","right","2","out","Female","Right-handed","0","no","right","s","751.149233038","536.022879143","4","green","3"
"100","86","21","646.62128231","1","1","4","345","0","left","1","out","Female","Right-handed","0","no","left","d","848.562308107","647.632145363","4","green","2"
"100","86","21","645.843530215","1","1","4","346","3","right","0","in","Female","Right-handed","0","no","right","s","556.367663485","679.321246116","4","green","2"
"100","86","21","646.922725737","1","1","4","347","1","left","0","out","Female","Right-handed","0","no","left","d","645.91370802","727.792212125","4","red","3"
"100","87","21","643.347038842","1","1","4","348","1","right","1","in","Female","Right-handed","0","no","right","s","559.486701033","455.455172614","4","red","3"
"100","87","21","643.903881205","1","1","4","349","2","left","3","in","Female","Right-handed","0","no","left","d","588.12187114","743.119595605","4","red","1"
"100","87","21","642.241965831","1","1","4","350","3","right","2","in","Female","Right-handed","0","no","right","s","567.775803902","583.754897853","4","red","0"
"100","88","21","642.016736155","1","1","4","351","3","left","1","out","Female","Right-handed","0","no","left","s","754.315416962","511.249221843","4","green","0"
"100","88","21","643.80617321","1","1","4","352","3","left","1","out","Female","Right-handed","0","no","left","d","525.903727099","912.021331973","4","red","2"
"100","88","21","646.59493964","1","1","4","353","2","right","0","in","Female","Right-handed","0","no","right","s","853.544108646","679.4796836","4","red","2"
"100","88","21","643.754742478","1","1","4","354","3","right","0","in","Female","Right-handed","0","no","right","s","542.378339094","495.193795668","4","green","3"
"100","86","21","652.234338078","1","0","4","355","3","left","3","in","Female","Right-handed","0","no","left","s","611.902568002","1455.72971207","4","red","2"
"100","87","21","653.544464169","1","1","4","356","0","right","0","in","Female","Right-handed","0","no","right","d","580.397562626","847.222966124","4","red","2"
"100","87","21","650.114138867","1","1","4","357","3","right","3","out","Female","Right-handed","0","no","right","s","529.792501417","447.985197963","4","red","0"
"100","85","21","652.103357112","1","0","4","358","2","left","1","in","Female","Right-handed","0","no","left","s","687.511886819","807.659778912","4","green","0"
"100","84","21","650.204384357","1","0","4","359","1","left","3","in","Female","Right-handed","0","no","left","s","675.186476754","439.122961921","4","red","0"
"100","84","21","647.666434494","1","1","4","360","0","left","2","in","Female","Right-handed","0","no","left","s","577.757044775","463.780837981","4","green","0"
"100","84","21","647.025937564","1","1","4","361","0","left","2","out","Female","Right-handed","0","no","left","d","621.403364839","607.317823353","4","green","0"
"100","83","21","649.233312826","1","0","4","362","2","left","1","out","Female","Right-handed","0","no","left","d","513.002938791","1015.0307141","4","green","3"
"100","81","21","651.582700561","1","0","4","363","3","left","0","out","Female","Right-handed","0","no","left","s","744.747268156","807.453232879","4","green","1"
"100","81","21","652.485076218","1","1","4","364","3","left","1","out","Female","Right-handed","0","no","left","d","579.254503522","823.172219941","4","green","3"
"100","82","21","653.088536727","1","1","4","365","3","left","1","in","Female","Right-handed","0","no","left","d","652.728444245","719.829285212","4","green","0"
"100","82","21","653.541172053","1","1","4","366","2","left","1","out","Female","Right-handed","0","no","left","s","590.348655478","767.428845051","4","red","0"
"100","82","21","655.281512368","1","1","4","367","3","left","0","in","Female","Right-handed","0","no","left","d","590.00740551","918.954415225","4","red","3"
"100","83","21","655.135206194","1","1","4","368","2","left","0","in","Female","Right-handed","0","no","left","d","629.700485799","663.598410363","4","green","3"
"100","81","21","656.236324477","1","0","4","369","3","left","0","out","Female","Right-handed","0","no","left","d","491.193409514","951.211196847","4","red","2"
"100","80","21","661.663392543","1","0","4","370","0","right","0","out","Female","Right-handed","0","no","right","d","710.82304425","1263.75190871","4","red","2"
"100","80","21","662.617611563","1","1","4","371","3","right","3","out","Female","Right-handed","0","no","right","d","762.282513282","679.367430319","4","green","1"
"100","80","21","662.741154216","1","1","4","372","2","right","3","in","Female","Right-handed","0","no","right","s","669.914742033","670.88685543","4","green","0"
"100","79","21","665.104531156","1","0","4","373","1","right","0","in","Female","Right-handed","0","no","right","s","756.619495703","871.375060978","4","green","1"
"100","80","21","665.181122393","1","1","4","374","0","left","2","in","Female","Right-handed","0","no","left","d","628.983347709","711.182575469","4","green","3"
"100","80","21","668.772584352","1","1","4","375","2","right","0","in","Female","Right-handed","0","no","right","s","620.775387924","1183.65983536","4","green","3"
"100","79","21","669.817581911","1","0","4","376","2","right","0","out","Female","Right-handed","0","no","right","s","702.260364105","775.314477563","4","green","2"
"100","79","21","668.450938044","1","1","4","377","2","right","2","in","Female","Right-handed","0","no","right","d","538.822155206","614.949442727","4","green","0"
"100","79","21","669.792718301","1","1","4","378","2","left","3","in","Female","Right-handed","0","no","left","s","834.554702465","687.512848992","4","red","0"
"100","80","21","671.661682545","1","1","4","379","1","left","0","in","Female","Right-handed","0","no","left","s","754.113040334","847.127390476","4","red","3"
"100","80","21","672.25356508","1","1","4","380","1","right","2","out","Female","Right-handed","0","no","right","d","699.55121139","727.819473635","4","red","1"
"100","79","21","671.115734076","1","0","4","381","1","left","0","in","Female","Right-handed","0","no","left","s","597.229460778","583.430004786","4","red","1"
"100","79","21","671.811174414","1","1","4","382","3","left","0","in","Female","Right-handed","0","no","left","d","756.852020349","686.913737205","4","red","1"
"100","79","21","672.819960918","1","1","4","383","1","left","1","out","Female","Right-handed","0","no","left","s","661.448599705","831.474151757","4","red","0"
"100","80","21","673.456016546","1","1","4","384","3","right","3","in","Female","Right-handed","0","no","right","d","658.049891128","782.998374892","4","green","0"
"100","80","21","672.828096544","1","1","4","385","2","left","2","out","Female","Right-handed","0","no","left","d","580.742340557","670.725852153","4","green","3"
"100","79","21","673.659346902","1","0","4","386","1","right","2","out","Female","Right-handed","0","no","right","s","562.3199738","911.348774465","4","green","0"
"100","78","21","677.714077263","1","0","4","387","0","right","2","in","Female","Right-handed","0","no","right","s","756.988648627","1222.86798149","4","red","1"
"100","77","21","677.691135658","1","0","4","388","0","left","0","in","Female","Right-handed","0","no","left","s","728.349629837","623.45375117","4","red","3"
"100","76","21","680.507214037","1","0","4","389","3","right","0","in","Female","Right-handed","0","no","right","d","1070.94054457","735.014267393","4","red","1"
"100","76","21","685.051847295","1","1","4","390","1","right","0","in","Female","Right-handed","0","no","right","d","850.616543121","1246.62847276","4","red","2"
"100","75","21","685.521291987","1","0","4","391","2","right","0","out","Female","Right-handed","0","no","right","s","671.930810928","775.161813101","4","red","1"
"100","74","21","686.01040164","1","0","4","392","3","right","2","in","Female","Right-handed","0","no","right","s","597.668210736","854.566575657","4","red","0"
"100","75","21","685.746683004","1","1","4","393","1","left","0","out","Female","Right-handed","0","no","left","s","624.365568521","703.350503809","4","red","2"
"100","75","21","684.801675717","1","1","4","394","1","left","0","out","Female","Right-handed","0","no","left","d","547.858223468","662.983903839","4","red","1"
"100","75","21","683.508647721","1","1","4","395","2","right","0","out","Female","Right-handed","0","no","right","s","596.747413125","550.455122903","4","green","1"
"100","75","21","681.988461447","1","1","4","396","3","right","0","out","Female","Right-handed","0","no","right","s","543.27379954","559.23108428","4","red","3"
"100","76","21","683.441059914","1","1","4","397","1","right","3","in","Female","Right-handed","0","no","right","d","1012.7718574","606.862395762","4","green","1"
"100","76","21","683.070275011","1","1","4","398","3","right","0","in","Female","Right-handed","0","no","right","d","709.427254904","591.455152091","4","red","2"
"100","76","21","682.830091192","1","1","4","399","2","left","0","out","Female","Right-handed","0","no","left","s","571.986905496","750.920557071","4","green","2"
"100","76","21","682.887064048","1","1","4","400","0","right","0","out","Female","Right-handed","0","no","right","s","633.554942688","742.474299612","4","red","1"
"100","77","21","683.683023332","1","1","4","401","1","left","0","out","Female","Right-handed","0","no","left","s","1025.09438096","487.136255276","4","green","3"
"100","76","21","690.405191817","1","0","4","402","1","left","2","in","Female","Right-handed","0","no","left","s","850.810580931","1766.87880398","4","green","0"
"100","76","21","689.287015483","1","1","4","403","3","right","0","out","Female","Right-handed","0","no","right","s","604.318415728","566.274817196","4","red","3"
"100","75","21","689.667070447","1","0","4","404","0","right","0","out","Female","Right-handed","0","no","right","s","675.897841818","774.886632207","4","green","1"
"100","76","21","688.045654505","1","1","4","405","0","right","1","out","Female","Right-handed","0","no","right","s","557.470632139","510.551647894","4","red","0"
"100","0","21","598.639201604","1","0","5","406","1","right","0","in","Female","Right-handed","0","no","right","s","581.128491838","616.14991137","4","green","3"
"100","50","21","574.888572583","1","1","5","407","0","right","0","out","Female","Right-handed","0","no","right","s","662.60224269","439.673644436","4","red","1"
"100","66","21","556.515891269","1","1","5","408","3","right","0","in","Female","Right-handed","0","no","right","s","528.165470314","511.375586964","4","red","3"
"100","75","21","591.904044934","1","1","5","409","3","left","1","in","Female","Right-handed","0","no","left","s","876.061795752","520.075216111","4","red","0"
"100","80","21","597.629403175","1","1","5","410","2","right","1","in","Female","Right-handed","0","no","right","s","697.58838262","543.473289654","4","red","0"
"100","83","21","649.130111921","1","1","5","411","3","left","0","out","Female","Right-handed","0","no","left","d","638.148667604","1175.1186437","4","red","3"
"100","85","21","655.220971038","1","1","5","412","1","right","2","out","Female","Right-handed","0","no","right","s","711.75731226","671.77493923","4","green","1"
"100","87","21","647.118827152","1","1","5","413","1","left","2","out","Female","Right-handed","0","no","left","s","677.491517661","503.316122235","4","green","0"
"100","88","21","642.380509324","1","1","5","414","1","right","1","out","Female","Right-handed","0","no","right","s","640.917474917","568.030458486","4","red","3"
"100","90","21","635.288903058","1","1","5","415","2","right","0","out","Female","Right-handed","0","no","right","s","671.521246823","471.407646499","4","green","2"
"100","90","21","634.864165806","1","1","5","416","0","right","0","out","Female","Right-handed","0","no","right","d","614.155010233","647.078576334","4","red","2"
"100","91","21","640.273475181","1","1","5","417","2","right","0","in","Female","Right-handed","0","no","right","d","767.731608179","631.820148435","4","red","1"
"100","84","21","645.778584675","1","0","5","418","3","left","3","in","Female","Right-handed","0","no","left","d","584.339897796","839.339899401","4","green","1"
"100","85","21","647.439802804","1","1","5","419","0","left","2","in","Female","Right-handed","0","no","left","s","651.033740451","687.037536533","4","green","1"
"100","86","21","650.153835101","1","1","5","420","2","left","1","out","Female","Right-handed","0","no","left","s","536.586069881","839.714504633","4","red","2"
"100","87","21","640.127472418","1","1","5","421","0","left","3","out","Female","Right-handed","0","no","left","s","500.213120867","479.250943488","4","red","1"
"100","88","21","643.847002516","1","1","5","422","3","right","0","out","Female","Right-handed","0","no","right","s","894.840165762","511.878802379","4","green","2"
"100","83","21","646.302433997","1","0","5","423","0","left","1","in","Female","Right-handed","0","no","left","s","592.539198042","783.550340304","4","red","0"
"100","84","21","649.841644383","1","1","5","424","0","left","0","in","Female","Right-handed","0","no","left","d","628.019893848","799.074968833","4","green","3"
"100","80","21","655.930501108","1","0","5","425","0","left","3","in","Female","Right-handed","0","no","left","s","655.693534434","887.544023328","4","red","0"
"100","76","21","656.155132138","1","0","5","426","2","left","2","out","Female","Right-handed","0","no","left","s","610.096893822","711.198611654","4","green","0"
"100","72","21","658.362844526","1","0","5","427","1","left","1","out","Female","Right-handed","0","no","left","s","657.699981621","751.749627721","4","green","0"
"100","73","21","654.516638983","1","1","5","428","2","left","1","out","Female","Right-handed","0","no","left","s","548.428149403","591.372084662","4","red","0"
"100","75","21","657.932486227","1","1","5","429","2","left","0","in","Female","Right-handed","0","no","left","d","714.00558508","758.988360616","4","red","3"
"100","76","21","668.717384408","1","1","5","430","2","right","0","out","Female","Right-handed","0","no","right","d","663.655178451","1191.45470308","4","green","2"
"100","76","21","671.832077383","1","1","5","431","1","left","3","in","Female","Right-handed","0","no","left","d","852.19097554","647.207827966","4","green","0"
"100","77","21","672.53270232","1","1","5","432","2","left","3","out","Female","Right-handed","0","no","left","d","557.681026858","823.816874491","4","green","1"
"100","78","21","672.724974242","1","1","5","433","0","right","0","out","Female","Right-handed","0","no","right","s","596.435990454","759.396641832","4","red","1"
"100","79","21","672.580912246","1","1","5","434","0","right","3","out","Female","Right-handed","0","no","right","s","618.02197534","719.072377389","4","green","2"
"100","80","21","667.198549431","1","1","5","435","1","right","3","in","Female","Right-handed","0","no","right","s","534.600469731","487.619585823","4","green","0"
"100","77","21","668.488577049","1","0","5","436","0","right","0","out","Female","Right-handed","0","no","right","s","519.166285274","895.212525927","4","green","3"
"100","78","21","664.420174528","1","1","5","437","0","right","1","in","Female","Right-handed","0","no","right","s","534.73100426","541.868388481","4","green","3"
"100","78","21","666.949603244","1","1","5","438","1","left","0","out","Female","Right-handed","0","no","left","d","744.407942529","751.37470177","4","green","1"
"100","79","21","671.510950647","1","1","5","439","2","right","0","in","Female","Right-handed","0","no","right","d","613.004253759","1031.06657614","4","green","2"
"100","80","21","673.615100366","1","1","5","440","2","right","0","out","Female","Right-handed","0","no","right","s","722.696554691","767.615826942","4","green","1"
"100","77","21","675.575959994","1","0","5","441","3","left","0","out","Female","Right-handed","0","no","left","s","601.169871606","887.242222372","4","green","2"
"100","78","21","675.082783326","1","1","5","442","3","right","0","in","Female","Right-handed","0","no","right","d","747.83615768","566.820688855","4","green","3"
"100","78","21","674.0132021","1","1","5","443","2","right","1","in","Female","Right-handed","0","no","right","d","565.413032735","703.464360704","4","green","3"
"100","79","21","673.307529553","1","1","5","444","2","left","3","in","Female","Right-handed","0","no","left","s","710.110717013","582.873228522","4","green","2"
"100","80","21","671.239647441","1","1","5","445","2","right","0","out","Female","Right-handed","0","no","right","s","557.520985753","623.663504437","4","red","2"
"100","80","21","668.888031296","1","1","5","446","3","right","1","out","Female","Right-handed","0","no","right","s","630.324293306","519.322477696","4","red","0"
"100","80","21","669.529579648","1","1","5","447","1","right","0","in","Female","Right-handed","0","no","right","s","560.894036433","830.772087676","4","red","3"
"100","81","21","671.852707258","1","1","5","448","3","left","0","in","Female","Right-handed","0","no","left","d","779.462717317","759.385416502","4","green","1"
"100","81","21","671.128750313","1","1","5","449","1","left","3","in","Female","Right-handed","0","no","left","d","721.074655168","558.922548123","4","red","1"
"100","82","21","671.38621147","1","1","5","450","0","right","0","out","Female","Right-handed","0","no","right","s","654.736174325","710.692830446","4","red","3"
"100","82","21","667.970306065","1","1","5","451","3","right","3","in","Female","Right-handed","0","no","right","s","509.249509854","519.259615856","4","red","0"
"100","82","21","667.670007404","1","1","5","452","0","left","0","in","Female","Right-handed","0","no","left","d","628.924655277","678.787882676","4","red","2"
"100","83","21","666.906724982","1","1","5","453","0","left","0","out","Female","Right-handed","0","no","left","d","663.535227806","598.529674473","4","red","3"
"100","83","21","664.942111573","1","1","5","454","3","right","3","out","Female","Right-handed","0","no","right","s","526.114442538","615.166893367","4","red","0"
"100","84","21","662.019699488","1","1","5","455","3","right","3","out","Female","Right-handed","0","no","right","s","566.867835234","470.775179452","4","green","2"
"100","84","21","666.635418121","1","1","5","456","1","right","0","out","Female","Right-handed","0","no","right","d","955.414921795","839.427777682","4","red","1"
"100","84","21","670.114222893","1","1","5","457","1","left","3","out","Female","Right-handed","0","no","left","d","568.077925585","1126.98860693","4","green","2"
"100","83","21","670.765186188","1","0","5","458","0","left","2","in","Female","Right-handed","0","no","left","s","650.60557437","758.624980717","4","red","3"
"100","83","21","670.604297889","1","1","5","459","0","right","2","out","Female","Right-handed","0","no","right","d","589.125094736","735.029341402","4","green","0"
"100","83","21","670.214936456","1","1","5","460","3","right","2","in","Female","Right-handed","0","no","right","d","699.738193278","598.640644861","4","red","0"
"100","83","21","672.527611787","1","1","5","461","1","left","0","out","Female","Right-handed","0","no","left","s","944.373047794","655.076462121","4","red","2"
"100","84","21","676.19335772","1","1","5","462","3","left","1","out","Female","Right-handed","0","no","left","d","723.955074311","1038.99518562","4","red","3"
"100","84","21","675.639717338","1","1","5","463","1","left","0","out","Female","Right-handed","0","no","left","d","585.596493078","702.567938089","4","green","2"
"100","84","21","676.479996022","1","1","5","464","3","left","0","out","Female","Right-handed","0","no","left","d","571.17996478","879.252354673","4","green","1"
"100","85","21","675.351900667","1","1","5","465","3","left","0","in","Female","Right-handed","0","no","left","d","602.766754684","614.821794712","4","green","2"
"100","85","21","673.178938578","1","1","5","466","1","left","0","out","Female","Right-handed","0","no","left","s","439.385313872","646.217112593","4","red","2"
"100","85","21","673.516088466","1","1","5","467","0","left","1","in","Female","Right-handed","0","no","left","d","661.095803684","727.068659558","4","red","2"
"100","85","21","672.17787505","1","1","5","468","2","left","0","in","Female","Right-handed","0","no","left","s","483.68494802","694.73233847","4","green","3"
"100","85","21","674.326691801","1","1","5","469","3","right","0","in","Female","Right-handed","0","no","right","s","524.12018285","1095.28411145","4","green","3"
"100","86","21","676.91936393","1","1","5","470","0","right","0","out","Female","Right-handed","0","no","right","s","862.780308467","822.920451876","4","green","2"
"100","86","21","676.833832501","1","1","5","471","2","left","3","out","Female","Right-handed","0","no","left","s","768.450991341","574.097587869","4","red","0"
"100","86","21","676.597545948","1","1","5","472","3","left","0","in","Female","Right-handed","0","no","left","s","715.060765906","606.944501018","4","red","1"
"100","86","21","674.94487515","1","1","5","473","1","right","2","out","Female","Right-handed","0","no","right","s","633.705362081","494.7265013","4","green","3"
"100","86","21","674.557574849","1","1","5","474","2","left","2","out","Female","Right-handed","0","no","left","d","642.234045525","654.208263186","4","red","1"
"100","87","21","673.075024639","1","1","5","475","0","right","1","out","Female","Right-handed","0","no","right","s","550.780657413","590.777463007","4","red","0"
"100","87","21","671.88289662","1","1","5","476","1","left","0","out","Female","Right-handed","0","no","left","s","498.428293726","678.439576786","4","green","3"
"100","87","21","671.697949963","1","1","5","477","3","left","0","out","Female","Right-handed","0","no","left","d","702.029443073","615.104031527","4","red","1"
"100","87","21","670.636297762","1","1","5","478","2","left","0","in","Female","Right-handed","0","no","left","s","525.675051133","662.719627551","4","green","3"
"100","87","21","669.821220746","1","1","5","479","0","right","3","in","Female","Right-handed","0","no","right","s","766.340950413","454.300246733","4","red","0"
"100","88","21","670.875818259","1","1","5","480","3","left","2","in","Female","Right-handed","0","no","left","s","746.93524493","750.89682352","4","green","3"
"100","88","21","669.076091873","1","1","5","481","0","right","2","in","Female","Right-handed","0","no","right","s","557.534776868","510.658448871","4","green","0"
"100","87","21","669.142058349","1","0","5","482","1","left","0","in","Female","Right-handed","0","no","left","s","702.176975952","646.134045172","4","red","2"
"100","87","21","669.220188228","1","1","5","483","1","left","2","in","Female","Right-handed","0","no","left","s","919.707795092","430.764582743","4","red","0"
"100","87","21","667.766601975","1","1","5","484","1","left","1","out","Female","Right-handed","0","no","left","d","534.404186856","574.369561531","4","green","0"
"100","87","21","667.474921014","1","1","5","485","3","right","1","in","Female","Right-handed","0","no","right","s","729.974095149","558.890155033","4","green","2"
"100","87","21","666.699588356","1","1","5","486","1","left","1","in","Female","Right-handed","0","no","left","d","578.742628568","630.603322887","4","green","2"
"100","87","21","665.73638163","1","1","5","487","2","left","2","in","Female","Right-handed","0","no","left","d","649.210747193","526.222526409","4","red","0"
"100","87","21","665.285847643","1","1","5","488","2","left","0","out","Female","Right-handed","0","no","left","s","769.827216544","486.856904972","4","red","3"
"100","88","21","664.15736297","1","1","5","489","1","right","0","in","Female","Right-handed","0","no","right","s","622.473619679","518.512650466","4","green","1"
"100","88","21","664.344736197","1","1","5","490","3","right","0","out","Female","Right-handed","0","no","right","d","666.09877198","694.069402675","4","red","2"
"100","88","21","662.948482525","1","1","5","491","0","right","0","in","Female","Right-handed","0","no","right","s","641.685928796","446.84791188","4","green","1"
"100","88","21","661.820747896","1","1","5","492","1","right","0","in","Female","Right-handed","0","no","right","d","539.23396438","590.437175204","4","red","3"
"100","88","21","661.499297732","1","1","5","493","2","right","0","out","Female","Right-handed","0","no","right","d","604.023991411","663.042275548","4","red","1"
"100","88","21","662.106791312","1","1","5","494","2","left","3","in","Female","Right-handed","0","no","left","s","712.538915806","718.593536971","4","green","0"
"100","88","21","661.784969329","1","1","5","495","2","right","2","in","Female","Right-handed","0","no","right","d","644.162236138","622.123389447","4","red","3"
"100","87","21","662.202150506","1","0","5","496","1","right","0","in","Female","Right-handed","0","no","right","s","704.739878686","694.75703419","4","green","1"
"100","88","21","662.720584492","1","1","5","497","0","right","0","in","Female","Right-handed","0","no","right","d","853.412611945","566.383542514","4","red","2"
"100","88","21","661.745557047","1","1","5","498","2","left","0","out","Female","Right-handed","0","no","left","d","586.057693694","558.028370571","4","green","1"
"100","88","21","661.258983785","1","1","5","499","3","right","2","in","Female","Right-handed","0","no","right","d","689.367914612","542.647426242","4","red","1"
"100","87","21","668.395318778","1","0","5","500","3","right","2","in","Female","Right-handed","0","no","right","s","544.269646489","2134.15196977","4","red","0"
"100","87","21","669.028919999","1","1","5","501","0","right","0","out","Female","Right-handed","0","no","right","s","763.757842094","694.684229922","4","green","1"
dis_reply=No
dis_loc=1
