"acc_1","acc_2","age","avg_rt","correct_1","correct_2","count_block_loop","count_trial_sequence","cue_position","detection","dis_position","dis_shape","gender","hand","high_loc","practice","response_keyboard_response_1","response_keyboard_response_2","response_time_keyboard_response_1","response_time_keyboard_response_2","subject_nr","tar_color","tar_position"
"100","0","18","2092.46479016","1","0","0","0","1","left","1","in","Female","Right-handed","0","yes","left","None","1184.76312474","3000.16645557","24","green","3"
"100","50","18","1589.98671883","1","1","0","1","2","left","3","out","Female","Right-handed","0","yes","left","s","1094.02976124","1080.98753379","24","green","1"
"100","66","18","1522.2415975","1","1","0","2","0","left","3","in","Female","Right-handed","0","yes","left","s","1747.78580407","1025.71690557","24","red","1"
"100","50","18","1375.48581616","1","0","0","3","3","left","2","in","Female","Right-handed","0","yes","left","s","925.257917959","945.179026341","24","green","1"
"100","60","18","1308.62765876","1","1","0","4","3","left","1","out","Female","Right-handed","0","yes","left","d","1096.66386459","985.726193729","24","green","2"
"100","66","18","1237.07344689","1","1","0","5","3","right","2","out","Female","Right-handed","0","yes","right","d","821.336077002","937.268698093","24","green","1"
"100","71","18","1248.24682141","1","1","0","6","0","left","2","in","Female","Right-handed","0","yes","left","s","1756.7279003","873.846236762","24","red","0"
"100","75","18","1219.20639978","1","1","0","7","3","right","0","out","Female","Right-handed","0","yes","right","s","1198.52794256","833.318954217","24","green","1"
"100","77","18","1163.90969049","1","1","0","8","2","left","3","in","Female","Right-handed","0","yes","left","s","658.063040813","785.008991486","24","green","2"
"90","70","18","1196.37009778","0","0","0","9","0","left","1","in","Female","Right-handed","0","yes","right","s","1099.46410282","1877.56342388","24","red","0"
"90","72","18","1187.98154288","1","1","0","10","0","left","3","out","Female","Right-handed","0","yes","left","d","1135.06635293","1073.12563484","24","red","0"
"91","75","18","1194.1988013","1","1","0","11","1","left","2","in","Female","Right-handed","0","yes","left","s","1283.61592829","1241.56135973","24","red","0"
"92","76","18","1164.42227542","1","1","0","12","1","left","3","out","Female","Right-handed","0","yes","left","d","845.193106099","769.014823512","24","green","0"
"92","71","18","1134.48399894","1","0","0","13","2","right","2","in","Female","Right-handed","0","yes","right","d","728.699860076","761.872949195","24","red","1"
"93","73","18","1120.8029167","1","1","0","14","0","right","3","out","Female","Right-handed","0","yes","right","s","817.315164575","1041.22036634","24","green","2"
"93","75","18","1094.06032018","1","1","0","15","1","left","2","out","Female","Right-handed","0","yes","left","d","607.845413761","777.997330937","24","red","1"
"94","76","18","1088.93921651","1","1","0","16","1","right","1","in","Female","Right-handed","0","yes","right","s","820.46146362","1193.54165191","24","red","0"
"94","72","18","1075.891814","1","0","0","17","0","right","0","out","Female","Right-handed","0","yes","right","d","739.127227542","969.044714962","24","red","3"
"94","73","18","1064.93121296","1","1","0","18","3","left","1","out","Female","Right-handed","0","yes","left","s","749.56165094","985.719137825","24","red","3"
"95","75","18","1055.76714052","1","1","0","19","3","left","3","in","Female","Right-handed","0","yes","left","d","922.257868893","841.041659121","24","red","2"
"95","76","18","1048.9147941","1","1","0","20","1","left","2","out","Female","Right-handed","0","yes","left","d","973.867757304","849.867974088","24","red","3"
"95","77","18","1030.45985445","1","1","0","21","1","left","3","in","Female","Right-handed","0","yes","left","s","716.331473028","569.48077085","24","red","1"
"100","100","18","1048.74149642","1","1","1","22","0","left","0","in","Female","Right-handed","0","no","left","d","776.254197874","1321.22879496","24","red","2"
"100","50","18","827.314686678","1","0","1","23","2","left","0","out","Female","Right-handed","0","no","left","s","665.887094365","545.888659515","24","red","1"
"100","33","18","829.686598469","1","0","1","24","3","right","2","in","Female","Right-handed","0","no","right","s","875.559542503","793.301301601","24","red","0"
"100","50","18","802.794962336","1","1","1","25","1","right","0","in","Female","Right-handed","0","no","right","d","643.114111241","801.12599663","24","green","1"
"100","60","18","840.868051408","1","1","1","26","0","left","2","in","Female","Right-handed","0","no","left","s","1120.70274403","865.618071373","24","red","0"
"100","66","18","949.161665786","1","1","1","27","1","left","0","in","Female","Right-handed","0","no","left","s","1548.13532869","1433.12414666","24","green","2"
"100","71","18","960.376310566","1","1","1","28","2","right","0","in","Female","Right-handed","0","no","right","d","1013.61311556","1041.71524293","24","green","3"
"100","75","18","984.615066669","1","1","1","29","3","left","0","out","Female","Right-handed","0","no","left","s","1107.32985046","1201.24286832","24","green","1"
"100","77","18","964.912547036","1","1","1","30","2","left","0","in","Female","Right-handed","0","no","left","d","1148.86292239","465.721857559","24","red","2"
"100","80","18","934.170042555","1","1","1","31","3","right","2","out","Female","Right-handed","0","no","right","d","585.47846679","729.49653765","24","red","3"
"100","81","18","897.611072364","1","1","1","32","2","left","3","in","Female","Right-handed","0","no","left","s","654.992111784","409.050629125","24","green","1"
"100","75","18","910.189452","1","0","1","33","1","left","2","out","Female","Right-handed","0","no","left","s","791.439500754","1305.66375525","24","green","1"
"100","76","18","904.7694124","1","1","1","34","0","right","0","in","Female","Right-handed","0","no","right","s","630.248602538","1049.20927185","24","red","3"
"100","78","18","886.299592642","1","1","1","35","1","right","0","in","Female","Right-handed","0","no","right","d","802.62313463","489.760736964","24","green","1"
"100","80","18","884.242290903","1","1","1","36","3","left","1","in","Female","Right-handed","0","no","left","s","765.352159389","945.527973701","24","green","0"
"100","81","18","866.757281793","1","1","1","37","2","right","2","out","Female","Right-handed","0","no","right","s","823.878453433","385.085836868","24","green","0"
"100","82","18","854.011808633","1","1","1","38","3","left","0","in","Female","Right-handed","0","no","left","s","818.548667739","481.619808415","24","red","2"
"100","83","18","846.276439347","1","1","1","39","1","right","0","in","Female","Right-handed","0","no","right","d","780.177931068","649.372391897","24","green","2"
"100","84","18","850.098042691","1","1","1","40","0","left","1","out","Female","Right-handed","0","no","left","s","972.968448157","864.805357618","24","red","0"
"100","85","18","852.431510267","1","1","1","41","2","left","1","out","Female","Right-handed","0","no","left","s","1048.37122097","745.163567452","24","red","0"
"100","85","18","840.192375243","1","1","1","42","0","left","0","in","Female","Right-handed","0","no","left","s","701.940602623","488.878746895","24","red","1"
"100","86","18","838.213802204","1","1","1","43","1","right","1","in","Female","Right-handed","0","no","right","d","727.680600277","865.646936494","24","red","0"
"100","86","18","843.999121665","1","1","1","44","0","right","1","out","Female","Right-handed","0","no","right","d","901.31044478","1041.24185481","24","red","0"
"100","87","18","843.465628367","1","1","1","45","2","right","1","out","Female","Right-handed","0","no","right","d","893.714104983","768.67646008","24","red","2"
"100","84","18","835.858681461","1","0","1","46","1","left","2","in","Female","Right-handed","0","no","left","d","665.291510522","641.292400891","24","green","3"
"100","84","18","823.747783215","1","1","1","47","2","left","2","out","Female","Right-handed","0","no","left","s","648.943584412","393.00706971","24","green","1"
"100","81","18","821.108636432","1","0","1","48","3","right","0","out","Female","Right-handed","0","no","right","s","551.468609658","953.513030516","24","red","3"
"96","78","18","826.451647955","0","0","1","49","0","left","0","out","Female","Right-handed","0","no","right","s","537.220461294","1404.20545684","24","red","2"
"96","79","18","821.506630116","1","1","1","50","1","right","0","out","Female","Right-handed","0","no","right","s","549.610016053","816.482245194","24","green","3"
"96","80","18","822.64671958","1","1","1","51","1","left","0","in","Female","Right-handed","0","no","left","s","942.184429587","769.234198495","24","green","1"
"96","80","18","817.008252707","1","1","1","52","3","right","0","out","Female","Right-handed","0","no","right","d","566.78765433","728.920838679","24","red","2"
"96","81","18","817.58858648","1","1","1","53","1","right","0","in","Female","Right-handed","0","no","right","d","925.636051135","745.521815785","24","red","2"
"96","78","18","827.17997788","1","0","1","54","3","right","0","out","Female","Right-handed","0","no","right","s","1091.13202299","1177.07698233","24","red","1"
"97","76","18","827.017710719","1","0","1","55","0","left","2","out","Female","Right-handed","0","no","left","d","666.641436401","976.684352441","24","red","0"
"97","74","18","828.836048496","1","0","1","56","0","right","0","in","Female","Right-handed","0","no","right","d","932.232374558","849.086691276","24","green","2"
"97","75","18","833.13891689","1","1","1","57","3","left","3","in","Female","Right-handed","0","no","left","s","1094.66190755","872.816713818","24","green","0"
"97","75","18","829.673076064","1","1","1","58","0","left","0","out","Female","Right-handed","0","no","left","d","544.386710622","865.418901987","24","green","3"
"97","76","18","818.614293698","1","1","1","59","2","left","2","out","Female","Right-handed","0","no","left","s","417.960332241","400.918360101","24","red","3"
"97","76","18","812.578257086","1","1","1","60","3","right","1","out","Female","Right-handed","0","no","right","s","557.669480826","608.748250845","24","red","2"
"97","75","18","805.86697778","1","0","1","61","3","right","0","in","Female","Right-handed","0","no","right","s","495.14376279","593.110406859","24","red","3"
"97","75","18","806.599270946","1","1","1","62","3","right","1","out","Female","Right-handed","0","no","right","s","575.105943048","1096.67605211","24","green","3"
"97","73","18","803.295447776","1","0","1","63","3","right","3","out","Female","Right-handed","0","no","right","d","574.426008912","761.251386721","24","red","0"
"97","74","18","805.229167233","1","1","1","64","0","right","0","out","Female","Right-handed","0","no","right","s","707.976942533","1064.91382635","24","red","2"
"97","75","18","798.757587266","1","1","1","65","1","left","0","out","Female","Right-handed","0","no","left","d","592.504880624","448.454416706","24","green","3"
"97","75","18","794.32290978","1","1","1","66","0","right","2","out","Female","Right-handed","0","no","right","d","509.153292747","689.240908017","24","red","3"
"97","76","18","799.710548994","1","1","1","67","3","right","0","in","Female","Right-handed","0","no","right","s","1075.60899813","1008.69962916","24","red","1"
"97","76","18","798.693085908","1","1","1","68","1","left","2","in","Female","Right-handed","0","no","left","d","790.304139024","713.475428871","24","green","0"
"97","77","18","794.405529753","1","1","1","69","3","left","3","in","Female","Right-handed","0","no","left","s","792.944656918","392.836123996","24","red","1"
"97","75","18","801.215449055","1","0","1","70","1","right","1","out","Female","Right-handed","0","no","right","s","1311.70907541","944.474075746","24","green","3"
"98","74","18","799.292688881","1","0","1","71","0","right","2","in","Female","Right-handed","0","no","right","s","729.147590289","681.007290375","24","red","1"
"98","74","18","795.466321474","1","1","1","72","2","right","0","in","Female","Right-handed","0","no","right","s","663.696872536","544.599029701","24","red","3"
"98","75","18","790.349644789","1","1","1","73","2","left","0","in","Female","Right-handed","0","no","left","d","682.3758182","376.422449539","24","red","1"
"98","75","18","785.399415051","1","1","1","74","1","left","2","out","Female","Right-handed","0","no","left","s","710.950692242","345.024245151","24","red","0"
"98","75","18","782.136032136","1","1","1","75","1","right","1","out","Female","Right-handed","0","no","right","d","561.616626801","656.736848468","24","green","0"
"98","76","18","782.062768594","1","1","1","76","2","right","1","in","Female","Right-handed","0","no","right","s","603.087478317","953.125596337","24","red","0"
"98","76","18","782.068236203","1","1","1","77","1","right","3","out","Female","Right-handed","0","no","right","d","843.86370657","720.874202845","24","green","1"
"98","75","18","784.520982313","1","0","1","78","2","left","0","in","Female","Right-handed","0","no","left","d","851.304495358","992.445033567","24","green","2"
"98","74","18","784.692227111","1","0","1","79","1","left","0","in","Female","Right-handed","0","no","left","d","563.985171029","1024.92119017","24","green","1"
"98","72","18","787.333827571","1","0","1","80","0","left","0","out","Female","Right-handed","0","no","left","s","904.572845786","976.52046266","24","green","1"
"98","73","18","786.70416835","1","1","1","81","0","right","0","in","Female","Right-handed","0","no","right","d","706.100067706","793.00848092","24","green","1"
"98","73","18","788.694866034","1","1","1","82","0","left","3","out","Female","Right-handed","0","no","left","d","591.618400416","1224.65505369","24","green","2"
"98","74","18","797.276717856","1","1","1","83","3","left","0","out","Female","Right-handed","0","no","left","s","657.190031023","1984.34932705","24","red","2"
"98","74","18","794.538650909","1","1","1","84","1","left","3","in","Female","Right-handed","0","no","left","s","520.82346438","728.733536031","24","red","2"
"98","73","18","791.747603453","1","0","1","85","3","right","3","in","Female","Right-handed","0","no","right","d","615.377288079","616.445939289","24","red","2"
"98","73","18","792.890304097","1","1","1","86","2","left","3","in","Female","Right-handed","0","no","left","d","1019.0262894","713.020001305","24","red","0"
"98","74","18","791.483481221","1","1","1","87","0","right","1","in","Female","Right-handed","0","no","right","d","543.455649866","856.624338601","24","green","3"
"98","74","18","793.216817238","1","1","1","88","3","left","1","out","Female","Right-handed","0","no","left","d","966.217215231","849.016773514","24","red","0"
"98","75","18","797.378861873","1","1","1","89","0","left","0","out","Female","Right-handed","0","no","left","s","967.797099904","1184.67460497","24","green","1"
"98","73","18","795.118031441","1","0","1","90","3","right","0","in","Female","Right-handed","0","no","right","d","586.384190363","696.378933731","24","green","3"
"98","74","18","797.129729465","1","1","1","91","1","right","0","out","Female","Right-handed","0","no","right","d","990.875732736","880.99805353","24","green","3"
"98","74","18","795.157209678","1","1","1","92","1","right","1","out","Female","Right-handed","0","no","right","d","689.541105356","624.620543793","24","green","2"
"98","75","18","794.718935784","1","1","1","93","3","right","0","in","Female","Right-handed","0","no","right","s","591.052643897","936.150334717","24","red","2"
"98","75","18","793.184435164","1","1","1","94","2","right","0","out","Female","Right-handed","0","no","right","s","364.671134739","1000.7296463","24","red","3"
"98","74","18","797.509200282","1","0","1","95","3","left","2","out","Female","Right-handed","0","no","left","s","930.16659352","1296.26751429","24","red","0"
"98","74","18","795.680416837","1","1","1","96","1","left","0","out","Female","Right-handed","0","no","left","s","511.747626413","808.953257394","24","green","3"
"98","75","18","796.419254586","1","1","1","97","1","right","3","out","Female","Right-handed","0","no","right","d","607.329369406","1096.33480216","24","green","0"
"98","74","18","795.817816017","1","0","1","98","0","right","1","out","Female","Right-handed","0","no","right","d","692.070973571","808.145996009","24","red","2"
"98","73","18","793.975176942","1","0","1","99","0","left","3","in","Female","Right-handed","0","no","left","s","735.577778891","568.606157438","24","red","0"
"98","73","18","793.320222257","1","1","1","100","2","right","3","out","Female","Right-handed","0","no","right","s","492.200802488","992.266711197","24","green","0"
"98","73","18","792.156933531","1","1","1","101","1","left","3","in","Female","Right-handed","0","no","left","s","751.698311942","648.815936409","24","red","0"
"98","72","18","791.678614117","1","0","1","102","3","left","2","in","Female","Right-handed","0","no","left","d","674.492430757","832.333691127","24","red","1"
"98","73","18","790.907870025","1","1","1","103","2","left","0","in","Female","Right-handed","0","no","left","s","657.046026085","799.909171066","24","green","2"
"98","73","18","788.428601197","1","1","1","104","2","right","0","out","Female","Right-handed","0","no","right","d","457.667203678","712.589910894","24","green","3"
"98","72","18","786.527098727","1","0","1","105","3","left","0","in","Female","Right-handed","0","no","left","s","489.046485338","768.358302186","24","green","3"
"98","72","18","785.46012138","1","1","1","106","2","left","0","out","Female","Right-handed","0","no","left","d","702.868135413","688.799913041","24","red","1"
"98","73","18","784.214844288","1","1","1","107","1","left","0","out","Female","Right-handed","0","no","left","s","556.423790113","800.308792735","24","green","2"
"98","73","18","782.815590057","1","1","1","108","0","left","3","in","Female","Right-handed","0","no","left","d","540.955608943","784.003843553","24","green","1"
"98","73","18","782.222269204","1","1","1","109","2","right","3","in","Female","Right-handed","0","no","right","s","532.628660672","928.578049236","24","green","2"
"98","74","18","788.850450058","1","1","1","110","3","left","0","out","Female","Right-handed","0","no","left","d","856.208039331","1888.05269107","24","green","1"
"98","74","18","791.909261147","1","1","1","111","2","left","2","out","Female","Right-handed","0","no","left","d","903.586299857","1224.70059642","24","green","0"
"98","74","18","790.946613717","1","1","1","112","2","right","0","in","Female","Right-handed","0","no","right","d","528.299853497","880.316836468","24","green","2"
"98","75","18","790.99911059","1","1","1","113","0","left","0","out","Female","Right-handed","0","no","left","s","503.809395188","1087.74325688","24","red","3"
"98","75","18","791.702926975","1","1","1","114","2","right","0","in","Female","Right-handed","0","no","right","s","928.491453815","784.416614915","24","red","1"
"98","75","18","790.877439391","1","1","1","115","0","right","0","out","Female","Right-handed","0","no","right","s","532.143405813","896.070782444","24","green","3"
"98","75","18","790.216763782","1","1","1","116","2","right","1","in","Female","Right-handed","0","no","right","d","647.761076281","808.465436683","24","green","3"
"98","76","18","789.41079169","1","1","1","117","0","right","3","in","Female","Right-handed","0","no","right","d","633.272705891","792.414180003","24","green","0"
"100","100","18","678.585826769","1","1","2","118","3","right","3","out","Female","Right-handed","0","no","right","d","684.494518675","672.677134862","24","red","1"
"100","100","18","633.684194312","1","1","2","119","0","left","0","in","Female","Right-handed","0","no","left","d","480.218245997","697.346877714","24","green","1"
"100","100","18","688.410126866","1","1","2","120","1","right","1","out","Female","Right-handed","0","no","right","s","418.753161153","1176.97082279","24","green","3"
"100","100","18","679.598351344","1","1","2","121","1","left","3","in","Female","Right-handed","0","no","left","s","584.660942142","721.665107412","24","green","0"
"100","100","18","673.807300883","1","1","2","122","2","left","2","in","Female","Right-handed","0","no","left","d","524.308126885","776.978071197","24","red","3"
"100","100","18","717.133977062","1","1","2","123","3","right","3","in","Female","Right-handed","0","no","right","s","962.836467195","904.69824872","24","red","2"
"100","100","18","743.952240026","1","1","2","124","2","left","3","out","Female","Right-handed","0","no","left","s","992.441505601","817.28213001","24","red","0"
"100","100","18","769.074939162","1","1","2","125","0","right","0","in","Female","Right-handed","0","no","right","d","560.853304574","1329.01436166","24","green","2"
"100","100","18","785.286114538","1","1","2","126","2","right","0","out","Female","Right-handed","0","no","right","d","957.527528517","872.423506575","24","red","1"
"100","100","18","773.71860476","1","1","2","127","1","right","0","in","Female","Right-handed","0","no","right","d","658.064965159","681.157068349","24","green","1"
"100","100","18","776.708984009","1","1","2","128","1","left","1","in","Female","Right-handed","0","no","left","s","796.656070976","816.569482035","24","green","0"
"100","100","18","794.829964073","1","1","2","129","2","right","3","in","Female","Right-handed","0","no","right","d","1179.0612996","809.260189941","24","green","1"
"100","92","18","792.877810671","1","0","2","130","1","left","0","out","Female","Right-handed","0","no","left","d","625.947377586","912.956562126","24","red","1"
"100","92","18","780.743641775","1","1","2","131","1","right","3","out","Female","Right-handed","0","no","right","d","613.497526734","632.501365501","24","green","1"
"100","93","18","782.10204849","1","1","2","132","3","right","0","in","Female","Right-handed","0","no","right","s","585.028170783","1017.21131423","24","red","1"
"100","93","18","772.817643901","1","1","2","133","2","right","0","in","Female","Right-handed","0","no","right","s","570.461543743","696.641606395","24","red","1"
"100","94","18","776.547339288","1","1","2","134","3","left","1","out","Female","Right-handed","0","no","left","s","591.267208045","1081.1777229","24","red","3"
"100","94","18","762.396281084","1","1","2","135","0","right","0","in","Female","Right-handed","0","no","right","s","458.759909146","584.896674089","24","green","3"
"100","94","18","770.318869025","1","1","2","136","1","left","2","in","Female","Right-handed","0","no","left","d","545.457927627","1280.3929763","24","red","1"
"100","90","18","781.531777779","1","0","2","137","1","right","3","in","Female","Right-handed","0","no","right","d","564.122440759","1425.03164744","24","green","0"
"100","90","18","784.21669715","1","1","2","138","3","left","0","in","Female","Right-handed","0","no","left","s","675.473203708","1000.35696547","24","green","2"
"95","90","18","792.828372694","0","1","2","139","0","right","3","in","Female","Right-handed","0","no","left","s","704.175084305","1243.17203392","24","red","1"
"95","91","18","796.826682064","1","1","2","140","0","left","1","out","Female","Right-handed","0","no","left","d","608.851844561","1160.72713182","24","red","2"
"95","87","18","806.154716342","1","0","2","141","1","right","3","in","Female","Right-handed","0","no","right","d","833.031585847","1208.36742362","24","green","2"
"96","88","18","799.165137081","1","1","2","142","2","right","0","out","Female","Right-handed","0","no","right","s","422.02774965","840.802719991","24","green","2"
"96","88","18","795.486027957","1","1","2","143","0","right","3","in","Female","Right-handed","0","no","right","d","582.505358499","824.511241226","24","green","0"
"96","85","18","803.02429459","1","0","2","144","1","left","0","in","Female","Right-handed","0","no","left","s","629.13152203","1368.90693207","24","green","3"
"96","85","18","791.760831513","1","1","2","145","0","left","2","in","Female","Right-handed","0","no","left","s","598.567199137","376.72745774","24","red","3"
"96","82","18","798.328628299","1","0","2","146","2","left","0","in","Female","Right-handed","0","no","left","s","627.129244269","1337.32463233","24","red","3"
"96","83","18","798.793015323","1","1","2","147","3","left","3","out","Female","Right-handed","0","no","left","d","639.641636226","984.878841846","24","green","0"
"96","83","18","796.119836594","1","1","2","148","3","right","1","out","Female","Right-handed","0","no","right","d","615.381136769","816.467812634","24","red","0"
"96","84","18","791.054256541","1","1","2","149","2","left","0","out","Female","Right-handed","0","no","left","s","466.984546569","801.058003213","24","green","3"
"96","84","18","786.217434486","1","1","2","150","3","left","0","in","Female","Right-handed","0","no","left","s","446.52975403","816.34850346","24","red","3"
"97","85","18","787.538303131","1","1","2","151","2","right","2","out","Female","Right-handed","0","no","right","s","646.213584638","1016.04035217","24","red","1"
"97","85","18","794.474174255","1","1","2","152","3","right","2","in","Female","Right-handed","0","no","right","s","499.777898833","1560.80968614","24","red","0"
"97","86","18","794.316391962","1","1","2","153","3","left","0","in","Female","Right-handed","0","no","left","d","729.292557342","848.295466043","24","green","1"
"97","86","18","797.982506051","1","1","2","154","1","left","2","out","Female","Right-handed","0","no","left","s","522.861663252","1337.06356329","24","green","3"
"97","84","18","796.573894031","1","0","2","155","1","left","2","in","Female","Right-handed","0","no","left","d","608.553571627","880.356926937","24","green","0"
"97","84","18","800.764586282","1","1","2","156","2","left","2","out","Female","Right-handed","0","no","left","d","975.082658522","944.939125096","24","red","0"
"97","85","18","803.27387892","1","1","2","157","3","left","1","in","Female","Right-handed","0","no","left","d","585.569552262","1216.70303139","24","red","0"
"97","85","18","801.713656217","1","1","2","158","3","left","0","out","Female","Right-handed","0","no","left","s","510.359213687","968.250282458","24","green","3"
"97","83","18","802.005203238","1","0","2","159","1","right","0","in","Female","Right-handed","0","no","right","d","530.915996351","1097.00126591","24","red","2"
"97","83","18","799.317514235","1","1","2","160","2","left","3","in","Female","Right-handed","0","no","left","d","564.434504893","808.434647275","24","green","0"
"97","84","18","803.778067804","1","1","2","161","3","right","0","in","Female","Right-handed","0","no","right","s","679.1297741","1312.03396845","24","red","3"
"97","84","18","802.340270623","1","1","2","162","3","left","0","out","Female","Right-handed","0","no","left","d","741.580763541","736.573625822","24","green","1"
"97","84","18","805.857311972","1","1","2","163","1","right","0","in","Female","Right-handed","0","no","right","d","512.176754652","1416.07159068","24","green","1"
"97","85","18","811.780934582","1","1","2","164","2","right","3","in","Female","Right-handed","0","no","right","s","607.761384163","1560.77376509","24","red","2"
"97","85","18","807.783665108","1","1","2","165","0","left","0","in","Female","Right-handed","0","no","left","d","567.408575269","672.415424371","24","red","2"
"97","85","18","805.859370494","1","1","2","166","0","right","1","out","Female","Right-handed","0","no","right","s","610.932699696","816.053758434","24","red","0"
"98","86","18","804.702790202","1","1","2","167","0","right","2","in","Female","Right-handed","0","no","right","s","783.442577173","712.618134567","24","red","1"
"98","86","18","800.39957011","1","1","2","168","2","right","0","in","Female","Right-handed","0","no","right","s","394.208500511","776.268630463","24","green","3"
"98","86","18","799.91742353","1","1","2","169","1","right","0","out","Female","Right-handed","0","no","right","s","557.83882289","992.817073013","24","red","2"
"98","86","18","801.587336409","1","1","2","170","3","left","2","in","Female","Right-handed","0","no","left","d","928.353221971","848.49239036","24","red","0"
"98","87","18","809.131633223","1","1","2","171","1","right","0","out","Female","Right-handed","0","no","right","d","417.94365464","2000.01507404","24","red","3"
"98","87","18","808.864180795","1","1","2","172","3","right","2","out","Female","Right-handed","0","no","right","d","564.382868353","1024.46063102","24","red","3"
"98","87","18","806.680698368","1","1","2","173","1","left","1","out","Female","Right-handed","0","no","left","d","501.094790234","872.083539551","24","red","2"
"98","85","18","811.918544545","1","0","2","174","0","left","2","in","Female","Right-handed","0","no","left","s","849.769832683","1360.70602824","24","green","0"
"98","86","18","811.330411382","1","1","2","175","0","left","1","out","Female","Right-handed","0","no","left","s","571.236091433","984.377550718","24","red","0"
"98","86","18","810.111477512","1","1","2","176","1","right","0","out","Female","Right-handed","0","no","right","d","590.868227824","887.958398263","24","green","2"
"98","86","18","807.359311632","1","1","2","177","0","left","0","in","Female","Right-handed","0","no","left","d","465.49061581","824.472433655","24","red","3"
"98","86","18","805.461812387","1","1","2","178","0","left","2","out","Female","Right-handed","0","no","left","d","519.13838234","864.085333014","24","red","0"
"98","87","18","805.014263982","1","1","2","179","1","left","0","in","Female","Right-handed","0","no","left","d","658.6794717","896.748150815","24","red","2"
"98","87","18","803.176522939","1","1","2","180","3","right","1","out","Female","Right-handed","0","no","right","d","562.209324155","816.263832385","24","green","2"
"98","87","18","808.671626969","1","1","2","181","2","left","0","in","Female","Right-handed","0","no","left","d","461.819933553","1847.90642821","24","green","2"
"98","86","18","805.241712523","1","0","2","182","3","right","0","out","Female","Right-handed","0","no","right","d","411.178630544","760.275745415","24","green","2"
"98","84","18","810.375273213","1","0","2","183","2","left","0","out","Female","Right-handed","0","no","left","d","704.035890289","1584.07754585","24","red","1"
"98","85","18","808.833352247","1","1","2","184","0","left","0","out","Female","Right-handed","0","no","left","d","725.63534556","688.497791358","24","green","1"
"98","85","18","808.874399489","1","1","2","185","3","right","0","in","Female","Right-handed","0","no","right","s","631.300576089","991.948553361","24","green","1"
"98","85","18","808.734870173","1","1","2","186","1","left","2","in","Female","Right-handed","0","no","left","d","718.74652215","879.747231258","24","red","0"
"98","85","18","807.107783724","1","1","2","187","0","right","0","out","Female","Right-handed","0","no","right","d","477.28490748","912.39273001","24","green","2"
"98","85","18","809.35144487","1","1","2","188","1","right","0","in","Female","Right-handed","0","no","right","s","652.863148192","1279.95230199","24","red","3"
"98","84","18","815.417640913","1","0","2","189","0","right","3","out","Female","Right-handed","0","no","right","d","899.67218833","1592.56293159","24","red","2"
"98","84","18","816.535882959","1","1","2","190","2","right","1","out","Female","Right-handed","0","no","right","s","514.041121234","1280.0574993","24","green","2"
"98","85","18","812.84045629","1","1","2","191","3","left","2","out","Female","Right-handed","0","no","left","s","566.527547431","519.621071406","24","green","1"
"98","85","18","811.105462814","1","1","2","192","2","right","0","in","Female","Right-handed","0","no","right","d","501.212175062","864.219716226","24","green","3"
"98","85","18","809.333194677","1","1","2","193","3","left","3","in","Female","Right-handed","0","no","left","d","560.892753536","791.933415225","24","red","0"
"98","85","18","809.666642627","1","1","2","194","0","right","0","in","Female","Right-handed","0","no","right","s","685.526928108","984.490445466","24","red","1"
"98","85","18","807.599663789","1","1","2","195","3","right","0","out","Female","Right-handed","0","no","right","d","417.133506679","879.751079949","24","green","2"
"98","86","18","806.262787869","1","1","2","196","2","left","1","out","Female","Right-handed","0","no","left","d","660.461733001","743.511199136","24","green","0"
"98","86","18","803.280279363","1","1","2","197","0","left","0","out","Female","Right-handed","0","no","left","d","455.232269713","680.091945047","24","green","2"
"98","86","18","803.682225516","1","1","2","198","0","right","1","out","Female","Right-handed","0","no","right","s","639.828297368","1031.84753825","24","green","3"
"98","86","18","801.90469409","1","1","2","199","0","right","0","in","Female","Right-handed","0","no","right","s","595.486006991","720.363290107","24","red","1"
"98","86","18","797.473578237","1","1","2","200","2","right","2","in","Female","Right-handed","0","no","right","d","508.161935955","360.082220694","24","green","0"
"98","85","18","793.855880522","1","0","2","201","2","left","1","out","Female","Right-handed","0","no","left","s","579.535136698","407.63880359","24","green","3"
"97","85","18","793.442499241","0","1","2","202","2","right","0","out","Female","Right-handed","0","no","left","s","459.233938716","1058.20300459","24","red","2"
"97","86","18","790.814885864","1","1","2","203","2","left","0","in","Female","Right-handed","0","no","left","s","446.954712854","687.980784802","24","green","2"
"97","86","18","789.157244149","1","1","2","204","0","left","0","out","Female","Right-handed","0","no","left","d","581.556337187","711.6437761","24","red","3"
"97","86","18","788.457982608","1","1","2","205","2","left","0","out","Female","Right-handed","0","no","left","d","695.093794027","760.150663089","24","green","1"
"97","86","18","788.618952447","1","1","2","206","1","right","0","out","Female","Right-handed","0","no","right","d","709.859590395","895.709006116","24","green","1"
"97","86","18","788.675582715","1","1","2","207","1","left","0","out","Female","Right-handed","0","no","left","d","491.236386471","1096.19496664","24","red","3"
"97","86","18","788.371382516","1","1","2","208","0","left","3","out","Female","Right-handed","0","no","left","s","641.963996226","880.022732948","24","red","0"
"97","86","18","786.688905392","1","1","2","209","3","right","0","out","Female","Right-handed","0","no","right","s","491.528565763","775.638408493","24","red","2"
"97","87","18","784.12933272","1","1","2","210","0","right","0","out","Female","Right-handed","0","no","right","s","561.256454152","536.040839681","24","green","3"
"97","87","18","785.009315626","1","1","2","211","2","right","1","out","Female","Right-handed","0","no","right","s","445.803956361","1287.89149533","24","red","0"
"97","87","18","784.516913626","1","1","2","212","1","left","1","in","Female","Right-handed","0","no","left","d","620.259664254","856.20258702","24","green","0"
"97","87","18","787.156274781","1","1","2","213","3","left","0","out","Female","Right-handed","0","no","left","s","483.885400288","1591.90576884","24","green","3"
"100","100","18","570.600096427","1","1","3","214","2","left","0","out","Female","Right-handed","0","no","left","s","660.104126146","481.096066709","24","red","1"
"100","100","18","649.402860668","1","1","3","215","1","left","3","out","Female","Right-handed","0","no","left","s","695.729468309","760.68178151","24","green","2"
"100","100","18","678.344428772","1","1","3","216","3","left","0","in","Female","Right-handed","0","no","left","s","584.21417413","888.240955828","24","green","3"
"100","100","18","700.01012685","1","1","3","217","3","right","3","out","Female","Right-handed","0","no","right","d","594.03505316","935.979389003","24","red","2"
"100","80","18","734.010145772","1","0","3","218","0","left","2","out","Female","Right-handed","0","no","left","s","739.681117295","1000.33932563","24","green","1"
"100","83","18","725.597553605","1","1","3","219","1","right","2","out","Female","Right-handed","0","no","right","d","575.08028514","791.988900397","24","green","0"
"100","85","18","716.906988719","1","1","3","220","2","right","3","out","Female","Right-handed","0","no","right","d","632.7152882","696.811910602","24","green","1"
"100","87","18","748.137617866","1","1","3","221","2","left","2","out","Female","Right-handed","0","no","left","s","621.181424067","1312.32261972","24","red","3"
"100","88","18","734.95176191","1","1","3","222","1","right","0","out","Female","Right-handed","0","no","right","s","441.875412303","817.054416228","24","green","2"
"100","90","18","716.712107859","1","1","3","223","2","right","0","in","Female","Right-handed","0","no","right","d","464.610550087","640.499892703","24","green","2"
"100","81","18","714.657601691","1","0","3","224","3","right","0","in","Female","Right-handed","0","no","right","s","508.021779708","880.20330033","24","red","2"
"100","75","18","711.244688947","1","0","3","225","0","left","1","out","Female","Right-handed","0","no","left","d","530.714581953","816.690715554","24","red","2"
"100","76","18","734.167927003","1","1","3","226","3","right","2","out","Female","Right-handed","0","no","right","d","546.223494981","1472.27007238","24","red","0"
"100","71","18","745.221618438","1","0","3","227","3","left","3","out","Female","Right-handed","0","no","left","s","592.931122344","1184.90809185","24","green","1"
"100","73","18","737.36518247","1","1","3","228","3","right","0","out","Female","Right-handed","0","no","right","d","526.402452379","728.347705444","24","green","2"
"100","68","18","737.404560652","1","0","3","229","0","left","1","out","Female","Right-handed","0","no","left","d","764.021156181","711.969310592","24","green","0"
"100","70","18","753.916417863","1","1","3","230","3","right","0","out","Female","Right-handed","0","no","right","d","1011.53707138","1024.67519511","24","red","1"
"100","72","18","768.126142819","1","1","3","231","2","left","0","in","Female","Right-handed","0","no","left","s","627.163882426","1392.21905172","24","red","1"
"100","73","18","771.471803044","1","1","3","232","0","left","1","out","Female","Right-handed","0","no","left","d","694.73297993","968.654394266","24","green","3"
"100","75","18","783.66838264","1","1","3","233","2","left","1","in","Female","Right-handed","0","no","left","s","710.310848546","1320.49594139","24","red","2"
"100","76","18","785.273267775","1","1","3","234","0","right","0","out","Female","Right-handed","0","no","right","d","714.858710009","919.883230934","24","green","1"
"100","77","18","779.08161743","1","1","3","235","2","right","1","in","Female","Right-handed","0","no","right","d","553.546257492","744.567662885","24","green","3"
"100","73","18","808.299971212","1","0","3","236","3","right","1","out","Female","Right-handed","0","no","right","d","566.143961914","2336.06354689","24","red","2"
"100","70","18","800.314285123","1","0","3","237","1","left","0","out","Female","Right-handed","0","no","left","d","528.635009716","704.652000451","24","red","2"
"100","68","18","793.106160488","1","0","3","238","2","left","3","out","Female","Right-handed","0","no","left","d","552.088568511","688.13376996","24","red","0"
"100","69","18","787.07310725","1","1","3","239","2","right","0","in","Female","Right-handed","0","no","right","s","408.717076527","863.776476122","24","red","3"
"100","70","18","788.159644068","1","1","3","240","1","left","3","out","Female","Right-handed","0","no","left","d","560.394348984","1072.42485369","24","red","0"
"100","67","18","828.296066692","1","0","3","241","1","right","0","in","Female","Right-handed","0","no","right","d","2695.98187786","1127.97707721","24","green","2"
"100","68","18","827.141905095","1","1","3","242","0","left","0","out","Female","Right-handed","0","no","left","s","605.244344915","984.406415839","24","green","2"
"100","70","18","829.318081636","1","1","3","243","3","right","1","out","Female","Right-handed","0","no","right","s","752.958435158","1031.89596749","24","green","0"
"96","70","18","823.877915439","0","1","3","244","0","left","0","out","Female","Right-handed","0","no","right","s","438.661440567","882.684418466","24","red","1"
"96","71","18","833.574094897","1","1","3","245","1","right","0","out","Female","Right-handed","0","no","right","d","684.100028593","1584.21128761","24","green","1"
"96","72","18","837.09501847","1","1","3","246","1","left","1","in","Female","Right-handed","0","no","left","s","650.776199356","1248.75294627","24","red","2"
"97","73","18","836.060250048","1","1","3","247","0","right","3","in","Female","Right-handed","0","no","right","s","651.43721085","952.38857338","24","red","0"
"97","74","18","834.436570776","1","1","3","248","0","right","2","in","Female","Right-handed","0","no","right","s","558.758337575","999.704613467","24","red","0"
"97","75","18","833.188758233","1","1","3","249","1","right","0","out","Female","Right-handed","0","no","right","d","650.481775054","928.54886339","24","green","1"
"97","75","18","828.51054816","1","1","3","250","1","right","0","in","Female","Right-handed","0","no","right","d","495.989511081","824.200459989","24","red","3"
"97","76","18","824.459385249","1","1","3","251","0","right","0","in","Female","Right-handed","0","no","right","d","557.452992303","791.679722781","24","green","2"
"97","74","18","836.198859386","1","0","3","252","2","right","1","in","Female","Right-handed","0","no","right","s","500.345259032","2064.25249419","24","green","0"
"97","72","18","834.264319265","1","0","3","253","0","right","3","out","Female","Right-handed","0","no","right","d","701.834122359","815.800386714","24","red","1"
"97","73","18","832.38944622","1","1","3","254","0","right","3","out","Female","Right-handed","0","no","right","d","738.470064767","776.318984048","24","red","2"
"97","71","18","826.998560054","1","0","3","255","1","left","2","in","Female","Right-handed","0","no","left","d","611.951317987","599.993136537","24","red","1"
"97","72","18","830.596226689","1","1","3","256","2","right","0","out","Female","Right-handed","0","no","right","s","507.674756693","1455.72169399","24","green","2"
"97","72","18","830.07630686","1","1","3","257","1","right","1","out","Female","Right-handed","0","no","right","d","575.146033487","1040.29347497","24","red","0"
"97","73","18","826.991593223","1","1","3","258","2","right","2","out","Female","Right-handed","0","no","right","s","598.752898106","783.775488322","24","red","0"
"97","73","18","825.978039461","1","1","3","259","3","left","3","out","Female","Right-handed","0","no","left","d","568.271963391","992.464276962","24","green","0"
"97","74","18","822.464457896","1","1","3","260","2","right","0","out","Female","Right-handed","0","no","right","d","473.870804184","847.808607563","24","red","3"
"97","75","18","821.529530173","1","1","3","261","3","left","0","in","Female","Right-handed","0","no","left","d","459.605015989","1095.57083843","24","green","3"
"97","75","18","822.112938434","1","1","3","262","1","right","0","in","Female","Right-handed","0","no","right","s","660.099315282","1040.13375461","24","green","1"
"98","76","18","822.166536396","1","1","3","263","2","left","0","in","Female","Right-handed","0","no","left","s","713.820848265","935.764824855","24","red","2"
"98","76","18","823.393695346","1","1","3","264","0","left","3","in","Female","Right-handed","0","no","left","d","833.271807875","936.231477768","24","green","0"
"98","76","18","820.566031853","1","1","3","265","0","right","0","out","Female","Right-handed","0","no","right","d","480.798435106","871.911952388","24","red","2"
"98","77","18","819.149676625","1","1","3","266","3","left","2","in","Female","Right-handed","0","no","left","d","571.50421635","919.494193164","24","green","0"
"98","77","18","815.529369297","1","1","3","267","2","right","3","out","Female","Right-handed","0","no","right","d","567.110943783","680.195218069","24","red","0"
"98","76","18","821.287668152","1","0","3","268","0","right","0","out","Female","Right-handed","0","no","right","d","664.72864052","1599.74297206","24","red","2"
"98","75","18","821.092836757","1","0","3","269","1","left","0","in","Female","Right-handed","0","no","left","s","469.377786445","1151.37643367","24","green","3"
"98","75","18","818.675938751","1","1","3","270","0","left","0","out","Female","Right-handed","0","no","left","d","438.794220157","927.865080594","24","red","3"
"98","74","18","816.671917315","1","0","3","271","1","left","0","in","Female","Right-handed","0","no","left","d","525.531687657","879.353703349","24","green","1"
"98","74","18","815.065695807","1","1","3","272","1","left","3","out","Female","Right-handed","0","no","left","d","915.972005925","527.837690723","24","red","1"
"98","75","18","814.950744327","1","1","3","273","3","right","0","in","Female","Right-handed","0","no","right","d","512.68253586","1103.65467815","24","red","2"
"98","73","18","812.726560699","1","0","3","274","3","left","0","out","Female","Right-handed","0","no","left","s","454.366315797","904.184770188","24","red","3"
"98","74","18","813.065382131","1","1","3","275","2","right","0","in","Female","Right-handed","0","no","right","s","563.745590451","1103.72138862","24","green","3"
"98","73","18","816.811236415","1","0","3","276","1","right","0","in","Female","Right-handed","0","no","right","d","538.503355929","1559.6050481","24","green","3"
"98","73","18","814.790503105","1","1","3","277","1","left","0","in","Female","Right-handed","0","no","left","d","430.972090922","943.99651821","24","green","2"
"98","73","18","822.131933028","1","1","3","278","1","left","1","out","Female","Right-handed","0","no","left","s","552.398387576","2031.56850865","24","green","0"
"98","74","18","826.03373583","1","1","3","279","3","left","1","out","Female","Right-handed","0","no","left","d","559.143526712","1600.15830916","24","green","0"
"98","73","18","837.258900716","1","0","3","280","2","left","1","in","Female","Right-handed","0","no","left","d","612.564862357","2543.67470409","24","green","0"
"98","72","18","844.123058796","1","0","3","281","0","right","1","in","Female","Right-handed","0","no","right","s","648.145623913","1959.89767631","24","red","0"
"98","72","18","847.731512984","1","1","3","282","3","right","0","in","Female","Right-handed","0","no","right","d","1378.61587858","807.596917031","24","red","1"
"98","71","18","851.037632657","1","0","3","283","0","right","0","out","Female","Right-handed","0","no","right","d","678.207372897","1480.11240724","24","green","1"
"98","71","18","848.801622158","1","1","3","284","1","left","2","out","Female","Right-handed","0","no","left","s","520.793957869","863.767816569","24","red","0"
"98","70","18","850.545133103","1","0","3","285","3","left","0","in","Female","Right-handed","0","no","left","d","1101.36727704","847.301543399","24","red","1"
"98","71","18","849.152167234","1","1","3","286","2","right","0","in","Female","Right-handed","0","no","right","d","593.994642026","903.722607356","24","green","1"
"98","70","18","846.157385613","1","0","3","287","0","right","0","in","Female","Right-handed","0","no","right","s","511.534024437","743.542630109","24","green","3"
"98","69","18","845.849332362","1","0","3","288","2","left","0","in","Female","Right-handed","0","no","left","d","629.981118953","1016.12566464","24","red","2"
"98","69","18","844.235602514","1","1","3","289","0","left","2","in","Female","Right-handed","0","no","left","d","662.619241048","783.792486647","24","green","0"
"98","68","18","842.449081983","1","0","3","290","0","right","0","in","Female","Right-handed","0","no","right","d","478.106280789","935.240762483","24","red","3"
"98","69","18","841.845670143","1","1","3","291","0","left","2","in","Female","Right-handed","0","no","left","s","566.812350007","1023.95356691","24","green","3"
"98","69","18","840.568386702","1","1","3","292","0","left","0","out","Female","Right-handed","0","no","left","s","474.469595239","1007.41096149","24","green","3"
"98","70","18","844.205203081","1","1","3","293","1","right","2","in","Female","Right-handed","0","no","right","d","559.904283262","1703.12311075","24","green","3"
"98","70","18","842.96788777","1","1","3","294","3","left","2","in","Female","Right-handed","0","no","left","d","712.310881237","775.654444587","24","green","1"
"98","70","18","843.696357254","1","1","3","295","1","left","1","out","Female","Right-handed","0","no","left","s","566.229915887","1239.174855","24","green","3"
"98","71","18","844.251360987","1","1","3","296","2","left","0","out","Female","Right-handed","0","no","left","d","579.703516618","1199.81981744","24","red","3"
"98","71","18","843.186502375","1","1","3","297","3","left","0","in","Female","Right-handed","0","no","left","s","686.220011907","823.386463337","24","red","1"
"98","71","18","842.607160326","1","1","3","298","1","left","3","out","Female","Right-handed","0","no","left","s","579.96009558","1007.92476081","24","green","0"
"98","72","18","842.239860313","1","1","3","299","2","left","3","in","Female","Right-handed","0","no","left","d","750.435943657","871.602774772","24","red","2"
"98","72","18","841.612038485","1","1","3","300","2","right","0","in","Female","Right-handed","0","no","right","d","696.149295603","879.089427006","24","red","1"
"98","72","18","841.125087354","1","1","3","301","2","left","2","in","Female","Right-handed","0","no","left","d","717.779219616","879.741458222","24","red","0"
"98","71","18","842.41884829","1","0","3","302","2","right","2","in","Female","Right-handed","0","no","right","d","777.256138565","1135.28348278","24","red","1"
"98","72","18","840.495979886","1","1","3","303","3","right","2","out","Female","Right-handed","0","no","right","d","546.908881457","791.81250243","24","green","3"
"98","72","18","838.65891673","1","1","3","304","3","right","0","in","Female","Right-handed","0","no","right","s","491.391296033","855.255169387","24","green","2"
"98","72","18","838.620118822","1","1","3","305","0","right","0","out","Female","Right-handed","0","no","right","s","743.059940985","927.119077358","24","green","1"
"98","72","18","838.51303933","1","0","3","306","3","left","3","in","Female","Right-handed","0","no","left","d","745.708156261","911.615295801","24","green","0"
"98","72","18","837.313273918","1","1","3","307","3","left","0","in","Female","Right-handed","0","no","left","d","532.238019281","919.23216189","24","red","3"
"98","71","18","840.103434389","1","0","3","308","3","left","1","in","Female","Right-handed","0","no","left","d","533.852542168","1670.90449523","24","red","3"
"98","71","18","840.689738401","1","1","3","309","1","right","0","in","Female","Right-handed","0","no","right","s","489.403130079","1303.37410909","24","red","3"
"100","100","18","672.108972911","1","1","4","310","0","left","1","in","Female","Right-handed","0","no","left","d","608.118028846","736.099916976","24","red","0"
"100","100","18","649.391314611","1","1","4","311","3","left","0","in","Female","Right-handed","0","no","left","d","461.704473069","791.642839555","24","green","3"
"100","100","18","701.17717342","1","1","4","312","0","right","0","out","Female","Right-handed","0","no","right","s","769.231632759","840.266149316","24","green","2"
"100","100","18","695.720207419","1","1","4","313","3","left","0","in","Female","Right-handed","0","no","left","s","582.794651214","775.903967617","24","red","3"
"100","100","18","702.880964376","1","1","4","314","1","left","1","out","Female","Right-handed","0","no","left","s","606.554821774","856.493162632","24","red","2"
"100","100","18","737.319629023","1","1","4","315","1","right","0","in","Female","Right-handed","0","no","right","d","522.946975718","1296.0789288","24","green","3"
"100","85","18","768.728371481","1","0","4","316","1","left","3","out","Female","Right-handed","0","no","left","d","1114.6965521","799.665100349","24","green","0"
"100","75","18","766.601899191","1","0","4","317","1","left","0","out","Female","Right-handed","0","no","left","d","655.240993365","848.192192963","24","green","1"
"100","77","18","754.180926839","1","1","4","318","0","left","1","out","Female","Right-handed","0","no","left","s","621.73916254","687.887133507","24","red","2"
"100","80","18","765.851702509","1","1","4","319","0","right","1","out","Female","Right-handed","0","no","right","d","582.290794351","1159.48657272","24","red","3"
"100","81","18","761.175316907","1","1","4","320","0","right","0","out","Female","Right-handed","0","no","right","s","668.967003643","759.855918121","24","green","1"
"100","83","18","784.632809366","1","1","4","321","3","left","1","in","Female","Right-handed","0","no","left","d","1101.64983454","983.680618287","24","red","0"
"100","84","18","777.404991352","1","1","4","322","1","left","0","in","Female","Right-handed","0","no","left","d","565.165113367","816.177237022","24","red","2"
"100","85","18","768.395941418","1","1","4","323","2","right","1","out","Female","Right-handed","0","no","right","d","518.80996133","783.746623201","24","green","0"
"100","86","18","791.861070638","1","1","4","324","3","right","0","out","Female","Right-handed","0","no","right","s","552.320130926","1688.42562853","24","green","2"
"100","87","18","788.085813783","1","1","4","325","1","left","0","out","Female","Right-handed","0","no","left","s","550.991052121","911.922869796","24","green","3"
"100","88","18","796.525706294","1","1","4","326","0","right","0","in","Female","Right-handed","0","no","right","d","559.637441183","1303.49053175","24","red","2"
"94","88","18","792.307779888","0","1","4","327","2","right","3","in","Female","Right-handed","0","no","left","s","694.1951263","747.01093568","24","red","1"
"94","84","18","796.457965086","1","0","4","328","3","right","3","out","Female","Right-handed","0","no","right","d","710.54850478","1031.77409252","24","green","1"
"95","85","18","797.67663775","1","1","4","329","2","left","0","in","Female","Right-handed","0","no","left","d","681.28599925","960.376837465","24","green","1"
"95","85","18","788.442070947","1","1","4","330","3","left","1","out","Female","Right-handed","0","no","left","d","455.702450592","751.79901917","24","green","3"
"95","81","18","790.126013491","1","0","4","331","1","right","2","out","Female","Right-handed","0","no","right","d","523.539673071","1127.4379408","24","green","0"
"95","78","18","802.422821794","1","0","4","332","0","left","3","in","Female","Right-handed","0","no","left","s","649.984332675","1495.92087622","24","red","1"
"95","79","18","797.136989467","1","1","4","333","2","right","0","in","Female","Right-handed","0","no","right","s","519.420619123","831.705072778","24","red","1"
"96","80","18","791.702025917","1","1","4","334","2","left","0","in","Female","Right-handed","0","no","left","d","522.320602438","800.20519899","24","green","1"
"96","80","18","782.167904164","1","1","4","335","2","left","0","in","Female","Right-handed","0","no","left","d","551.814991224","535.814729461","24","green","3"
"96","81","18","787.586083269","1","1","4","336","1","left","1","out","Female","Right-handed","0","no","left","s","913.461060438","943.456419569","24","red","0"
"96","82","18","782.568416198","1","1","4","337","1","right","0","out","Female","Right-handed","0","no","right","d","494.102052355","800.08075817","24","red","3"
"96","79","18","778.105298685","1","0","4","338","3","left","3","out","Female","Right-handed","0","no","left","d","546.569555823","759.706460871","24","red","2"
"96","80","18","772.293437128","1","1","4","339","2","right","0","out","Female","Right-handed","0","no","right","s","415.266894968","792.232008942","24","red","3"
"96","80","18","773.3261823","1","1","4","340","1","left","3","in","Female","Right-handed","0","no","left","d","632.878215809","975.738859095","24","red","1"
"96","81","18","778.519564265","1","1","4","341","0","right","0","in","Female","Right-handed","0","no","right","s","639.49410338","1239.53470698","24","green","1"
"96","81","18","785.895000304","1","1","4","342","0","left","0","in","Female","Right-handed","0","no","left","d","523.973612115","1519.84429505","24","red","3"
"97","82","18","781.419339143","1","1","4","343","3","right","2","out","Female","Right-handed","0","no","right","d","555.72204676","711.722994864","24","green","0"
"97","82","18","781.639097644","1","1","4","344","3","left","1","out","Female","Right-handed","0","no","left","s","619.148677564","959.073095815","24","green","2"
"97","83","18","780.782419434","1","1","4","345","2","left","3","in","Female","Right-handed","0","no","left","s","557.832408405","943.764955737","24","green","0"
"94","81","18","781.784565883","0","0","4","346","3","right","0","out","Female","Right-handed","0","no","left","d","569.417588296","1066.30608777","24","red","2"
"94","81","18","778.104992806","1","1","4","347","1","left","1","out","Female","Right-handed","0","no","left","s","524.015947653","759.905630257","24","green","3"
"94","82","18","779.668025689","1","1","4","348","1","left","2","in","Female","Right-handed","0","no","left","s","670.69987359","1007.42667692","24","green","0"
"95","80","18","784.478458437","1","0","4","349","0","right","0","in","Female","Right-handed","0","no","right","d","968.976400851","975.194270373","24","green","1"
"95","80","18","784.23904742","1","1","4","350","0","left","0","out","Female","Right-handed","0","no","left","d","613.68611228","935.639101197","24","red","2"
"95","80","18","789.263211323","1","1","4","351","2","right","2","in","Female","Right-handed","0","no","right","d","592.285826337","1398.22203637","24","red","3"
"95","81","18","799.347117775","1","1","4","352","3","left","0","out","Female","Right-handed","0","no","left","d","605.880019255","1839.86235823","24","red","1"
"95","81","18","796.130948001","1","1","4","353","3","right","0","in","Female","Right-handed","0","no","right","s","508.355973754","807.315321697","24","green","2"
"95","82","18","795.004803908","1","1","4","354","0","left","3","in","Female","Right-handed","0","no","left","s","796.030339145","694.878588489","24","red","0"
"95","82","18","801.808674341","1","1","4","355","2","left","0","in","Female","Right-handed","0","no","left","d","528.469516314","1687.49617139","24","red","3"
"95","82","18","801.209865846","1","1","4","356","0","left","1","in","Female","Right-handed","0","no","left","s","508.205875056","1039.12347509","24","green","0"
"95","83","18","801.938690307","1","1","4","357","3","left","1","out","Female","Right-handed","0","no","left","d","584.749782574","1087.63709734","24","green","0"
"95","83","18","799.416575527","1","1","4","358","0","right","0","in","Female","Right-handed","0","no","right","s","557.360944629","799.349187582","24","green","3"
"96","84","18","795.447555429","1","1","4","359","2","left","2","out","Female","Right-handed","0","no","left","d","441.921275808","760.009865451","24","red","1"
"96","84","18","795.909759659","1","1","4","360","2","left","0","out","Female","Right-handed","0","no","left","s","454.531488533","1183.50845377","24","green","1"
"96","82","18","794.656025978","1","0","4","361","2","right","3","out","Female","Right-handed","0","no","right","d","678.18396003","783.247256419","24","red","2"
"96","83","18","791.14588432","1","1","4","362","1","right","0","in","Female","Right-handed","0","no","right","s","529.511868197","687.725168071","24","green","1"
"96","83","18","787.651778164","1","1","4","363","2","right","0","out","Female","Right-handed","0","no","right","d","445.384129067","759.544174711","24","green","2"
"96","83","18","785.949650643","1","1","4","364","1","left","0","in","Female","Right-handed","0","no","left","s","565.02046698","823.049062048","24","green","1"
"96","83","18","786.898010863","1","1","4","365","0","right","2","in","Female","Right-handed","0","no","right","s","582.64711831","1095.46852752","24","red","3"
"96","82","18","785.463608828","1","0","4","366","3","left","0","in","Female","Right-handed","0","no","left","d","539.170140342","871.104049438","24","green","3"
"96","82","18","782.899376348","1","1","4","367","0","left","0","in","Female","Right-handed","0","no","left","d","537.766974419","735.709275526","24","green","1"
"96","83","18","782.87210762","1","1","4","368","2","left","2","in","Female","Right-handed","0","no","left","d","675.322784286","887.258258532","24","red","0"
"96","83","18","782.816000731","1","1","4","369","3","right","0","out","Female","Right-handed","0","no","right","d","543.987088953","1015.02429962","24","red","2"
"96","83","18","788.114966117","1","1","4","370","0","left","3","in","Female","Right-handed","0","no","left","d","1308.45982413","903.645954386","24","red","2"
"96","83","18","786.680300559","1","1","4","371","0","right","0","out","Female","Right-handed","0","no","right","s","535.053973028","863.277430122","24","green","3"
"96","84","18","783.949251804","1","1","4","372","1","right","0","out","Female","Right-handed","0","no","right","d","557.582885434","671.665572503","24","green","1"
"96","84","18","788.681194653","1","1","4","373","2","right","3","out","Female","Right-handed","0","no","right","d","1182.29194899","991.295239248","24","red","0"
"96","84","18","786.622399236","1","1","4","374","1","left","3","out","Female","Right-handed","0","no","left","d","638.814489939","670.904495229","24","red","0"
"96","84","18","784.597165306","1","1","4","375","1","left","0","out","Female","Right-handed","0","no","left","d","522.450816177","783.463103464","24","red","2"
"97","85","18","788.381218819","1","1","4","376","3","left","0","out","Female","Right-handed","0","no","left","d","901.133084612","1175.12441677","24","green","1"
"97","83","18","802.41798233","1","0","4","377","0","right","0","out","Female","Right-handed","0","no","right","None","485.551559657","3000.21071546","24","red","2"
"97","84","18","810.592480664","1","1","4","378","1","right","0","in","Female","Right-handed","0","no","right","s","653.906782973","2079.00995173","24","red","3"
"97","82","18","809.393322341","1","0","4","379","1","right","2","in","Female","Right-handed","0","no","right","s","469.635006855","983.667789318","24","green","3"
"97","83","18","805.144259716","1","1","4","380","1","right","0","in","Female","Right-handed","0","no","right","s","512.176754652","503.24299722","24","red","2"
"97","83","18","802.854982198","1","1","4","381","3","left","3","out","Female","Right-handed","0","no","left","d","665.855022031","614.777534851","24","red","0"
"97","83","18","799.158708462","1","1","4","382","0","right","2","in","Female","Right-handed","0","no","right","d","530.455437198","535.59856175","24","green","0"
"97","83","18","798.535086904","1","1","4","383","3","left","0","out","Female","Right-handed","0","no","left","s","691.078654607","814.942771685","24","green","1"
"97","84","18","797.096800921","1","1","4","384","0","left","2","in","Female","Right-handed","0","no","left","s","541.655748733","839.671527676","24","green","1"
"97","84","18","796.086398294","1","1","4","385","3","left","2","out","Female","Right-handed","0","no","left","s","577.224002103","863.388400467","24","red","1"
"97","83","18","795.537801359","1","0","4","386","1","left","1","in","Female","Right-handed","0","no","left","s","540.818980662","966.869887838","24","red","0"
"97","83","18","794.741782548","1","1","4","387","0","right","0","out","Female","Right-handed","0","no","right","s","523.452115478","943.444552773","24","green","3"
"97","83","18","798.176341749","1","1","4","388","2","right","0","out","Female","Right-handed","0","no","right","d","549.03944867","1583.10447028","24","red","2"
"97","83","18","797.395248847","1","1","4","389","2","right","0","out","Female","Right-handed","0","no","right","s","472.665524634","998.712294502","24","red","2"
"97","83","18","795.818752631","1","1","4","390","1","right","3","out","Female","Right-handed","0","no","right","d","588.161320135","751.236790617","24","red","2"
"97","84","18","794.811409367","1","1","4","391","0","right","3","out","Female","Right-handed","0","no","right","d","531.765272666","894.667937187","24","green","0"
"97","84","18","793.372904115","1","1","4","392","1","left","2","out","Female","Right-handed","0","no","left","s","503.39245447","847.438492463","24","red","1"
"97","83","18","792.374595409","1","0","4","393","2","right","1","in","Female","Right-handed","0","no","right","s","500.011706376","919.018239249","24","green","0"
"97","83","18","792.006470392","1","1","4","394","0","right","2","in","Female","Right-handed","0","no","right","d","611.567732529","910.600205476","24","red","0"
"97","83","18","790.746899906","1","1","4","395","2","right","0","out","Female","Right-handed","0","no","right","s","488.07373055","879.293086531","24","red","2"
"97","83","18","789.367463757","1","1","4","396","2","left","2","out","Female","Right-handed","0","no","left","s","590.814987663","750.656922231","24","green","0"
"97","84","18","790.022035246","1","1","4","397","3","left","2","in","Female","Right-handed","0","no","left","s","455.478264717","1238.46124485","24","green","3"
"97","84","18","788.33065251","1","1","4","398","2","right","1","in","Female","Right-handed","0","no","right","d","591.996854346","686.981089122","24","green","2"
"97","84","18","786.356688323","1","1","4","399","1","right","0","in","Female","Right-handed","0","no","right","d","478.635154082","742.712597304","24","red","2"
"97","83","18","786.376521909","1","0","4","400","3","right","2","in","Female","Right-handed","0","no","right","d","689.187988697","887.135100667","24","red","0"
"97","83","18","785.925556944","1","1","4","401","2","right","1","in","Female","Right-handed","0","no","right","s","450.834827672","1038.94066258","24","red","3"
"97","83","18","787.661605451","1","1","4","402","2","left","0","out","Female","Right-handed","0","no","left","d","584.254585323","1310.50155085","24","green","3"
"97","84","18","788.740266609","1","1","4","403","3","right","3","in","Female","Right-handed","0","no","right","d","851.001732226","927.109776356","24","green","0"
"97","84","18","789.01191642","1","1","4","404","3","right","0","in","Female","Right-handed","0","no","right","d","606.597477978","1022.49651938","24","green","3"
"97","84","18","789.216675369","1","1","4","405","3","right","0","in","Female","Right-handed","0","no","right","s","642.176315305","975.16123578","24","red","1"
"100","100","18","684.738749726","1","1","5","406","3","right","3","out","Female","Right-handed","0","no","right","d","601.225998253","768.251501198","24","red","0"
"100","100","18","760.041376547","1","1","5","407","1","right","0","out","Female","Right-handed","0","no","right","s","494.855111465","1175.83289527","24","red","3"
"100","100","18","714.988656526","1","1","5","408","2","left","0","in","Female","Right-handed","0","no","left","d","538.371217728","711.395215243","24","red","3"
"100","100","18","726.641335365","1","1","5","409","3","left","3","in","Female","Right-handed","0","no","left","d","787.07669687","736.122046888","24","green","1"
"100","100","18","711.621357489","1","1","5","410","0","right","0","out","Female","Right-handed","0","no","right","d","559.57490002","743.507991952","24","red","3"
"100","100","18","713.056964683","1","1","5","411","3","right","0","in","Female","Right-handed","0","no","right","s","457.278486632","983.191514679","24","red","3"
"100","100","18","702.811252791","1","1","5","412","3","right","3","in","Female","Right-handed","0","no","right","d","578.829865379","703.844097501","24","green","2"
"100","100","18","748.595130161","1","1","5","413","3","right","3","in","Female","Right-handed","0","no","right","s","738.59707138","1399.56747211","24","red","0"
"100","100","18","741.649255826","1","1","5","414","1","left","0","out","Female","Right-handed","0","no","left","s","684.003170056","688.161352242","24","green","1"
"100","100","18","743.302857102","1","1","5","415","2","right","2","in","Female","Right-handed","0","no","right","s","756.603138812","759.767398355","24","red","1"
"100","100","18","744.300237695","1","1","5","416","0","right","0","in","Female","Right-handed","0","no","right","s","813.249671541","695.298415725","24","red","1"
"100","100","18","727.177291335","1","1","5","417","2","right","0","out","Female","Right-handed","0","no","right","s","693.827897776","383.821864962","24","green","1"
"100","92","18","714.190223225","1","0","5","418","1","right","1","out","Female","Right-handed","0","no","right","s","685.267141962","431.423669856","24","red","2"
"100","92","18","715.566833474","1","1","5","419","1","left","3","in","Female","Right-handed","0","no","left","d","786.892922246","680.032611184","24","green","0"
"100","93","18","699.804176831","1","1","5","420","1","left","0","out","Female","Right-handed","0","no","left","d","478.651831741","479.602135892","24","green","2"
"100","93","18","697.890273786","1","1","5","421","2","right","3","in","Female","Right-handed","0","no","right","d","475.087309023","863.276147225","24","green","0"
"100","88","18","700.589629691","1","0","5","422","3","left","2","in","Female","Right-handed","0","no","left","d","727.844490088","759.714158252","24","green","0"
"100","88","18","693.305741837","1","1","5","423","0","left","2","out","Female","Right-handed","0","no","left","s","467.46017976","671.49911687","24","red","0"
"100","84","18","696.954430118","1","0","5","424","0","right","3","out","Female","Right-handed","0","no","right","d","486.06600042","1039.19563792","24","green","0"
"100","85","18","702.537477364","1","1","5","425","0","right","2","in","Female","Right-handed","0","no","right","d","481.537061743","1135.69368835","24","green","0"
"100","80","18","699.501308319","1","0","5","426","2","left","3","out","Female","Right-handed","0","no","left","d","486.25651031","791.299344506","24","green","2"
"100","77","18","719.606542638","1","0","5","427","0","left","0","in","Female","Right-handed","0","no","left","d","1579.80646897","703.826457728","24","red","1"
"100","78","18","709.291526052","1","1","5","428","3","right","0","out","Female","Right-handed","0","no","right","s","533.37787115","431.34445115","24","green","2"
"100","79","18","699.837390439","1","1","5","429","2","left","1","out","Female","Right-handed","0","no","left","s","469.836421311","494.94812137","24","green","3"
"100","80","18","706.745921763","1","1","5","430","3","left","1","in","Female","Right-handed","0","no","left","d","601.52459197","1143.57675513","24","green","0"
"100","80","18","717.420403857","1","1","5","431","2","left","0","in","Female","Right-handed","0","no","left","d","633.294194355","1335.27071803","24","green","1"
"100","81","18","721.00742199","1","1","5","432","1","right","0","out","Female","Right-handed","0","no","right","d","444.729532115","1183.81025479","24","green","3"
"100","82","18","719.410506033","1","1","5","433","1","right","1","out","Female","Right-handed","0","no","right","s","457.346159325","895.241391088","24","red","3"
"100","82","18","713.241079428","1","1","5","434","1","right","1","in","Female","Right-handed","0","no","right","d","553.917976154","527.076292783","24","green","0"
"100","83","18","710.068055426","1","1","5","435","1","right","2","in","Female","Right-handed","0","no","right","s","500.508507364","735.592211364","24","green","1"
"100","83","18","707.668318442","1","1","5","436","0","right","0","out","Female","Right-handed","0","no","right","s","512.155907578","759.196510306","24","red","2"
"100","84","18","701.764395044","1","1","5","437","2","left","0","in","Female","Right-handed","0","no","left","s","510.693407792","526.792131597","24","green","3"
"100","84","18","696.966552909","1","1","5","438","0","right","0","in","Female","Right-handed","0","no","right","d","431.393842562","655.477366643","24","red","3"
"100","85","18","702.982794141","1","1","5","439","0","right","0","in","Female","Right-handed","0","no","right","d","644.06666049","1158.97084906","24","red","1"
"100","82","18","695.85903151","1","0","5","440","3","right","2","in","Female","Right-handed","0","no","right","s","428.610923409","478.691280703","24","green","3"
"100","83","18","693.537086045","1","1","5","441","1","left","0","out","Female","Right-handed","0","no","left","s","513.311154267","711.226835323","24","green","3"
"100","83","18","688.395220447","1","1","5","442","2","right","0","out","Female","Right-handed","0","no","right","d","479.825038812","526.751079015","24","red","3"
"100","84","18","692.397942908","1","1","5","443","2","left","2","out","Female","Right-handed","0","no","left","d","545.572105213","1135.42524271","24","red","0"
"100","84","18","694.903946188","1","1","5","444","1","left","0","out","Female","Right-handed","0","no","left","d","613.172954414","967.091187194","24","red","1"
"100","85","18","692.361316688","1","1","5","445","2","left","0","in","Female","Right-handed","0","no","left","d","443.655428593","742.742103816","24","green","2"
"100","85","18","699.300718394","1","1","5","446","2","left","2","in","Female","Right-handed","0","no","left","s","722.402771818","1231.35080142","24","green","0"
"100","85","18","698.388553777","1","1","5","447","0","left","1","out","Female","Right-handed","0","no","left","s","563.177268137","758.80234089","24","red","0"
"100","83","18","709.486338915","1","0","5","448","3","left","2","in","Female","Right-handed","0","no","left","d","919.704908563","1431.48172082","24","red","0"
"100","84","18","712.394411577","1","1","5","449","1","right","0","in","Female","Right-handed","0","no","right","s","851.984429464","822.898642626","24","red","2"
"100","84","18","711.920628308","1","1","5","450","3","right","0","in","Female","Right-handed","0","no","right","d","542.585526593","839.562802343","24","green","2"
"100","84","18","713.68949449","1","1","5","451","0","right","0","out","Female","Right-handed","0","no","right","d","571.337119385","1015.23982594","24","green","3"
"100","85","18","717.671616823","1","1","5","452","2","left","0","in","Female","Right-handed","0","no","left","s","506.87519263","1294.82329573","24","red","2"
"100","85","18","721.613427476","1","1","5","453","1","right","3","out","Female","Right-handed","0","no","right","s","518.354533706","1295.40252261","24","green","2"
"100","85","18","724.752419502","1","1","5","454","0","left","0","out","Female","Right-handed","0","no","left","d","927.831725276","823.016348237","24","green","1"
"100","86","18","725.918230222","1","1","5","455","3","left","1","in","Female","Right-handed","0","no","left","s","583.568236674","982.517674274","24","red","3"
"100","86","18","731.618542806","1","1","5","456","0","right","2","in","Female","Right-handed","0","no","right","d","466.114102572","1567.15424149","24","green","1"
"100","86","18","729.99476024","1","1","5","457","1","left","3","in","Female","Right-handed","0","no","left","d","631.667483947","662.696214742","24","green","1"
"100","86","18","731.613592117","1","1","5","458","2","left","1","out","Female","Right-handed","0","no","left","d","888.312156487","743.273542961","24","green","0"
"100","87","18","729.06465056","1","1","5","459","3","left","2","in","Female","Right-handed","0","no","left","d","516.921861097","671.019635047","24","green","1"
"100","87","18","728.201131869","1","1","5","460","3","right","0","out","Female","Right-handed","0","no","right","d","604.607387737","758.534857363","24","red","3"
"100","87","18","726.746349466","1","1","5","461","2","left","0","in","Female","Right-handed","0","no","left","d","518.30321789","775.163416693","24","green","2"
"100","87","18","729.026902542","1","1","5","462","1","right","0","in","Female","Right-handed","0","no","right","d","826.755665301","886.720084236","24","red","1"
"100","86","18","734.108690326","1","0","5","463","1","left","1","out","Female","Right-handed","0","no","left","s","648.26076373","1399.2804244","24","red","0"
"100","86","18","735.671601394","1","1","5","464","3","left","0","out","Female","Right-handed","0","no","left","s","973.751976038","678.888910625","24","red","1"
"100","86","18","731.999927408","1","1","5","465","1","left","0","in","Female","Right-handed","0","no","left","d","576.376329409","454.365995072","24","red","2"
"100","86","18","732.377369509","1","1","5","466","3","right","1","out","Female","Right-handed","0","no","right","s","943.051345646","566.996445472","24","red","2"
"100","87","18","729.083386071","1","1","5","467","0","right","0","out","Female","Right-handed","0","no","right","d","649.736733991","406.56405862","24","green","2"
"100","87","18","730.387940664","1","1","5","468","1","right","2","out","Female","Right-handed","0","no","right","s","528.188883152","1094.3517678","24","red","0"
"100","87","18","725.824950853","1","1","5","469","3","right","0","in","Female","Right-handed","0","no","right","s","421.878613182","454.834572331","24","green","2"
"100","86","18","723.10479643","1","0","5","470","1","right","0","out","Female","Right-handed","0","no","right","d","395.45836061","702.571466041","24","red","3"
"100","84","18","721.00084742","1","0","5","471","2","left","2","out","Female","Right-handed","0","no","left","s","442.191325128","726.296998444","24","red","3"
"100","83","18","720.786312632","1","0","5","472","1","left","3","out","Female","Right-handed","0","no","left","d","854.573952267","558.680081042","24","red","0"
"100","83","18","718.088923105","1","1","5","473","0","left","1","in","Female","Right-handed","0","no","left","s","420.282050793","654.445598717","24","red","3"
"100","84","18","717.145885677","1","1","5","474","0","left","2","in","Female","Right-handed","0","no","left","d","659.036757832","647.001923411","24","red","3"
"100","82","18","717.572025255","1","0","5","475","0","right","0","out","Female","Right-handed","0","no","right","s","479.480260925","1014.47105128","24","red","2"
"100","83","18","726.108053814","1","1","5","476","3","right","0","in","Female","Right-handed","0","no","right","s","480.173024","2167.08708194","24","red","3"
"100","81","18","727.149354966","1","0","5","477","0","left","3","in","Female","Right-handed","0","no","left","s","571.535968047","1030.62750545","24","red","2"
"100","82","18","723.999437424","1","1","5","478","1","right","2","in","Female","Right-handed","0","no","right","d","404.268318671","590.142430156","24","green","3"
"100","81","18","724.091230173","1","0","5","479","2","left","0","out","Female","Right-handed","0","no","left","d","462.740410469","998.843791254","24","red","2"
"100","81","18","724.955020111","1","1","5","480","2","right","3","in","Female","Right-handed","0","no","right","d","531.410872936","1046.340078","24","green","0"
"100","80","18","727.567849047","1","0","5","481","0","left","3","out","Female","Right-handed","0","no","left","d","583.942521189","1263.11751729","24","green","0"
"100","80","18","728.625604212","1","1","5","482","3","left","0","out","Female","Right-handed","0","no","left","d","819.619243324","798.410750169","24","green","1"
"100","79","18","729.509960735","1","0","5","483","3","right","0","in","Female","Right-handed","0","no","right","s","837.130434113","758.08039197","24","red","1"
"100","79","18","727.34783935","1","1","5","484","1","right","0","out","Female","Right-handed","0","no","right","s","462.618535443","654.786207189","24","green","2"
"100","80","18","727.149311534","1","1","5","485","3","left","0","in","Female","Right-handed","0","no","left","s","528.518587002","894.412641122","24","red","3"
"100","80","18","724.413402274","1","1","5","486","0","right","1","in","Female","Right-handed","0","no","right","s","595.941434556","415.139888413","24","green","2"
"100","80","18","726.079217302","1","1","5","487","0","left","1","out","Female","Right-handed","0","no","left","s","739.569505444","982.450963755","24","green","0"
"100","80","18","725.050534938","1","1","5","488","2","left","1","out","Female","Right-handed","0","no","left","s","659.246831841","622.150330222","24","green","0"
"100","80","18","722.613823259","1","1","5","489","0","right","3","out","Female","Right-handed","0","no","right","s","665.837061475","374.896446359","24","green","1"
"100","80","18","723.027737709","1","0","5","490","1","right","2","out","Female","Right-handed","0","no","right","d","557.390771923","958.202331094","24","green","0"
"100","80","18","723.666538632","1","1","5","491","2","left","0","out","Female","Right-handed","0","no","left","s","462.043477921","1093.88575633","24","green","3"
"100","80","18","720.785471179","1","1","5","492","3","left","1","in","Female","Right-handed","0","no","left","d","571.519611112","374.507729313","24","red","0"
"100","80","18","721.466342573","1","1","5","493","2","right","1","out","Female","Right-handed","0","no","right","s","579.229807772","982.17449995","24","green","2"
"100","80","18","718.953902427","1","1","5","494","2","left","0","in","Female","Right-handed","0","no","left","d","516.836548632","478.881790536","24","green","1"
"100","81","18","718.127103211","1","1","5","495","1","right","0","in","Female","Right-handed","0","no","right","d","554.624851153","734.459094703","24","red","1"
"100","80","18","719.219342832","1","0","5","496","3","left","0","out","Female","Right-handed","0","no","left","d","709.104286216","925.937531341","24","red","1"
"100","79","18","721.381437799","1","0","5","497","2","right","3","out","Female","Right-handed","0","no","right","s","677.507553832","1158.7566057","24","green","1"
"100","78","18","727.147281684","1","0","5","498","2","right","0","in","Female","Right-handed","0","no","right","d","525.221868593","1989.98796963","24","red","1"
"100","78","18","725.887512809","1","1","5","499","0","left","0","in","Female","Right-handed","0","no","left","s","778.660587443","438.7974274","24","red","2"
"100","78","18","724.960114213","1","1","5","500","3","left","0","out","Female","Right-handed","0","no","left","d","581.292381627","694.276910857","24","red","2"
"100","79","18","723.747033237","1","1","5","501","0","left","0","out","Female","Right-handed","0","no","left","d","507.043893274","709.964787704","24","red","3"
dis_reply=No
dis_loc=2
