"acc_1","acc_2","age","avg_rt","correct_1","correct_2","count_block_loop","count_trial_sequence","cue_position","detection","dis_position","dis_shape","gender","hand","high_loc","practice","response_keyboard_response_1","response_keyboard_response_2","response_time_keyboard_response_1","response_time_keyboard_response_2","subject_nr","tar_color","tar_position"
"100","0","19","2122.08848106","1","0","0","0","3","right","2","in","Female","Right-handed","0","yes","right","s","1348.92204926","2895.25491285","0","red","1"
"100","0","19","1510.66958281","1","0","0","1","0","right","0","out","Female","Right-handed","0","yes","right","s","1189.26917691","609.232192213","0","green","3"
"100","0","19","1844.64298047","1","0","0","2","0","right","0","out","Female","Right-handed","0","yes","right","s","2703.63682896","2321.54272259","0","red","2"
"100","25","19","1886.1292056","1","1","0","3","3","right","1","in","Female","Right-handed","0","yes","right","d","1347.1597276","2674.0160344","0","red","3"
"100","20","19","1680.93517543","1","0","0","4","1","left","0","in","Female","Right-handed","0","yes","left","s","942.711877888","777.606231595","0","red","1"
"100","16","19","1570.29573436","1","0","0","5","3","right","2","in","Female","Right-handed","0","yes","right","d","1505.05476827","529.142289754","0","red","0"
"100","28","19","1528.48484962","1","1","0","6","2","left","1","out","Female","Right-handed","0","yes","left","s","1497.64147161","1057.59761081","0","green","3"
"100","37","19","1472.88488127","1","1","0","7","3","left","0","out","Female","Right-handed","0","yes","left","s","1286.16191038","881.208295195","0","green","2"
"100","33","19","1412.9369804","1","0","0","8","0","right","2","in","Female","Right-handed","0","yes","right","s","792.871561227","1073.83598574","0","green","3"
"100","40","19","1350.58708242","1","1","0","9","1","left","1","in","Female","Right-handed","0","yes","left","d","1001.35726028","577.518740904","0","red","0"
"100","45","19","1295.35092578","1","1","0","10","2","left","3","in","Female","Right-handed","0","yes","left","d","644.042775507","841.935943216","0","green","0"
"100","41","19","1256.87851997","1","0","0","11","2","left","3","in","Female","Right-handed","0","yes","left","d","1057.68741064","609.67670137","0","red","2"
"100","46","19","1241.20706711","1","1","0","12","3","left","2","in","Female","Right-handed","0","yes","left","s","1129.21842718","977.080838448","0","green","3"
"100","42","19","1203.96001672","1","0","0","13","1","right","0","in","Female","Right-handed","0","yes","right","d","741.725426758","697.771296511","0","green","2"
"100","46","19","1165.34568979","1","1","0","14","3","right","0","in","Female","Right-handed","0","yes","right","s","576.375075929","673.11514968","0","green","2"
"100","50","19","1159.06273913","1","1","0","15","1","left","0","out","Female","Right-handed","0","yes","left","d","1495.86215213","633.774806401","0","green","3"
"100","47","19","1149.17709021","1","0","0","16","3","right","2","out","Female","Right-handed","0","yes","right","s","660.631690489","1321.38172432","0","red","1"
"100","50","19","1137.92246276","1","1","0","17","3","right","3","in","Female","Right-handed","0","yes","right","d","828.091695889","1065.0958966","0","green","1"
"100","52","19","1114.61948149","1","1","0","18","2","left","2","out","Female","Right-handed","0","yes","left","d","772.646394569","617.685242617","0","green","3"
"100","55","19","1101.64732175","1","1","0","19","1","left","1","in","Female","Right-handed","0","yes","left","d","837.181362943","873.171210431","0","red","3"
"100","57","19","1086.60116899","1","1","0","20","2","right","0","out","Female","Right-handed","0","yes","right","d","977.673517324","593.682710261","0","red","2"
"100","59","19","1083.54598594","1","1","0","21","0","right","3","in","Female","Right-handed","0","yes","right","s","1165.3965336","873.37775004","0","red","1"
"100","0","19","1017.28855187","1","0","1","22","1","right","1","in","Female","Right-handed","0","no","right","d","1017.23515304","1017.3419507","0","green","0"
"100","50","19","974.35260737","1","1","1","23","2","left","1","in","Female","Right-handed","0","no","left","d","980.905028341","881.928297401","0","red","2"
"100","66","19","993.050882935","1","1","1","24","2","left","0","in","Female","Right-handed","0","no","left","s","763.412727074","1297.48214106","0","green","1"
"100","75","19","1029.92695586","1","1","1","25","3","left","3","out","Female","Right-handed","0","no","left","d","1432.02377386","849.086575375","0","green","1"
"100","80","19","990.46351465","1","1","1","26","0","left","2","out","Female","Right-handed","0","no","left","d","831.523973668","833.69552598","0","green","0"
"100","83","19","961.576496947","1","1","1","27","1","left","0","in","Female","Right-handed","0","no","left","d","1025.10546669","609.177350174","0","red","3"
"100","85","19","943.317362403","1","1","1","28","1","left","3","in","Female","Right-handed","0","no","left","s","601.771429927","1065.75368035","0","green","0"
"100","87","19","950.813085342","1","1","1","29","3","left","3","out","Female","Right-handed","0","no","left","s","941.359107595","1065.20718424","0","green","0"
"100","88","19","927.669960966","1","1","1","30","2","right","0","out","Female","Right-handed","0","no","right","d","867.0083764","618.041555513","0","green","1"
"100","90","19","929.499308221","1","1","1","31","2","left","0","in","Female","Right-handed","0","no","left","s","1122.47125283","769.455614189","0","green","1"
"100","90","19","948.917847909","1","1","1","32","3","right","0","in","Female","Right-handed","0","no","right","s","941.142305149","1345.06418443","0","red","3"
"100","91","19","925.565054738","1","1","1","33","0","right","2","in","Female","Right-handed","0","no","right","s","519.727739745","817.640919987","0","red","0"
"100","92","19","919.459001419","1","1","1","34","2","right","2","in","Female","Right-handed","0","no","right","s","851.216434909","841.156288265","0","red","3"
"100","92","19","915.409877578","1","1","1","35","1","left","2","out","Female","Right-handed","0","no","left","s","795.731365092","929.811170201","0","red","0"
"100","93","19","897.307052772","1","1","1","36","2","right","1","in","Female","Right-handed","0","no","right","s","630.428479888","657.306531078","0","green","3"
"100","93","19","894.009100571","1","1","1","37","0","left","0","in","Female","Right-handed","0","no","left","d","1040.06034549","649.019289645","0","red","1"
"100","94","19","879.108526151","1","1","1","38","1","left","0","in","Female","Right-handed","0","no","left","d","543.718405695","737.680265141","0","red","1"
"100","94","19","865.394616443","1","1","1","39","3","left","2","in","Female","Right-handed","0","no","left","d","679.265155165","585.251147674","0","green","3"
"100","94","19","852.156919328","1","1","1","40","1","left","1","out","Female","Right-handed","0","no","left","d","578.793898487","648.962844038","0","green","0"
"100","95","19","839.222176325","1","1","1","41","1","right","3","out","Female","Right-handed","0","no","right","s","465.511092524","721.413025978","0","green","0"
"100","95","19","855.997718412","1","1","1","42","3","left","0","out","Female","Right-handed","0","no","left","d","1845.99874409","537.018376252","0","green","2"
"100","95","19","847.525705639","1","1","1","43","3","left","1","out","Female","Right-handed","0","no","left","d","545.620879229","793.60599555","0","red","3"
"100","95","19","836.971720779","1","1","1","44","2","left","0","out","Female","Right-handed","0","no","left","d","688.34616295","521.221944769","0","red","3"
"100","95","19","835.694848366","1","1","1","45","2","right","2","in","Female","Right-handed","0","no","right","d","1059.82817444","552.825391287","0","red","1"
"100","96","19","845.944075232","1","1","1","46","1","left","0","in","Female","Right-handed","0","no","left","d","1430.42148833","753.429551714","0","green","3"
"100","96","19","842.29213276","1","1","1","47","1","right","0","out","Female","Right-handed","0","no","right","s","637.011448836","864.97569311","0","green","1"
"100","96","19","838.377743744","1","1","1","48","3","left","0","out","Female","Right-handed","0","no","left","s","759.642096365","713.565162284","0","green","1"
"100","96","19","836.531551216","1","1","1","49","2","right","1","out","Female","Right-handed","0","no","right","d","1108.1228436","465.245862312","0","red","0"
"100","96","19","845.954784193","1","1","1","50","1","left","0","in","Female","Right-handed","0","no","left","d","1010.82408662","1208.78652849","0","green","2"
"100","96","19","838.117584966","1","1","1","51","3","left","2","out","Female","Right-handed","0","no","left","s","740.335132965","481.342481798","0","green","0"
"100","96","19","834.144737214","1","1","1","52","0","right","0","in","Female","Right-handed","0","no","right","s","652.968878587","776.949730697","0","green","1"
"100","96","19","826.50288033","1","1","1","53","0","right","3","in","Female","Right-handed","0","no","right","d","514.769185573","664.441448266","0","red","0"
"100","96","19","826.446308381","1","1","1","54","2","right","3","out","Female","Right-handed","0","no","right","s","984.124993666","665.147018357","0","green","0"
"100","97","19","830.179787183","1","1","1","55","2","left","2","in","Female","Right-handed","0","no","left","d","1289.94344535","616.82572996","0","green","0"
"100","94","19","835.942537639","1","0","1","56","0","right","0","in","Female","Right-handed","0","no","right","d","1270.39434312","793.357763163","0","red","2"
"100","94","19","830.066739804","1","1","1","57","2","left","3","out","Female","Right-handed","0","no","left","d","671.893871996","576.933759156","0","red","2"
"100","94","19","830.766482633","1","1","1","58","1","left","2","out","Female","Right-handed","0","no","left","s","1166.42762807","545.486820913","0","green","3"
"100","94","19","832.459200072","1","1","1","59","2","left","0","in","Female","Right-handed","0","no","left","d","1125.07673075","665.102759869","0","green","3"
"100","94","19","827.86231571","1","1","1","60","3","right","1","out","Female","Right-handed","0","no","right","s","849.711004905","456.650415036","0","red","0"
"100","92","19","844.647064219","1","0","1","61","0","right","0","out","Female","Right-handed","0","no","right","s","637.350763908","2361.15374821","0","green","1"
"100","92","19","836.905365357","1","1","1","62","3","right","0","out","Female","Right-handed","0","no","right","s","573.690381732","480.784439998","0","green","3"
"100","92","19","831.478275787","1","1","1","63","3","right","3","in","Female","Right-handed","0","no","right","d","625.451645037","592.483561821","0","green","2"
"100","93","19","846.245522073","1","1","1","64","2","left","3","out","Female","Right-handed","0","no","left","d","2332.01691059","600.922821536","0","red","0"
"100","93","19","844.729505128","1","1","1","65","1","right","2","in","Female","Right-handed","0","no","right","d","686.688393949","872.393159049","0","green","0"
"100","93","19","848.828418681","1","1","1","66","1","left","3","in","Female","Right-handed","0","no","left","d","945.16597895","1113.19525113","0","red","2"
"100","93","19","845.662235259","1","1","1","67","1","right","0","in","Female","Right-handed","0","no","right","d","885.737093038","520.630869461","0","red","3"
"100","93","19","840.792841196","1","1","1","68","2","left","0","in","Female","Right-handed","0","no","left","s","664.227532243","569.373896344","0","red","3"
"100","93","19","841.973590324","1","1","1","69","2","right","0","out","Female","Right-handed","0","no","right","s","770.072667305","1024.86493144","0","red","1"
"100","93","19","837.445172851","1","1","1","70","1","left","2","in","Female","Right-handed","0","no","left","d","647.60173519","592.560533103","0","green","1"
"100","94","19","831.548549957","1","1","1","71","2","right","0","out","Female","Right-handed","0","no","right","s","508.139392428","577.088663862","0","red","2"
"100","94","19","830.511993101","1","1","1","72","1","left","1","out","Female","Right-handed","0","no","left","d","988.608891594","568.759408938","0","red","2"
"100","92","19","837.065683987","1","0","1","73","2","left","0","out","Female","Right-handed","0","no","left","s","781.372372313","1561.23546606","0","red","2"
"100","92","19","836.86402281","1","1","1","74","0","right","0","in","Female","Right-handed","0","no","right","s","891.912755616","760.84252766","0","red","3"
"100","92","19","832.154214649","1","1","1","75","1","left","0","in","Female","Right-handed","0","no","left","s","620.580004272","544.488759947","0","red","1"
"100","92","19","829.417141376","1","1","1","76","3","right","1","in","Female","Right-handed","0","no","right","s","922.166318264","441.064051011","0","red","0"
"100","92","19","832.976391419","1","1","1","77","2","left","0","out","Female","Right-handed","0","no","left","d","1432.74698321","624.723304275","0","green","3"
"100","92","19","835.560529468","1","1","1","78","0","left","0","in","Female","Right-handed","0","no","left","d","1199.24690014","761.297620368","0","red","3"
"100","93","19","831.720891866","1","1","1","79","1","left","0","out","Female","Right-handed","0","no","left","d","744.891191471","480.831905623","0","green","1"
"100","93","19","831.775008223","1","1","1","80","3","right","0","out","Female","Right-handed","0","no","right","d","997.431404155","672.396109615","0","green","1"
"100","93","19","829.687903899","1","1","1","81","3","right","0","out","Female","Right-handed","0","no","right","s","804.02085152","609.076646079","0","red","1"
"100","93","19","825.450185001","1","1","1","82","0","left","1","out","Female","Right-handed","0","no","left","s","653.610305942","488.763796301","0","red","0"
"100","93","19","820.463996962","1","1","1","83","0","left","1","in","Female","Right-handed","0","no","left","s","568.316503348","464.296549827","0","green","0"
"100","93","19","821.5746616","1","1","1","84","1","right","0","in","Female","Right-handed","0","no","right","d","1323.88746029","456.984277974","0","green","2"
"100","93","19","823.464128255","1","1","1","85","2","right","2","out","Female","Right-handed","0","no","right","s","1108.65105903","776.349996119","0","green","0"
"100","93","19","821.642318989","1","1","1","86","0","right","2","out","Female","Right-handed","0","no","right","d","913.087555476","497.005496391","0","red","3"
"100","93","19","819.340913858","1","1","1","87","0","right","1","in","Female","Right-handed","0","no","right","d","810.71286312","528.786297572","0","green","2"
"100","94","19","818.333235508","1","1","1","88","1","left","0","out","Female","Right-handed","0","no","left","d","975.349626016","528.303302774","0","green","3"
"100","92","19","819.554415697","1","0","1","89","2","right","1","out","Female","Right-handed","0","no","right","d","801.826849252","1000.92012754","0","red","0"
"100","92","19","819.595258502","1","1","1","90","1","right","0","in","Female","Right-handed","0","no","right","s","996.403516818","648.341621644","0","red","2"
"100","92","19","816.27338312","1","1","1","91","2","left","0","out","Female","Right-handed","0","no","left","s","581.045629218","593.082334257","0","red","2"
"100","92","19","812.146500689","1","1","1","92","2","right","0","out","Female","Right-handed","0","no","right","s","453.75821909","592.771241989","0","red","2"
"100","93","19","814.364172751","1","1","1","93","0","right","0","out","Female","Right-handed","0","no","right","d","1135.25778645","808.379991829","0","green","2"
"100","93","19","821.637291388","1","1","1","94","3","left","2","out","Female","Right-handed","0","no","left","d","2065.8790794","624.724587129","0","red","0"
"100","93","19","818.154965503","1","1","1","95","0","right","3","out","Female","Right-handed","0","no","right","d","591.381589624","536.508762219","0","red","0"
"100","93","19","820.252217789","1","1","1","96","0","left","3","in","Female","Right-handed","0","no","left","d","1277.90513674","672.992637055","0","red","2"
"100","93","19","818.538945714","1","1","1","97","3","right","0","out","Female","Right-handed","0","no","right","s","787.565674143","592.521406034","0","green","2"
"100","93","19","816.423597076","1","1","1","98","2","right","3","out","Female","Right-handed","0","no","right","s","639.135535524","672.178665742","0","red","1"
"100","93","19","815.735520966","1","1","1","99","0","left","0","in","Female","Right-handed","0","no","left","d","972.815667248","552.691653684","0","red","2"
"100","93","19","813.445195477","1","1","1","100","3","right","0","in","Female","Right-handed","0","no","right","s","525.250749989","744.348864641","0","red","3"
"100","93","19","810.139793881","1","1","1","101","0","right","0","out","Female","Right-handed","0","no","right","s","673.015407726","425.010727872","0","red","3"
"100","92","19","813.644306897","1","0","1","102","0","right","0","in","Female","Right-handed","0","no","right","d","1091.51757222","1096.49312422","0","green","3"
"100","92","19","812.356059204","1","1","1","103","0","right","0","in","Female","Right-handed","0","no","right","s","928.063280657","487.95271141","0","green","1"
"100","92","19","809.505559664","1","1","1","104","0","right","2","in","Female","Right-handed","0","no","right","d","590.748500824","560.780694063","0","green","1"
"100","92","19","813.813144972","1","1","1","105","3","left","0","in","Female","Right-handed","0","no","left","d","1750.37956464","592.305886443","0","green","2"
"100","92","19","812.667307365","1","1","1","106","3","left","0","in","Female","Right-handed","0","no","left","d","895.881266665","536.952629948","0","red","3"
"100","91","19","818.652807067","1","0","1","107","3","right","1","in","Female","Right-handed","0","no","right","s","1086.43009115","1568.41047246","0","green","2"
"100","91","19","820.449428094","1","1","1","108","1","right","0","out","Female","Right-handed","0","no","right","s","1118.02904768","831.88862512","0","green","2"
"100","92","19","822.989768126","1","1","1","109","0","left","1","in","Female","Right-handed","0","no","left","s","1223.45725496","864.54144679","0","red","3"
"100","92","19","824.400634604","1","1","1","110","0","right","3","in","Female","Right-handed","0","no","right","d","1369.08852531","528.025244015","0","red","1"
"100","92","19","824.192681713","1","1","1","111","0","left","0","out","Female","Right-handed","0","no","left","s","1154.71933384","456.650415036","0","red","2"
"100","92","19","823.274784385","1","1","1","112","1","right","1","in","Female","Right-handed","0","no","right","s","993.214981434","488.113068249","0","green","3"
"100","92","19","822.548628839","1","1","1","113","3","left","2","out","Female","Right-handed","0","no","left","d","1041.03307007","471.903878261","0","green","1"
"100","92","19","823.273055646","1","1","1","114","3","right","0","out","Female","Right-handed","0","no","right","s","851.379357457","928.461286331","0","green","2"
"100","92","19","820.607083083","1","1","1","115","3","right","0","out","Female","Right-handed","0","no","right","s","777.242862999","368.100406472","0","red","1"
"100","92","19","820.240434318","1","1","1","116","3","left","3","in","Female","Right-handed","0","no","left","s","866.808251065","704.742649723","0","green","0"
"100","92","19","818.006475116","1","1","1","117","1","left","3","out","Female","Right-handed","0","no","left","s","635.261314297","576.299387501","0","red","1"
"100","0","19","1482.0212723","1","0","2","118","3","left","1","out","Female","Right-handed","0","no","left","d","2427.055919","536.986625598","0","red","0"
"100","50","19","1056.07694691","1","1","2","119","1","right","2","in","Female","Right-handed","0","no","right","d","755.699242411","504.56600063","0","red","0"
"100","66","19","960.141223061","1","1","2","120","1","right","2","out","Female","Right-handed","0","no","right","d","919.191057476","617.348493255","0","green","3"
"100","75","19","886.694864348","1","1","2","121","2","left","0","out","Female","Right-handed","0","no","left","d","755.841318569","576.870257847","0","red","2"
"100","80","19","832.326655861","1","1","2","122","1","right","0","out","Female","Right-handed","0","no","right","d","517.342912837","712.364730988","0","red","1"
"100","83","19","791.103840888","1","1","2","123","0","right","2","out","Female","Right-handed","0","no","right","s","664.978643676","505.000888377","0","green","0"
"100","85","19","831.764577651","1","1","2","124","1","left","0","in","Female","Right-handed","0","no","left","d","1174.72705662","976.730939826","0","red","2"
"100","87","19","790.138679801","1","1","2","125","1","right","3","out","Female","Right-handed","0","no","right","s","644.112691089","353.402098622","0","green","1"
"100","88","19","783.773038912","1","1","2","126","1","right","3","out","Female","Right-handed","0","no","right","d","960.852726354","504.843097247","0","red","0"
"100","90","19","785.991018093","1","1","2","127","1","left","0","out","Female","Right-handed","0","no","left","d","1050.45178936","561.453872073","0","red","3"
"100","90","19","780.046192099","1","1","2","128","1","left","0","in","Female","Right-handed","0","no","left","s","768.124652427","673.071211906","0","green","3"
"100","91","19","782.589013012","1","1","2","129","1","right","0","out","Female","Right-handed","0","no","right","s","1084.62511457","536.494971531","0","red","2"
"100","92","19","783.065136109","1","1","2","130","0","left","0","in","Female","Right-handed","0","no","left","d","976.211704382","601.345522164","0","red","2"
"100","92","19","765.870229991","1","1","2","131","3","left","0","in","Female","Right-handed","0","no","left","s","579.822747965","504.850152949","0","green","3"
"100","93","19","755.177804732","1","1","2","132","3","left","0","out","Female","Right-handed","0","no","left","s","626.464138117","584.503564091","0","green","1"
"100","93","19","740.358655309","1","1","2","133","0","right","1","in","Female","Right-handed","0","no","right","d","570.996066126","465.146761786","0","red","0"
"100","94","19","737.023679347","1","1","2","134","3","right","2","in","Female","Right-handed","0","no","right","d","862.698946712","504.629181225","0","green","1"
"100","94","19","732.153584506","1","1","2","135","2","left","0","in","Female","Right-handed","0","no","left","s","834.346574746","464.377369673","0","green","1"
"100","94","19","725.562537699","1","1","2","136","2","left","0","in","Female","Right-handed","0","no","left","d","708.926038936","504.921351385","0","red","1"
"100","95","19","728.914126026","1","1","2","137","2","right","2","out","Female","Right-handed","0","no","right","s","1016.58538713","568.603221376","0","red","0"
"100","95","19","756.328482646","1","1","2","138","0","left","3","out","Female","Right-handed","0","no","left","d","1344.05970919","1265.17152088","0","red","2"
"100","95","19","745.301048973","1","1","2","139","0","left","0","out","Female","Right-handed","0","no","left","s","610.69176016","416.758123518","0","green","1"
"100","95","19","755.452097661","1","1","2","140","3","left","0","in","Female","Right-handed","0","no","left","d","1477.26717309","480.28316452","0","red","2"
"100","95","19","746.136876803","1","1","2","141","2","right","0","out","Female","Right-handed","0","no","right","d","598.786227015","464.987367088","0","green","1"
"100","96","19","747.091492557","1","1","2","142","0","left","3","out","Female","Right-handed","0","no","left","d","675.577589298","864.426952008","0","green","0"
"100","96","19","740.091051353","1","1","2","143","1","right","1","in","Female","Right-handed","0","no","right","s","673.013804158","457.146238381","0","red","0"
"100","96","19","731.172592636","1","1","2","144","1","right","0","out","Female","Right-handed","0","no","right","d","517.76529275","480.820039216","0","green","1"
"100","96","19","725.767533119","1","1","2","145","3","left","0","in","Female","Right-handed","0","no","left","s","631.346362433","528.315489893","0","green","3"
"100","96","19","732.652641408","1","1","2","146","0","left","1","in","Female","Right-handed","0","no","left","d","1330.03233435","520.839012638","0","red","2"
"100","96","19","731.668749167","1","1","2","147","2","left","0","out","Female","Right-handed","0","no","left","s","501.658731141","904.613017256","0","red","2"
"100","96","19","730.816294109","1","1","2","148","2","left","0","in","Female","Right-handed","0","no","left","s","729.192256946","681.293027749","0","green","3"
"100","96","19","730.253017435","1","1","2","149","0","left","0","out","Female","Right-handed","0","no","left","d","960.83572853","464.747152544","0","red","2"
"100","96","19","727.682332091","1","1","2","150","3","right","0","out","Female","Right-handed","0","no","right","s","634.387048813","656.453753409","0","red","2"
"100","97","19","725.014150076","1","1","2","151","1","left","1","out","Female","Right-handed","0","no","left","s","856.901726274","417.026560866","0","red","3"
"100","97","19","728.130085316","1","1","2","152","1","left","1","out","Female","Right-handed","0","no","left","s","1083.56996658","584.573800386","0","green","0"
"100","97","19","724.854738085","1","1","2","153","3","right","1","in","Female","Right-handed","0","no","right","d","732.197664819","488.237505156","0","red","2"
"100","97","19","719.6105501","1","1","2","154","0","left","3","out","Female","Right-handed","0","no","left","s","572.795590572","488.84397472","0","green","0"
"100","97","19","716.369339205","1","1","2","155","0","left","1","in","Female","Right-handed","0","no","left","d","720.384817928","472.504254268","0","green","3"
"100","97","19","712.170913023","1","1","2","156","2","right","3","out","Female","Right-handed","0","no","right","d","593.216713288","512.044722881","0","red","2"
"100","97","19","719.757485938","1","1","2","157","2","left","1","in","Female","Right-handed","0","no","left","d","1494.63349803","536.634161266","0","green","0"
"100","97","19","718.061493734","1","1","2","158","1","left","0","out","Female","Right-handed","0","no","left","s","540.227437312","760.216173847","0","green","1"
"100","97","19","714.12822478","1","1","2","159","2","right","2","out","Female","Right-handed","0","no","right","s","656.906280407","448.822114876","0","red","0"
"100","97","19","712.613056606","1","1","2","160","2","right","0","out","Female","Right-handed","0","no","right","s","657.445079386","640.506907211","0","red","3"
"100","97","19","709.40996672","1","1","2","161","0","right","0","in","Female","Right-handed","0","no","right","s","719.23217297","424.122030272","0","red","3"
"100","97","19","708.28404855","1","1","2","162","3","right","3","out","Female","Right-handed","0","no","right","d","708.764719956","608.722578178","0","green","0"
"100","97","19","712.16573861","1","1","2","163","3","left","3","in","Female","Right-handed","0","no","left","s","1165.4481685","608.235414103","0","red","1"
"100","97","19","709.840434573","1","1","2","164","0","right","3","out","Female","Right-handed","0","no","right","d","716.927203768","488.825694041","0","green","1"
"100","97","19","704.595041253","1","1","2","165","3","right","1","in","Female","Right-handed","0","no","right","s","523.623448788","392.499661648","0","green","3"
"100","97","19","703.993577113","1","1","2","166","3","right","3","in","Female","Right-handed","0","no","right","d","806.110621845","544.135974902","0","red","0"
"100","98","19","701.112405013","1","1","2","167","2","right","0","in","Female","Right-handed","0","no","right","s","486.926748354","632.943195835","0","green","3"
"100","98","19","702.637280767","1","1","2","168","2","left","0","in","Female","Right-handed","0","no","left","d","845.419855898","712.342281031","0","green","3"
"100","98","19","703.826176468","1","1","2","169","0","left","2","out","Female","Right-handed","0","no","left","d","689.023830951","839.895883512","0","red","1"
"100","98","19","703.028413937","1","1","2","170","3","right","3","in","Female","Right-handed","0","no","right","d","706.493425691","616.596098967","0","red","2"
"100","98","19","700.494342718","1","1","2","171","2","left","1","in","Female","Right-handed","0","no","left","s","540.202742359","592.174393835","0","green","2"
"100","98","19","701.953778978","1","1","2","172","1","right","0","in","Female","Right-handed","0","no","right","s","848.660988324","712.865685753","0","red","2"
"100","98","19","701.462682306","1","1","2","173","0","left","0","out","Female","Right-handed","0","no","left","s","828.477835157","520.426895561","0","green","3"
"100","98","19","701.566509642","1","1","2","174","3","left","0","in","Female","Right-handed","0","no","left","d","902.716316565","512.045364309","0","red","1"
"100","98","19","704.66216165","1","1","2","175","1","right","3","out","Female","Right-handed","0","no","right","s","913.615450189","848.613201986","0","red","0"
"100","98","19","703.104629076","1","1","2","176","2","right","2","in","Female","Right-handed","0","no","right","s","681.287575616","544.247903977","0","green","1"
"100","98","19","699.592966236","1","1","2","177","0","right","1","in","Female","Right-handed","0","no","right","s","584.955128949","399.854588419","0","green","0"
"100","98","19","698.066684323","1","1","2","178","2","right","3","in","Female","Right-handed","0","no","right","d","676.411765574","536.567773535","0","green","1"
"100","98","19","696.894770511","1","1","2","179","0","right","0","out","Female","Right-handed","0","no","right","d","626.85156024","623.964495713","0","red","2"
"100","98","19","695.097980014","1","1","2","180","0","right","0","in","Female","Right-handed","0","no","right","d","622.598576159","544.795362224","0","red","1"
"100","98","19","705.850497495","1","1","2","181","2","left","3","in","Female","Right-handed","0","no","left","s","2254.32947429","512.188723323","0","red","0"
"100","98","19","707.205131281","1","1","2","182","3","right","0","in","Female","Right-handed","0","no","right","s","1139.88953338","447.91385374","0","red","2"
"100","98","19","705.426403996","1","1","2","183","1","right","0","out","Female","Right-handed","0","no","right","d","523.334165051","656.284095873","0","green","1"
"100","98","19","704.966096208","1","1","2","184","1","right","3","in","Female","Right-handed","0","no","right","s","709.136747822","640.034816676","0","green","2"
"100","98","19","708.1672233","1","1","2","185","1","left","2","out","Female","Right-handed","0","no","left","d","940.616976144","904.668500721","0","red","0"
"100","98","19","707.965552599","1","1","2","186","3","left","2","out","Female","Right-handed","0","no","left","s","636.260337404","752.243552533","0","green","0"
"100","98","19","711.019515794","1","1","2","187","3","left","0","out","Female","Right-handed","0","no","left","d","1267.79688305","575.689069372","0","green","1"
"100","98","19","711.714944751","1","1","2","188","2","left","1","in","Female","Right-handed","0","no","left","d","832.269953683","688.519989762","0","red","3"
"100","98","19","711.719294712","1","1","2","189","1","left","2","out","Female","Right-handed","0","no","left","s","584.021531433","840.034752534","0","red","1"
"100","98","19","711.326093153","1","1","2","190","1","right","1","in","Female","Right-handed","0","no","right","d","773.624891999","592.406269824","0","green","2"
"100","98","19","718.890944452","1","1","2","191","3","right","1","out","Female","Right-handed","0","no","right","d","1998.09560218","544.154576296","0","red","0"
"100","98","19","724.082772779","1","1","2","192","3","left","0","in","Female","Right-handed","0","no","left","d","1560.64342861","655.912709434","0","red","1"
"100","98","19","724.322359006","1","1","2","193","2","right","0","in","Female","Right-handed","0","no","right","s","852.286015023","632.296637061","0","green","1"
"100","98","19","723.641679903","1","1","2","194","0","left","0","in","Female","Right-handed","0","no","left","d","855.931246685","487.888889387","0","green","3"
"100","98","19","720.742995486","1","1","2","195","3","left","0","in","Female","Right-handed","0","no","left","s","546.646521571","448.442069168","0","red","3"
"100","98","19","718.039814322","1","1","2","196","3","right","0","out","Female","Right-handed","0","no","right","s","494.26980872","520.113558298","0","green","3"
"100","98","19","715.036097527","1","1","2","197","2","left","2","in","Female","Right-handed","0","no","left","d","515.749286573","439.735654958","0","green","3"
"100","98","19","716.138386701","1","1","2","198","2","left","3","out","Female","Right-handed","0","no","left","s","1168.34485444","440.298186749","0","green","0"
"100","98","19","714.923050307","1","1","2","199","3","right","2","in","Female","Right-handed","0","no","right","s","673.001937752","559.959667048","0","green","0"
"100","98","19","713.979074198","1","1","2","200","1","right","0","out","Female","Right-handed","0","no","right","d","649.577331445","623.568735035","0","green","2"
"100","98","19","711.095071355","1","1","2","201","2","right","0","in","Female","Right-handed","0","no","right","s","471.21049529","472.235175492","0","green","2"
"100","98","19","709.379899727","1","1","2","202","0","left","2","out","Female","Right-handed","0","no","left","d","602.851593594","527.759372376","0","red","0"
"100","98","19","706.643404085","1","1","2","203","0","right","0","in","Female","Right-handed","0","no","right","s","604.476970513","343.605578622","0","red","3"
"100","98","19","705.333026466","1","1","2","204","0","right","0","in","Female","Right-handed","0","no","right","s","569.084612606","616.196489725","0","green","1"
"100","98","19","703.315040165","1","1","2","205","3","right","2","out","Female","Right-handed","0","no","right","d","439.72539212","615.775071952","0","green","3"
"100","98","19","702.781352254","1","1","2","206","0","right","0","out","Female","Right-handed","0","no","right","s","823.248919355","488.384712734","0","red","2"
"100","98","19","703.615916649","1","1","2","207","1","left","0","out","Female","Right-handed","0","no","left","d","1003.90629259","551.878003083","0","green","3"
"100","98","19","706.483605156","1","1","2","208","2","right","1","out","Female","Right-handed","0","no","right","s","1409.53757578","519.613565675","0","green","0"
"100","98","19","704.751315965","1","1","2","209","2","left","0","out","Female","Right-handed","0","no","left","s","565.994536322","528.23146291","0","green","2"
"100","98","19","704.121684246","1","1","2","210","3","left","0","out","Female","Right-handed","0","no","left","d","756.733223307","535.657908831","0","red","2"
"100","98","19","703.235778215","1","1","2","211","0","left","0","in","Female","Right-handed","0","no","left","d","594.280199843","647.412834833","0","red","1"
"100","97","19","704.11697785","1","0","2","212","1","left","0","in","Female","Right-handed","0","no","left","d","773.882104369","800.017382681","0","green","3"
"100","97","19","704.107103789","1","1","2","213","0","right","2","in","Female","Right-handed","0","no","right","d","670.571890216","735.766245912","0","red","3"
"100","100","19","850.871186634","1","1","3","214","2","left","1","out","Female","Right-handed","0","no","left","s","964.95176787","736.790605398","0","red","0"
"100","100","19","817.157604474","1","1","3","215","0","left","1","out","Female","Right-handed","0","no","left","s","870.459576287","696.428468342","0","red","3"
"100","100","19","758.457380038","1","1","3","216","2","right","0","in","Female","Right-handed","0","no","right","d","881.132606767","400.981255568","0","green","3"
"100","100","19","761.500872662","1","1","3","217","3","left","0","in","Female","Right-handed","0","no","left","s","948.622630968","592.640070094","0","red","1"
"100","100","19","744.056534124","1","1","3","218","2","right","0","in","Female","Right-handed","0","no","right","s","780.161357466","568.397002481","0","red","2"
"100","100","19","704.098710111","1","1","3","219","3","right","0","out","Female","Right-handed","0","no","right","s","479.771946918","528.84723317","0","green","2"
"100","100","19","719.932542918","1","1","3","220","3","left","0","in","Female","Right-handed","0","no","left","d","1069.3915356","560.479543919","0","red","1"
"100","100","19","697.140633108","1","1","3","221","0","right","0","out","Female","Right-handed","0","no","right","s","587.079215637","488.115313245","0","green","1"
"100","100","19","693.042408967","1","1","3","222","1","left","0","in","Female","Right-handed","0","no","left","d","895.717381976","424.795849709","0","green","2"
"100","90","19","719.965308402","1","0","3","223","1","left","1","out","Female","Right-handed","0","no","left","s","844.289340184","1080.25346643","0","green","2"
"100","90","19","715.273443689","1","1","3","224","1","right","0","in","Female","Right-handed","0","no","right","s","871.646537606","465.063055516","0","green","3"
"100","91","19","708.756354674","1","1","3","225","1","right","2","in","Female","Right-handed","0","no","right","s","769.547017587","504.589733442","0","red","1"
"100","92","19","691.357294329","1","1","3","226","3","right","0","out","Female","Right-handed","0","no","right","s","597.110818763","368.026321613","0","red","2"
"100","85","19","702.345681512","1","0","3","227","1","right","1","out","Female","Right-handed","0","no","right","d","897.656416871","792.73301292","0","green","3"
"100","86","19","703.705344095","1","1","3","228","2","left","0","out","Female","Right-handed","0","no","left","s","805.250147047","640.231093447","0","red","1"
"100","87","19","703.805073354","1","1","3","229","1","left","3","in","Female","Right-handed","0","no","left","s","633.85049483","776.751529644","0","red","1"
"100","88","19","698.28414598","1","1","3","230","2","right","1","in","Female","Right-handed","0","no","right","d","491.465809036","728.432806957","0","red","2"
"100","88","19","699.442829473","1","1","3","231","3","left","1","out","Female","Right-handed","0","no","left","d","902.100867018","536.180030699","0","red","0"
"100","89","19","696.985345444","1","1","3","232","0","right","2","out","Female","Right-handed","0","no","right","s","680.631074718","624.870191139","0","red","3"
"100","90","19","695.529451778","1","1","3","233","2","right","0","in","Female","Right-handed","0","no","right","d","671.362449432","664.372494825","0","green","1"
"100","90","19","697.544643573","1","1","3","234","3","right","0","in","Female","Right-handed","0","no","right","s","955.856969397","519.839989532","0","green","1"
"100","90","19","691.567724553","1","1","3","235","3","left","0","out","Female","Right-handed","0","no","left","d","627.636025895","504.468824386","0","green","3"
"100","91","19","687.310411155","1","1","3","236","3","right","3","out","Female","Right-handed","0","no","right","d","691.125467681","496.17356511","0","red","2"
"100","91","19","693.206217933","1","1","3","237","2","left","3","in","Female","Right-handed","0","no","left","d","968.708928604","688.910619022","0","red","0"
"100","92","19","697.634499299","1","1","3","238","2","left","1","in","Female","Right-handed","0","no","left","s","1159.36615432","448.460349848","0","red","0"
"100","92","19","698.435161488","1","1","3","239","0","right","0","in","Female","Right-handed","0","no","right","d","908.919560519","527.98387195","0","green","2"
"100","92","19","693.737894395","1","1","3","240","3","left","3","out","Female","Right-handed","0","no","left","s","638.676594252","504.541305677","0","green","1"
"100","92","19","688.469168099","1","1","3","241","0","left","3","out","Female","Right-handed","0","no","left","d","596.278887483","496.14822873","0","red","0"
"100","93","19","686.478337549","1","1","3","242","1","left","2","out","Female","Right-handed","0","no","left","d","709.694468907","551.77569542","0","red","0"
"100","93","19","684.007991971","1","1","3","243","1","right","0","in","Female","Right-handed","0","no","right","s","760.476272641","464.259667754","0","red","1"
"100","93","19","681.783497245","1","1","3","244","0","left","0","in","Female","Right-handed","0","no","left","d","654.044231548","576.053079397","0","red","1"
"100","93","19","676.02655838","1","1","3","245","3","right","0","out","Female","Right-handed","0","no","right","d","474.573498915","520.549408188","0","red","2"
"100","93","19","675.503081679","1","1","3","246","1","right","3","in","Female","Right-handed","0","no","right","d","677.256204687","640.247449846","0","red","0"
"100","94","19","672.44106141","1","1","3","247","2","right","2","in","Female","Right-handed","0","no","right","s","734.798332031","407.990452995","0","red","1"
"100","94","19","670.540139562","1","1","3","248","3","left","1","out","Female","Right-handed","0","no","left","s","763.489377642","448.328215813","0","red","0"
"100","94","19","667.959557043","1","1","3","249","3","left","0","in","Female","Right-handed","0","no","left","d","539.125144402","616.153193379","0","red","3"
"100","94","19","667.331256195","1","1","3","250","0","right","0","in","Female","Right-handed","0","no","right","d","817.663690657","471.761160676","0","green","3"
"100","94","19","672.214429536","1","1","3","251","0","left","2","out","Female","Right-handed","0","no","left","s","833.382509431","872.401176891","0","green","1"
"100","94","19","670.029205668","1","1","3","252","2","left","0","out","Female","Right-handed","0","no","left","s","613.96015325","560.021244074","0","green","3"
"100","95","19","667.857782566","1","1","3","253","2","left","1","in","Female","Right-handed","0","no","left","d","597.671426272","568.673136958","0","green","3"
"100","95","19","669.00044404","1","1","3","254","3","right","3","in","Female","Right-handed","0","no","right","d","893.249810939","536.163995015","0","green","0"
"100","95","19","675.815661933","1","1","3","255","2","left","2","in","Female","Right-handed","0","no","left","s","1302.74505251","607.734138625","0","green","0"
"100","95","19","673.804553564","1","1","3","256","2","right","0","in","Female","Right-handed","0","no","right","d","762.271307094","416.404697043","0","red","1"
"100","95","19","671.884389075","1","1","3","257","3","right","0","in","Female","Right-handed","0","no","right","s","834.758371107","343.876260966","0","green","2"
"100","95","19","675.578106003","1","1","3","258","1","right","1","in","Female","Right-handed","0","no","right","s","692.641801949","983.561499734","0","red","0"
"100","95","19","675.787273295","1","1","3","259","2","left","0","in","Female","Right-handed","0","no","left","s","666.126157214","704.273445614","0","green","1"
"100","95","19","673.338055922","1","1","3","260","0","right","0","out","Female","Right-handed","0","no","right","d","593.531654119","527.816459411","0","red","1"
"100","95","19","671.611553758","1","1","3","261","1","left","3","in","Female","Right-handed","0","no","left","s","668.492703443","512.439200704","0","red","0"
"100","95","19","668.386246138","1","1","3","262","2","left","0","out","Female","Right-handed","0","no","left","d","563.062571879","464.080388808","0","red","2"
"100","96","19","669.11137937","1","1","3","263","2","left","0","in","Female","Right-handed","0","no","left","d","777.607193736","631.678621803","0","red","3"
"100","96","19","674.41712773","1","1","3","264","0","right","1","out","Female","Right-handed","0","no","right","s","575.280800861","1304.1282906","0","green","0"
"100","96","19","672.617395885","1","1","3","265","2","left","3","out","Female","Right-handed","0","no","left","d","729.801612934","431.860530602","0","green","0"
"100","96","19","670.906200943","1","1","3","266","3","right","1","out","Female","Right-handed","0","no","right","d","500.373952148","663.474175813","0","green","3"
"100","96","19","670.464742152","1","1","3","267","3","right","2","out","Female","Right-handed","0","no","right","d","750.081621632","544.053230774","0","green","0"
"100","96","19","671.486982553","1","1","3","268","0","left","0","out","Female","Right-handed","0","no","left","d","933.652037205","519.72389118","0","green","2"
"100","96","19","678.258792869","1","1","3","269","2","right","2","out","Female","Right-handed","0","no","right","s","1277.10014541","824.316575188","0","red","0"
"100","96","19","681.084268464","1","1","3","270","1","right","0","out","Female","Right-handed","0","no","right","d","1182.89819971","495.723603822","0","red","2"
"100","96","19","682.063116584","1","1","3","271","1","right","0","in","Female","Right-handed","0","no","right","d","676.370072795","799.344846099","0","green","3"
"100","96","19","679.98735888","1","1","3","272","1","right","2","out","Female","Right-handed","0","no","right","d","575.053735577","544.13308848","0","red","0"
"100","96","19","679.990040237","1","1","3","273","0","left","0","out","Female","Right-handed","0","no","left","d","720.593281818","639.703198734","0","red","3"
"100","96","19","676.386547489","1","1","3","274","3","left","1","in","Female","Right-handed","0","no","left","s","584.194075392","336.15988988","0","green","2"
"100","96","19","672.369487793","1","1","3","275","0","right","2","out","Female","Right-handed","0","no","right","s","454.777126444","399.880566227","0","green","0"
"100","96","19","671.846658361","1","1","3","276","1","left","3","in","Female","Right-handed","0","no","left","s","743.381912903","535.480554168","0","green","2"
"100","96","19","670.639653508","1","1","3","277","3","right","0","out","Female","Right-handed","0","no","right","d","644.984390866","544.212304758","0","green","3"
"100","96","19","668.15551495","1","1","3","278","2","right","0","in","Female","Right-handed","0","no","right","s","466.607291874","551.734002641","0","red","2"
"100","96","19","663.659110983","1","1","3","279","2","right","0","in","Female","Right-handed","0","no","right","s","423.387595949","319.398110227","0","red","3"
"100","95","19","665.14153511","1","0","3","280","3","right","2","in","Female","Right-handed","0","no","right","d","869.917890884","656.045164183","0","green","0"
"100","95","19","662.965085298","1","1","3","281","0","right","0","out","Female","Right-handed","0","no","right","d","570.622113977","463.66378174","0","green","3"
"100","95","19","664.759394045","1","1","3","282","3","right","0","in","Female","Right-handed","0","no","right","d","1102.3288303","471.215947424","0","green","1"
"100","95","19","665.417918328","1","1","3","283","0","left","0","in","Female","Right-handed","0","no","left","d","789.77603281","631.936154888","0","red","2"
"100","95","19","662.960243438","1","1","3","284","0","right","2","out","Female","Right-handed","0","no","right","s","462.439296919","519.406705352","0","red","0"
"100","95","19","661.670459819","1","1","3","285","1","left","0","out","Female","Right-handed","0","no","left","d","676.087203331","464.104442333","0","green","2"
"100","95","19","661.581923379","1","1","3","286","2","left","0","out","Female","Right-handed","0","no","left","s","646.629972745","663.784626654","0","green","2"
"100","95","19","659.456222852","1","1","3","287","1","left","0","in","Female","Right-handed","0","no","left","d","585.265259075","423.294909697","0","green","1"
"100","96","19","657.623178106","1","1","3","288","0","left","1","out","Female","Right-handed","0","no","left","s","499.999679286","543.956054529","0","red","0"
"100","96","19","658.708959241","1","1","3","289","1","left","1","in","Female","Right-handed","0","no","left","d","576.691941042","903.59314776","0","green","0"
"100","96","19","660.344041558","1","1","3","290","0","right","3","out","Female","Right-handed","0","no","right","d","1146.11811372","423.10248149","0","red","2"
"100","96","19","664.369049209","1","1","3","291","1","right","0","out","Female","Right-handed","0","no","right","d","924.830486786","1023.75878996","0","red","3"
"100","96","19","663.273735855","1","1","3","292","2","left","2","out","Female","Right-handed","0","no","left","s","556.280119024","599.398469427","0","red","3"
"100","96","19","664.618251703","1","1","3","293","0","right","1","in","Female","Right-handed","0","no","right","s","957.804022134","583.865985299","0","green","2"
"100","96","19","663.538987693","1","1","3","294","3","left","2","out","Female","Right-handed","0","no","left","s","714.676114464","439.719619275","0","green","1"
"100","96","19","661.339845844","1","1","3","295","3","right","2","in","Female","Right-handed","0","no","right","s","591.244965597","375.173746636","0","red","3"
"100","96","19","660.236283368","1","1","3","296","0","left","0","out","Female","Right-handed","0","no","left","s","723.771233651","415.717086919","0","red","3"
"100","96","19","660.066237912","1","1","3","297","0","left","3","in","Female","Right-handed","0","no","left","s","708.489226907","583.415703296","0","green","0"
"100","96","19","658.595358609","1","1","3","298","1","left","0","in","Female","Right-handed","0","no","left","s","535.043421424","535.039572861","0","green","1"
"100","96","19","657.289385948","1","1","3","299","2","left","3","in","Female","Right-handed","0","no","left","s","420.63811759","671.925301936","0","green","2"
"100","96","19","657.335100399","1","1","3","300","0","right","0","out","Female","Right-handed","0","no","right","s","683.313203204","639.219883222","0","green","2"
"100","96","19","655.978011112","1","1","3","301","0","left","3","in","Female","Right-handed","0","no","left","d","635.850786037","439.971700225","0","red","1"
"100","96","19","655.322817884","1","1","3","302","3","right","3","out","Female","Right-handed","0","no","right","d","667.638001493","527.693626071","0","green","0"
"100","96","19","654.514727422","1","1","3","303","0","left","0","in","Female","Right-handed","0","no","left","s","718.069265175","447.120087388","0","red","1"
"100","96","19","654.166183805","1","1","3","304","1","left","0","out","Female","Right-handed","0","no","left","d","565.738606807","679.855909759","0","green","3"
"100","96","19","658.254313202","1","1","3","305","1","right","2","in","Female","Right-handed","0","no","right","d","1541.29573457","519.252442074","0","red","3"
"100","96","19","659.875120025","1","1","3","306","1","left","0","out","Female","Right-handed","0","no","left","d","626.941680783","991.037014848","0","green","2"
"100","96","19","659.026573121","1","1","3","307","1","right","0","out","Female","Right-handed","0","no","right","d","576.625232597","583.598189379","0","red","1"
"100","96","19","658.838433463","1","1","3","308","2","left","3","in","Female","Right-handed","0","no","left","s","659.21477746","623.091833796","0","green","1"
"100","96","19","657.249195156","1","1","3","309","3","right","0","out","Female","Right-handed","0","no","right","d","468.818291968","543.724819967","0","green","3"
"100","0","19","898.113754576","1","0","4","310","0","left","2","in","Female","Right-handed","0","no","left","d","1227.71601189","568.511497265","0","green","3"
"100","50","19","716.911729333","1","1","4","311","1","right","0","in","Female","Right-handed","0","no","right","d","639.177228302","432.242179878","0","green","2"
"100","66","19","642.217540515","1","1","4","312","2","right","0","out","Female","Right-handed","0","no","right","s","449.833004388","535.825321371","0","green","3"
"100","75","19","589.53680446","1","1","4","313","0","right","1","in","Female","Right-handed","0","no","right","s","502.412408284","360.576784307","0","green","0"
"100","80","19","695.829888334","1","1","4","314","0","right","2","out","Female","Right-handed","0","no","right","d","898.070458229","1343.93398943","0","green","1"
"100","83","19","667.374241218","1","1","4","315","2","right","0","out","Female","Right-handed","0","no","right","s","586.569601603","463.622409676","0","green","3"
"100","85","19","655.368023069","1","1","4","316","0","left","0","out","Female","Right-handed","0","no","left","s","686.405203771","480.256224571","0","red","3"
"100","75","19","673.878007252","1","0","4","317","1","right","0","out","Female","Right-handed","0","no","right","d","702.965895949","903.929897121","0","green","3"
"100","77","19","656.330795348","1","1","4","318","1","left","0","out","Female","Right-handed","0","no","left","s","623.484708051","408.421492178","0","green","3"
"100","80","19","638.154279956","1","1","4","319","2","right","1","in","Female","Right-handed","0","no","right","s","509.098647037","440.032635824","0","green","3"
"100","81","19","632.529285678","1","1","4","320","1","right","1","in","Female","Right-handed","0","no","right","s","656.785371352","495.773314441","0","green","0"
"100","83","19","621.845246457","1","1","4","321","3","left","0","in","Female","Right-handed","0","no","left","d","504.303015414","504.338614633","0","red","3"
"100","84","19","622.475200075","1","1","4","322","2","right","0","in","Female","Right-handed","0","no","right","d","820.052686843","440.01660014","0","green","1"
"100","85","19","641.199683117","1","1","4","323","1","right","1","in","Female","Right-handed","0","no","right","s","1097.59156856","671.644356755","0","red","3"
"100","86","19","646.001053224","1","1","4","324","0","left","3","out","Female","Right-handed","0","no","left","s","914.183754825","512.256714622","0","green","1"
"100","87","19","640.514774718","1","1","4","325","2","right","3","out","Female","Right-handed","0","no","right","d","564.600073251","551.84112101","0","green","0"
"100","88","19","638.302189331","1","1","4","326","3","left","2","in","Female","Right-handed","0","no","left","d","581.375322878","624.42632341","0","green","1"
"100","88","19","648.227705927","1","1","4","327","0","left","1","in","Female","Right-handed","0","no","left","s","1154.05353224","479.869443877","0","green","2"
"100","89","19","649.486788909","1","1","4","328","3","right","0","out","Female","Right-handed","0","no","right","s","832.694899306","511.605665856","0","red","1"
"100","90","19","665.621129387","1","1","4","329","3","right","0","out","Female","Right-handed","0","no","right","d","1456.07633755","488.270859378","0","green","2"
"100","90","19","654.765890775","1","1","4","330","2","left","0","out","Female","Right-handed","0","no","left","s","451.626435274","423.695801794","0","red","2"
"100","90","19","645.887768406","1","1","4","331","1","left","0","in","Female","Right-handed","0","no","left","d","479.474324625","439.420072699","0","green","1"
"100","91","19","638.682004552","1","1","4","332","3","right","0","in","Female","Right-handed","0","no","right","d","488.16374101","472.146658517","0","red","3"
"100","91","19","630.996163142","1","1","4","333","2","right","3","out","Female","Right-handed","0","no","right","d","524.615736907","383.827884514","0","red","2"
"100","92","19","624.285947032","1","1","4","334","0","left","1","out","Female","Right-handed","0","no","left","d","550.234986912","376.246533887","0","red","3"
"100","92","19","622.695740069","1","1","4","335","3","left","1","in","Female","Right-handed","0","no","left","s","461.93192788","703.949204085","0","red","3"
"100","92","19","625.004522657","1","1","4","336","2","right","0","out","Female","Right-handed","0","no","right","d","842.509699985","527.556039904","0","red","1"
"100","92","19","623.02726726","1","1","4","337","2","left","0","out","Female","Right-handed","0","no","left","s","603.131576635","536.151166467","0","red","3"
"100","93","19","620.138746488","1","1","4","338","1","left","3","in","Female","Right-handed","0","no","left","d","646.747033238","431.773296482","0","red","0"
"100","93","19","630.313557487","1","1","4","339","3","right","1","out","Female","Right-handed","0","no","right","s","1019.41344034","831.352712564","0","red","0"
"100","93","19","630.769057122","1","1","4","340","1","right","3","in","Female","Right-handed","0","no","right","s","744.908510009","543.959582379","0","red","2"
"100","93","19","627.797129396","1","1","4","341","3","right","2","out","Female","Right-handed","0","no","right","d","519.733833305","551.600906465","0","red","3"
"100","93","19","631.775623113","1","1","4","342","1","right","2","in","Female","Right-handed","0","no","right","d","967.070723138","551.104120979","0","green","3"
"100","94","19","628.688301621","1","1","4","343","2","right","0","out","Female","Right-handed","0","no","right","s","509.737508683","543.87587611","0","green","2"
"100","94","19","628.365411268","1","1","4","344","1","right","2","out","Female","Right-handed","0","no","right","s","843.392945454","391.381333053","0","red","1"
"100","94","19","630.314532991","1","1","4","345","2","left","2","in","Female","Right-handed","0","no","left","s","685.069752018","711.997834541","0","green","3"
"100","94","19","631.876359122","1","1","4","346","3","left","3","in","Female","Right-handed","0","no","left","d","896.539691844","479.664507837","0","green","1"
"100","94","19","631.581230343","1","1","4","347","0","left","0","out","Female","Right-handed","0","no","left","s","530.219566998","711.103364094","0","green","1"
"100","94","19","629.716886136","1","1","4","348","0","right","2","out","Female","Right-handed","0","no","right","d","621.798395534","495.945216972","0","red","0"
"100","95","19","627.688983742","1","1","4","349","3","right","0","in","Female","Right-handed","0","no","right","s","625.531182029","471.670398705","0","red","2"
"100","95","19","626.858842787","1","1","4","350","2","left","3","out","Female","Right-handed","0","no","left","s","667.192850907","520.113558299","0","green","1"
"100","95","19","627.629512354","1","1","4","351","3","right","0","in","Female","Right-handed","0","no","right","s","926.710189651","391.743739509","0","red","3"
"100","95","19","627.903098346","1","1","4","352","0","right","0","in","Female","Right-handed","0","no","right","d","711.416380644","567.371039426","0","red","1"
"100","95","19","624.246796639","1","1","4","353","1","left","0","out","Female","Right-handed","0","no","left","s","630.090126958","303.96151949","0","red","2"
"100","95","19","621.944106448","1","1","4","354","1","right","0","in","Female","Right-handed","0","no","right","d","553.584841276","487.666634809","0","green","1"
"100","95","19","623.342241458","1","1","4","355","0","left","0","out","Female","Right-handed","0","no","left","d","893.187592485","479.329041329","0","green","2"
"100","95","19","623.885791212","1","1","4","356","3","right","2","out","Female","Right-handed","0","no","right","s","905.860272747","391.917887035","0","red","0"
"100","95","19","619.669090567","1","1","4","357","2","right","1","in","Female","Right-handed","0","no","right","s","443.43765294","399.530667604","0","red","2"
"100","93","19","623.525242333","1","0","4","358","1","right","0","in","Female","Right-handed","0","no","right","d","554.070401784","1063.17065239","0","green","2"
"100","94","19","622.749218581","1","1","4","359","0","left","3","out","Female","Right-handed","0","no","left","s","497.632812345","671.815297144","0","red","0"
"100","94","19","621.124315124","1","1","4","360","0","left","0","in","Female","Right-handed","0","no","left","d","608.369793132","471.388491382","0","green","1"
"100","94","19","620.208790525","1","1","4","361","1","left","2","out","Female","Right-handed","0","no","left","d","579.041810159","567.992261821","0","red","0"
"100","94","19","625.790451807","1","1","4","362","3","right","1","in","Female","Right-handed","0","no","right","d","1304.46920924","527.60446767","0","red","0"
"100","94","19","631.768685925","1","1","4","363","2","left","1","in","Female","Right-handed","0","no","left","s","1506.14006336","391.090125034","0","red","0"
"100","94","19","631.186932749","1","1","4","364","3","right","0","out","Female","Right-handed","0","no","right","s","735.778112317","463.766410117","0","green","1"
"100","94","19","633.278825562","1","1","4","365","1","left","0","in","Female","Right-handed","0","no","left","s","825.300524752","671.365335854","0","red","2"
"100","94","19","639.385914442","1","1","4","366","0","right","0","in","Female","Right-handed","0","no","right","d","1347.92527115","614.840512295","0","red","3"
"100","94","19","638.275583269","1","1","4","367","0","left","2","out","Female","Right-handed","0","no","left","d","678.415263919","471.558148917","0","red","0"
"100","94","19","636.164055352","1","1","4","368","1","right","0","out","Female","Right-handed","0","no","right","d","588.104537265","439.286335096","0","green","1"
"100","95","19","637.175394996","1","1","4","369","3","left","1","out","Female","Right-handed","0","no","left","d","865.804737967","527.884129997","0","green","2"
"100","95","19","636.170095935","1","1","4","370","3","right","0","in","Female","Right-handed","0","no","right","d","472.446525805","679.25777875","0","red","3"
"100","95","19","633.392846757","1","1","4","371","1","left","0","in","Female","Right-handed","0","no","left","s","473.060692498","454.900601211","0","green","1"
"100","95","19","637.658979934","1","1","4","372","1","left","0","in","Female","Right-handed","0","no","left","d","1332.69457859","471.623895221","0","red","3"
"100","95","19","639.995403973","1","1","4","373","2","left","1","in","Female","Right-handed","0","no","left","s","1031.18363231","543.196604541","0","green","0"
"100","95","19","640.523877898","1","1","4","374","0","right","0","in","Female","Right-handed","0","no","right","d","821.818857066","526.873561198","0","green","3"
"100","95","19","641.363220019","1","1","4","375","0","left","3","out","Female","Right-handed","0","no","left","s","736.393241152","655.447674601","0","red","2"
"100","95","19","640.522378055","1","1","4","376","2","right","0","out","Female","Right-handed","0","no","right","s","723.074002115","446.979614798","0","red","1"
"100","95","19","639.989119694","1","1","4","377","3","right","3","out","Female","Right-handed","0","no","right","d","544.805304348","663.716314641","0","green","0"
"100","95","19","639.21075915","1","1","4","378","1","right","3","out","Female","Right-handed","0","no","right","d","613.210003958","559.354480338","0","green","0"
"100","95","19","637.077831987","1","1","4","379","0","right","1","out","Female","Right-handed","0","no","right","d","484.931588566","494.880126848","0","red","0"
"100","95","19","636.639874939","1","1","4","380","0","left","0","out","Female","Right-handed","0","no","left","s","828.463403041","383.502360132","0","green","2"
"100","95","19","635.86919812","1","1","4","381","0","right","0","in","Female","Right-handed","0","no","right","s","483.116028436","679.1862596","0","green","3"
"100","95","19","637.196948749","1","1","4","382","3","left","2","in","Female","Right-handed","0","no","left","d","642.781087899","822.80890019","0","green","0"
"100","95","19","638.361571075","1","1","4","383","0","right","0","out","Female","Right-handed","0","no","right","s","599.388206588","847.369795057","0","green","2"
"100","96","19","636.623802215","1","1","4","384","2","left","2","out","Female","Right-handed","0","no","left","s","521.03528941","495.022523722","0","green","1"
"100","96","19","641.918990544","1","1","4","385","1","right","0","in","Female","Right-handed","0","no","right","d","1318.50396049","759.612269992","0","green","3"
"100","96","19","640.248316189","1","1","4","386","3","left","0","out","Female","Right-handed","0","no","left","d","579.205374134","447.348756241","0","red","2"
"100","96","19","640.192085619","1","1","4","387","3","left","3","in","Female","Right-handed","0","no","left","d","776.784563153","494.940100306","0","red","0"
"100","96","19","640.631843456","1","1","4","388","0","left","0","in","Female","Right-handed","0","no","left","s","910.395805579","439.470104033","0","red","2"
"100","96","19","641.235873364","1","1","4","389","1","right","1","out","Female","Right-handed","0","no","right","d","923.002418823","454.906053342","0","red","0"
"100","96","19","641.50514833","1","1","4","390","1","left","2","in","Female","Right-handed","0","no","left","d","847.530151896","478.564139207","0","red","0"
"100","96","19","644.947651549","1","1","4","391","2","left","2","out","Female","Right-handed","0","no","left","s","1304.27934674","543.301477913","0","green","0"
"100","96","19","644.662931432","1","1","4","392","1","left","3","out","Female","Right-handed","0","no","left","s","827.8598199","414.77194371","0","red","1"
"100","96","19","643.13550133","1","1","4","393","0","left","3","out","Female","Right-handed","0","no","left","s","537.32337496","495.394230874","0","green","0"
"100","96","19","643.42334911","1","1","4","394","3","right","0","in","Female","Right-handed","0","no","right","s","832.13461251","503.070512751","0","red","1"
"100","96","19","642.6537366","1","1","4","395","2","left","0","out","Female","Right-handed","0","no","left","d","659.763839276","494.709507172","0","green","1"
"100","96","19","643.190136077","1","1","4","396","2","left","2","out","Female","Right-handed","0","no","left","d","803.361464199","575.279518006","0","red","0"
"100","96","19","645.158266879","1","1","4","397","1","left","1","in","Female","Right-handed","0","no","left","d","1105.76046665","527.010826652","0","red","2"
"100","96","19","645.02224589","1","1","4","398","3","right","0","in","Female","Right-handed","0","no","right","d","795.46613488","470.638662804","0","red","1"
"100","96","19","645.722698696","1","1","4","399","2","right","0","in","Female","Right-handed","0","no","right","d","609.108396733","807.017600126","0","green","3"
"100","96","19","644.695165279","1","1","4","400","3","left","0","in","Female","Right-handed","0","no","left","d","537.728757048","566.705558545","0","green","2"
"100","96","19","642.408334941","1","1","4","401","0","left","0","in","Female","Right-handed","0","no","left","s","565.302115492","303.311432865","0","red","1"
"100","96","19","641.424836311","1","1","4","402","2","right","0","out","Female","Right-handed","0","no","right","s","558.875334104","543.010590606","0","red","2"
"100","95","19","642.064529953","1","0","4","403","2","left","3","in","Female","Right-handed","0","no","left","s","964.586154277","438.525922966","0","green","0"
"100","95","19","640.229700875","1","1","4","404","3","left","3","out","Female","Right-handed","0","no","left","d","544.248866117","391.262668991","0","green","2"
"100","95","19","637.970969038","1","1","4","405","2","left","0","in","Female","Right-handed","0","no","left","d","399.890187637","446.892701391","0","red","2"
"100","100","19","621.805451234","1","1","5","406","1","right","0","in","Female","Right-handed","0","no","right","d","820.259226451","423.351676018","0","red","2"
"100","100","19","643.85138962","1","1","5","407","2","left","1","in","Female","Right-handed","0","no","left","s","659.968775316","671.825880696","0","green","0"
"100","100","19","625.057060308","1","1","5","408","0","left","3","out","Female","Right-handed","0","no","left","s","711.499445486","463.437357884","0","red","0"
"100","100","19","613.463407852","1","1","5","409","3","right","3","in","Female","Right-handed","0","no","right","s","789.195861768","368.1690392","0","red","2"
"100","80","19","647.621619437","1","0","5","410","1","left","0","in","Female","Right-handed","0","no","left","d","688.740961486","879.767970068","0","red","2"
"100","66","19","828.79373813","1","0","5","411","0","right","0","out","Female","Right-handed","0","no","right","s","902.157633338","2567.15102984","0","red","3"
"100","71","19","799.210833598","1","1","5","412","2","left","2","out","Female","Right-handed","0","no","left","s","763.708745798","479.718067021","0","red","0"
"100","75","19","761.857225647","1","1","5","413","2","left","2","in","Female","Right-handed","0","no","left","d","577.431506784","423.332433197","0","red","3"
"100","66","19","910.352045979","1","0","5","414","1","left","0","out","Female","Right-handed","0","no","left","s","1212.97376626","2983.647451","0","red","3"
"100","70","19","866.30881969","1","1","5","415","2","left","1","in","Female","Right-handed","0","no","left","d","476.461219622","463.378346567","0","red","2"
"100","72","19","827.559938033","1","1","5","416","3","left","0","in","Female","Right-handed","0","no","left","s","473.04337396","407.098868971","0","green","3"
"100","75","19","819.824218437","1","1","5","417","1","right","0","out","Female","Right-handed","0","no","right","s","781.718743084","687.743862662","0","green","3"
"100","76","19","804.743123393","1","1","5","418","3","right","2","out","Female","Right-handed","0","no","right","d","800.204679469","447.335286266","0","red","0"
"100","78","19","800.320319658","1","1","5","419","0","left","0","out","Female","Right-handed","0","no","left","d","1013.81987309","471.827869121","0","green","2"
"100","80","19","775.857337149","1","1","5","420","0","right","1","out","Female","Right-handed","0","no","right","s","499.211044353","367.540119678","0","red","0"
"100","81","19","760.599105979","1","1","5","421","2","left","3","out","Female","Right-handed","0","no","left","d","648.19473478","415.256542078","0","green","0"
"100","82","19","749.315342327","1","1","5","422","1","right","0","out","Female","Right-handed","0","no","right","d","689.825935859","447.724311958","0","red","1"
"100","83","19","734.818536994","1","1","5","423","3","left","2","in","Female","Right-handed","0","no","left","d","489.414524353","487.331168302","0","red","0"
"100","84","19","737.666685448","1","1","5","424","0","right","0","out","Female","Right-handed","0","no","right","d","1049.9344782","527.932237049","0","green","1"
"100","85","19","739.013552077","1","1","5","425","3","right","1","in","Female","Right-handed","0","no","right","d","1057.63160646","471.576429597","0","red","2"
"100","85","19","741.853826769","1","1","5","426","1","right","1","in","Female","Right-handed","0","no","right","d","1078.1329076","519.185733629","0","green","3"
"100","86","19","744.076651619","1","1","5","427","2","right","1","in","Female","Right-handed","0","no","right","d","1149.70433406","431.807612845","0","green","0"
"100","86","19","732.609684287","1","1","5","428","1","left","0","in","Female","Right-handed","0","no","left","s","617.339513272","343.33329271","0","red","3"
"100","87","19","725.709974559","1","1","5","429","0","left","0","in","Female","Right-handed","0","no","left","d","687.07741964","446.955881985","0","green","2"
"100","88","19","714.44547643","1","1","5","430","3","left","2","out","Female","Right-handed","0","no","left","d","384.587334503","503.60770816","0","red","3"
"100","88","19","705.959147541","1","1","5","431","2","left","1","in","Female","Right-handed","0","no","left","s","484.308121176","503.29372947","0","green","3"
"100","88","19","700.126089176","1","1","5","432","1","right","0","in","Female","Right-handed","0","no","right","d","674.032390798","422.900752586","0","red","3"
"100","89","19","694.232662058","1","1","5","433","0","left","0","in","Female","Right-handed","0","no","left","d","670.569324507","399.650935234","0","green","1"
"100","89","19","693.350263993","1","1","5","434","3","right","0","in","Female","Right-handed","0","no","right","s","930.177425221","407.108811095","0","green","1"
"100","90","19","686.115684845","1","1","5","435","2","right","0","out","Female","Right-handed","0","no","right","s","465.761249193","486.864529901","0","green","3"
"100","90","19","677.674922257","1","1","5","436","1","right","0","out","Female","Right-handed","0","no","right","s","489.424466477","359.479622815","0","green","1"
"100","90","19","674.967862485","1","1","5","437","3","right","0","out","Female","Right-handed","0","no","right","d","503.148125461","678.94989362","0","green","2"
"100","90","19","673.564022487","1","1","5","438","2","left","0","in","Female","Right-handed","0","no","left","d","713.59530937","543.686975753","0","green","3"
"100","91","19","674.01153026","1","1","5","439","1","right","2","out","Female","Right-handed","0","no","right","s","954.207859666","423.350713877","0","green","3"
"100","91","19","668.421876118","1","1","5","440","1","left","2","out","Female","Right-handed","0","no","left","d","493.866671627","462.88059894","0","green","1"
"100","91","19","663.493276095","1","1","5","441","2","left","0","in","Female","Right-handed","0","no","left","d","502.422350408","479.562200173","0","red","2"
"100","91","19","658.984032637","1","1","5","442","0","right","0","in","Female","Right-handed","0","no","right","s","666.069711608","327.23282466","0","red","3"
"100","92","19","651.938839091","1","1","5","443","3","right","0","in","Female","Right-handed","0","no","right","d","391.740532372","390.792823454","0","red","3"
"100","92","19","646.7971797","1","1","5","444","1","left","3","in","Female","Right-handed","0","no","left","s","575.457514097","327.370731542","0","green","0"
"100","92","19","642.440333626","1","1","5","445","1","right","1","in","Female","Right-handed","0","no","right","s","538.043056453","407.003617009","0","green","0"
"100","92","19","639.921158878","1","1","5","446","2","right","3","out","Female","Right-handed","0","no","right","s","583.627374324","494.680963655","0","green","2"
"100","92","19","638.729401286","1","1","5","447","0","left","2","in","Female","Right-handed","0","no","left","d","764.330609619","415.40407037","0","red","3"
"100","93","19","639.163452531","1","1","5","448","1","right","2","in","Female","Right-handed","0","no","right","d","764.01759307","550.769616613","0","red","0"
"100","93","19","641.182086036","1","1","5","449","2","right","0","in","Female","Right-handed","0","no","right","s","920.466535773","535.500117701","0","red","1"
"100","93","19","638.115797878","1","1","5","450","2","left","0","out","Female","Right-handed","0","no","left","d","535.146691229","471.251546642","0","red","3"
"100","93","19","642.192710769","1","1","5","451","3","right","1","in","Female","Right-handed","0","no","right","s","572.64806228","1078.65951945","0","green","0"
"100","93","19","639.089246988","1","1","5","452","3","left","3","in","Female","Right-handed","0","no","left","s","585.330684666","407.329141391","0","green","0"
"100","93","19","639.347924817","1","1","5","453","1","right","0","in","Female","Right-handed","0","no","right","d","760.049723449","542.961842128","0","green","1"
"100","93","19","638.71027246","1","1","5","454","3","left","1","in","Female","Right-handed","0","no","left","s","881.615601566","334.590317141","0","red","0"
"100","94","19","656.219443203","1","1","5","455","0","right","2","out","Female","Right-handed","0","no","right","s","405.147005528","2623.19061361","0","red","0"
"100","94","19","652.612153793","1","1","5","456","1","left","3","out","Female","Right-handed","0","no","left","d","433.737667758","510.757698892","0","red","2"
"100","92","19","663.68054273","1","0","5","457","0","right","2","in","Female","Right-handed","0","no","right","d","985.276676483","1471.06008058","0","green","1"
"100","92","19","660.36330155","1","1","5","458","0","left","0","out","Female","Right-handed","0","no","left","d","552.868046205","422.865474082","0","green","1"
"100","92","19","655.255457234","1","1","5","459","3","left","0","in","Female","Right-handed","0","no","left","s","434.527264832","334.552152213","0","red","2"
"100","92","19","652.987608265","1","1","5","460","0","left","3","out","Female","Right-handed","0","no","left","s","494.09181263","566.955715213","0","green","2"
"100","92","19","650.653723862","1","1","5","461","2","left","0","out","Female","Right-handed","0","no","left","d","549.761613524","494.818549823","0","green","2"
"100","92","19","646.605455029","1","1","5","462","2","left","0","out","Female","Right-handed","0","no","left","s","425.292955909","414.511844919","0","red","2"
"100","93","19","642.104323979","1","1","5","463","2","left","0","out","Female","Right-handed","0","no","left","s","340.060409629","431.019298625","0","green","3"
"100","93","19","638.318441329","1","1","5","464","3","left","1","in","Female","Right-handed","0","no","left","s","478.717440346","358.757054899","0","green","3"
"100","93","19","637.829664262","1","1","5","465","1","left","1","out","Female","Right-handed","0","no","left","d","578.471901955","639.51173267","0","red","2"
"100","93","19","636.651371498","1","1","5","466","3","left","3","in","Female","Right-handed","0","no","left","s","660.939254906","470.968356465","0","red","1"
"100","93","19","639.101829552","1","1","5","467","0","right","1","out","Female","Right-handed","0","no","right","s","1098.58161169","478.577929895","0","green","2"
"100","93","19","638.198679965","1","1","5","468","1","right","2","in","Female","Right-handed","0","no","right","d","621.214055213","543.192755977","0","green","0"
"100","93","19","638.356827682","1","1","5","469","2","right","2","in","Female","Right-handed","0","no","right","d","705.830510518","590.809757137","0","red","0"
"100","93","19","642.271538008","1","1","5","470","1","right","0","out","Female","Right-handed","0","no","right","d","963.358462319","822.267535502","0","red","2"
"100","93","19","641.924660897","1","1","5","471","0","left","3","in","Female","Right-handed","0","no","left","s","735.899342088","502.8559553","0","red","0"
"100","94","19","642.361560901","1","1","5","472","0","right","0","out","Female","Right-handed","0","no","right","s","615.837931832","726.555990514","0","red","3"
"100","94","19","638.879830038","1","1","5","473","0","left","2","out","Female","Right-handed","0","no","left","s","500.246949531","310.960774793","0","red","0"
"100","94","19","639.198776543","1","1","5","474","2","right","2","in","Female","Right-handed","0","no","right","d","754.960959523","566.813318341","0","green","1"
"100","94","19","635.974769363","1","1","5","475","3","right","3","out","Female","Right-handed","0","no","right","s","460.530409108","366.50613878","0","green","0"
"100","94","19","637.716031943","1","1","5","476","3","left","0","out","Female","Right-handed","0","no","left","d","768.116313871","751.092511144","0","red","1"
"100","94","19","639.826809358","1","1","5","477","0","left","0","out","Female","Right-handed","0","no","left","d","1012.7227116","566.661300058","0","green","2"
"100","94","19","638.90787055","1","1","5","478","3","right","0","in","Female","Right-handed","0","no","right","s","779.27490486","366.213647906","0","green","1"
"100","94","19","636.454707228","1","1","5","479","1","left","0","out","Female","Right-handed","0","no","left","s","435.852774461","478.89479501","0","green","1"
"100","94","19","634.577063114","1","1","5","480","0","right","0","in","Female","Right-handed","0","no","right","s","616.691030216","374.571767062","0","red","2"
"100","94","19","635.973104546","1","1","5","481","0","left","3","out","Female","Right-handed","0","no","left","d","691.175499015","790.176924907","0","red","1"
"100","94","19","637.665288228","1","1","5","482","1","right","0","out","Female","Right-handed","0","no","right","d","557.750270522","974.792225644","0","red","2"
"100","94","19","636.244634769","1","1","5","483","3","left","0","in","Female","Right-handed","0","no","left","s","751.274997226","302.433639529","0","green","2"
"100","94","19","633.793777224","1","1","5","484","2","right","0","out","Female","Right-handed","0","no","right","s","590.152294097","295.101483429","0","green","1"
"100","95","19","632.305905686","1","1","5","485","3","right","0","in","Female","Right-handed","0","no","right","s","470.733273339","558.79483497","0","green","2"
"100","95","19","630.564715891","1","1","5","486","3","right","0","in","Female","Right-handed","0","no","right","d","488.196774519","494.342290011","0","red","3"
"100","95","19","631.251875099","1","1","5","487","3","left","0","in","Female","Right-handed","0","no","left","s","870.798249929","503.025292121","0","green","1"
"100","95","19","629.328600058","1","1","5","488","3","left","0","out","Female","Right-handed","0","no","left","d","464.675633393","478.564459922","0","green","3"
"100","95","19","627.831395887","1","1","5","489","0","left","1","out","Female","Right-handed","0","no","left","d","505.029111181","502.097788166","0","red","0"
"100","95","19","630.359149137","1","1","5","490","2","left","0","out","Female","Right-handed","0","no","left","d","1166.74064462","518.640199664","0","green","1"
"100","95","19","629.04966839","1","1","5","491","0","right","0","in","Female","Right-handed","0","no","right","s","581.258903814","454.228706055","0","red","1"
"100","95","19","627.698518983","1","1","5","492","2","right","3","out","Female","Right-handed","0","no","right","d","553.019743775","469.979596196","0","green","0"
"100","95","19","628.470433596","1","1","5","493","3","right","2","out","Female","Right-handed","0","no","right","d","920.66954753","470.584462192","0","red","1"
"100","95","19","626.378952601","1","1","5","494","0","right","0","out","Female","Right-handed","0","no","right","s","502.338644138","382.318605947","0","red","3"
"100","95","19","628.435399392","1","1","5","495","1","right","3","out","Female","Right-handed","0","no","right","s","543.906985336","1079.01134236","0","red","1"
"100","94","19","632.738510022","1","0","5","496","1","left","3","in","Female","Right-handed","0","no","left","d","1225.5637024","814.473230991","0","green","0"
"100","94","19","632.83378541","1","1","5","497","2","right","0","out","Female","Right-handed","0","no","right","d","797.022879072","485.984812283","0","green","1"
"100","94","19","633.863449248","1","1","5","498","2","right","3","in","Female","Right-handed","0","no","right","d","842.581219135","614.603825601","0","green","1"
"100","94","19","634.60201739","1","1","5","499","0","left","1","out","Female","Right-handed","0","no","left","d","848.168692829","558.409016417","0","green","3"
"100","94","19","632.995056925","1","1","5","500","2","left","0","in","Female","Right-handed","0","no","left","s","532.903619767","430.97792656","0","red","2"
"100","94","19","632.630179285","1","1","5","501","1","right","1","out","Female","Right-handed","0","no","right","s","781.431062916","414.502544222","0","red","0"
dis_reply=No
dis_loc=0
