"acc_1","acc_2","age","avg_rt","correct_1","correct_2","count_block_loop","count_trial_sequence","cue_position","detection","dis_position","dis_shape","gender","hand","high_loc","practice","response_keyboard_response_1","response_keyboard_response_2","response_time_keyboard_response_1","response_time_keyboard_response_2","subject_nr","tar_color","tar_position"
"100","100","18","847.37592915","1","1","0","0","3","left","2","in","Female","Right-handed","3","yes","left","s","925.129817253","769.622041047","27","green","3"
"100","100","18","812.349805342","1","1","0","1","2","left","2","in","Female","Right-handed","3","yes","left","s","920.765212215","633.882150853","27","green","1"
"100","100","18","890.325066701","1","1","0","2","2","left","3","out","Female","Right-handed","3","yes","left","s","707.352093641","1385.19908519","27","green","0"
"100","100","18","982.815189493","1","1","0","3","2","left","0","in","Female","Right-handed","3","yes","left","d","1366.77242765","1153.79868808","27","red","1"
"100","100","18","939.742376373","1","1","0","4","3","left","0","out","Female","Right-handed","3","yes","left","s","893.409539399","641.492708393","27","red","3"
"100","100","18","928.12825826","1","1","0","5","1","left","0","in","Female","Right-handed","3","yes","left","d","954.017864445","786.097470941","27","green","3"
"100","100","18","999.541561383","1","1","0","6","3","right","3","out","Female","Right-handed","3","yes","right","d","1814.52080267","1041.52195757","27","green","2"
"100","100","18","984.109834168","1","1","0","7","0","left","0","in","Female","Right-handed","3","yes","left","d","767.125277859","985.050209475","27","red","3"
"100","100","18","939.956168291","1","1","0","8","2","left","2","out","Female","Right-handed","3","yes","left","s","827.662083548","345.791599009","27","green","3"
"100","100","18","965.291095006","1","1","0","9","2","right","3","in","Female","Right-handed","3","yes","right","s","1833.29800127","553.312869604","27","red","1"
"100","100","18","983.52270413","1","1","0","10","1","right","3","out","Female","Right-handed","3","yes","right","d","1537.87206502","793.80552572","27","red","1"
"100","100","18","963.977068478","1","1","0","11","3","left","0","in","Female","Right-handed","3","yes","left","d","840.453144077","657.497008534","27","red","2"
"100","100","18","932.022652517","1","1","0","12","3","left","1","out","Female","Right-handed","3","yes","left","s","487.075361838","610.063960113","27","red","3"
"100","100","18","937.529686145","1","1","0","13","0","left","0","out","Female","Right-handed","3","yes","left","s","1008.68046146","1009.56178519","27","green","3"
"100","93","18","942.567476482","1","0","0","14","2","right","1","out","Female","Right-handed","3","yes","right","s","1433.00384184","593.189240538","27","green","0"
"100","93","18","951.076079678","1","1","0","15","0","left","0","in","Female","Right-handed","3","yes","left","d","1139.70263983","1017.7076154","27","red","2"
"100","94","18","950.886142939","1","1","0","16","2","right","2","in","Female","Right-handed","3","yes","right","d","838.365933438","1057.3283768","27","red","1"
"100","94","18","934.741723006","1","1","0","17","3","left","2","in","Female","Right-handed","3","yes","left","d","814.713552148","505.859616162","27","green","0"
"100","89","18","926.519448311","1","0","0","18","0","right","1","out","Female","Right-handed","3","yes","right","s","947.457326517","609.579681062","27","green","2"
"100","90","18","923.896060246","1","1","0","19","1","right","1","in","Female","Right-handed","3","yes","right","d","1123.08513337","625.018240643","27","green","2"
"100","90","18","927.548547524","1","1","0","20","1","right","1","in","Female","Right-handed","3","yes","right","d","1119.62975423","881.566831952","27","red","2"
"100","90","18","914.626654527","1","1","0","21","3","right","3","out","Female","Right-handed","3","yes","right","s","677.150720148","609.38308301","27","red","0"
"100","0","18","538.574750717","1","0","1","22","2","left","3","in","Female","Right-handed","3","no","left","s","563.098513584","514.050987849","27","green","0"
"100","50","18","648.683530696","1","1","1","23","2","left","0","out","Female","Right-handed","3","no","left","d","771.730739565","745.853881785","27","green","1"
"100","33","18","628.725915269","1","0","1","24","0","left","3","in","Female","Right-handed","3","no","left","s","856.265336171","321.356032658","27","red","1"
"100","50","18","631.780989129","1","1","1","25","2","left","0","out","Female","Right-handed","3","no","left","d","599.930340788","681.96208063","27","green","3"
"100","60","18","631.745710522","1","1","1","26","0","right","0","in","Female","Right-handed","3","no","right","d","573.631101876","689.578090317","27","green","3"
"100","66","18","646.578974742","1","1","1","27","1","right","3","out","Female","Right-handed","3","no","right","d","904.263804439","537.226787239","27","red","0"
"100","71","18","667.098676874","1","1","1","28","0","left","0","in","Female","Right-handed","3","no","left","s","674.754982061","905.678797269","27","green","1"
"100","62","18","673.945718893","1","0","1","29","1","left","2","out","Female","Right-handed","3","no","left","d","650.321660712","793.428365347","27","green","0"
"100","66","18","655.051898215","1","1","1","30","2","left","2","in","Female","Right-handed","3","no","left","s","453.782299568","554.020366018","27","red","3"
"100","70","18","659.25899853","1","1","1","31","0","left","3","in","Female","Right-handed","3","no","left","s","648.578897556","745.666905171","27","green","2"
"100","72","18","660.877121786","1","1","1","32","0","right","2","out","Female","Right-handed","3","no","right","d","457.00804705","897.108661636","27","green","3"
"100","75","18","686.700344907","1","1","1","33","3","right","2","in","Female","Right-handed","3","no","right","s","1099.78329314","841.728305341","27","green","1"
"100","76","18","686.204098678","1","1","1","34","3","right","3","out","Female","Right-handed","3","no","right","d","695.321447437","665.176840429","27","green","1"
"100","78","18","720.431316242","1","1","1","35","0","right","3","in","Female","Right-handed","3","no","right","d","1392.95107787","937.819211254","27","green","2"
"100","73","18","753.201806136","1","0","1","36","3","right","0","in","Female","Right-handed","3","no","right","d","726.426273967","1697.55105536","27","red","1"
"100","75","18","756.157850677","1","1","1","37","1","right","3","out","Female","Right-handed","3","no","right","s","800.041821185","800.955216375","27","green","2"
"100","76","18","756.681914256","1","1","1","38","0","left","1","in","Female","Right-handed","3","no","left","d","680.540352792","849.593510276","27","red","2"
"100","77","18","746.211104401","1","1","1","39","2","right","0","out","Female","Right-handed","3","no","right","d","583.153759882","553.260913838","27","red","2"
"100","73","18","748.216755066","1","0","1","40","2","right","2","out","Female","Right-handed","3","no","right","s","454.773307693","1113.86362638","27","red","3"
"100","75","18","755.898526862","1","1","1","41","1","right","3","out","Female","Right-handed","3","no","right","s","762.390568168","1041.31381379","27","green","2"
"100","71","18","759.23246856","1","0","1","42","0","left","3","in","Female","Right-handed","3","no","left","d","698.932373157","952.890231899","27","red","0"
"100","72","18","759.655477585","1","1","1","43","3","right","1","out","Female","Right-handed","3","no","right","s","511.536906073","1025.54042816","27","green","3"
"100","73","18","758.957687857","1","1","1","44","0","left","2","in","Female","Right-handed","3","no","left","s","758.022755984","729.189871704","27","green","1"
"100","75","18","756.241259859","1","1","1","45","1","left","3","out","Female","Right-handed","3","no","left","d","682.695234213","704.831597573","27","green","2"
"100","76","18","747.683969113","1","1","1","46","0","right","1","out","Female","Right-handed","3","no","right","s","491.264856703","593.3531257","27","green","0"
"100","76","18","744.235451047","1","1","1","47","3","left","0","out","Female","Right-handed","3","no","left","s","539.034976173","777.010022652","27","green","3"
"100","77","18","737.582402718","1","1","1","48","3","right","3","out","Female","Right-handed","3","no","right","s","727.572507959","401.633784333","27","red","2"
"100","78","18","759.691285163","1","1","1","49","0","right","3","in","Female","Right-handed","3","no","right","s","1320.10267999","1393.15954237","27","red","0"
"100","79","18","762.760827649","1","1","1","50","2","right","3","in","Female","Right-handed","3","no","right","d","1072.67585343","624.740181082","27","red","1"
"100","80","18","764.84579347","1","1","1","51","1","right","0","out","Female","Right-handed","3","no","right","s","593.318809238","1057.30079534","27","red","1"
"100","80","18","762.088429148","1","1","1","52","1","left","1","out","Female","Right-handed","3","no","left","s","685.8398409","672.895158075","27","red","0"
"100","81","18","763.491836971","1","1","1","53","3","left","3","in","Female","Right-handed","3","no","left","d","724.469273457","889.525685552","27","green","1"
"100","81","18","757.177969422","1","1","1","54","1","right","3","in","Female","Right-handed","3","no","right","d","549.159615489","561.108800184","27","green","0"
"100","82","18","750.004768272","1","1","1","55","1","left","3","in","Female","Right-handed","3","no","left","d","521.697465424","504.880795193","27","red","1"
"100","82","18","744.928317766","1","1","1","56","2","right","0","out","Female","Right-handed","3","no","right","d","535.322704638","609.335296534","27","red","3"
"100","83","18","752.847371065","1","1","1","57","2","right","3","in","Female","Right-handed","3","no","right","s","811.120265731","1248.90820731","27","red","1"
"100","83","18","752.921447832","1","1","1","58","2","right","3","in","Female","Right-handed","3","no","right","s","925.584269847","585.592153012","27","red","1"
"97","84","18","769.767793174","0","1","1","59","2","left","2","in","Female","Right-handed","3","no","right","s","494.165078862","2292.00006286","27","green","0"
"97","82","18","768.597255096","1","0","1","60","1","left","3","out","Female","Right-handed","3","no","left","d","647.631827333","800.601788882","27","green","2"
"97","82","18","765.823168551","1","1","1","61","2","left","3","out","Female","Right-handed","3","no","left","d","506.229079386","809.038507241","27","green","0"
"97","82","18","765.553846703","1","1","1","62","2","right","2","out","Female","Right-handed","3","no","right","s","820.79013174","688.771813805","27","red","1"
"97","83","18","763.539543507","1","1","1","63","0","left","3","in","Female","Right-handed","3","no","left","s","721.53858341","640.367641564","27","red","1"
"97","83","18","761.4561699","1","1","1","64","2","left","3","out","Female","Right-handed","3","no","left","s","722.857041145","625.051915677","27","red","2"
"97","84","18","759.792174896","1","1","1","65","3","left","0","out","Female","Right-handed","3","no","left","d","535.690564288","840.790215126","27","red","3"
"97","84","18","762.169278656","1","1","1","66","2","left","3","out","Female","Right-handed","3","no","left","d","916.326201389","817.197486752","27","green","2"
"97","84","18","760.316419677","1","1","1","67","0","right","3","in","Female","Right-handed","3","no","right","d","704.888364057","648.987167247","27","green","2"
"97","85","18","755.936783849","1","1","1","68","1","left","0","out","Female","Right-handed","3","no","left","d","523.400780683","585.546290823","27","green","3"
"97","85","18","751.322954421","1","1","1","69","3","left","3","out","Female","Right-handed","3","no","left","d","580.060467531","488.88547506","27","red","0"
"97","85","18","747.179241429","1","1","1","70","3","right","2","in","Female","Right-handed","3","no","right","d","455.72615078","640.835884885","27","green","3"
"98","84","18","740.782755304","1","0","1","71","1","left","1","out","Female","Right-handed","3","no","left","s","317.291616488","537.418253857","27","red","3"
"98","84","18","740.589593678","1","1","1","72","3","right","1","in","Female","Right-handed","3","no","right","s","852.936318588","608.92670613","27","red","2"
"98","84","18","736.023168152","1","1","1","73","0","left","3","out","Female","Right-handed","3","no","left","d","501.619127675","504.651804966","27","red","0"
"98","84","18","732.904823929","1","1","1","74","0","left","1","in","Female","Right-handed","3","no","left","d","564.178680369","577.323168391","27","red","3"
"98","85","18","731.127314563","1","1","1","75","0","right","3","in","Female","Right-handed","3","no","right","d","608.867053214","664.971583083","27","red","1"
"98","85","18","727.579126343","1","1","1","76","3","left","2","in","Female","Right-handed","3","no","left","d","575.462382261","496.491542595","27","red","3"
"98","85","18","730.384000987","1","1","1","77","0","right","0","in","Female","Right-handed","3","no","right","d","1104.17996964","665.124243234","27","red","3"
"98","85","18","726.05642251","1","1","1","78","3","right","3","in","Female","Right-handed","3","no","right","s","678.693678105","288.730377478","27","red","0"
"98","86","18","729.648291758","1","1","1","79","3","right","3","in","Female","Right-handed","3","no","right","d","612.445586758","1256.32409109","27","green","2"
"98","86","18","729.330844798","1","1","1","80","1","left","2","out","Female","Right-handed","3","no","left","d","380.942881691","1040.89496051","27","red","3"
"98","86","18","725.734003477","1","1","1","81","2","right","3","out","Female","Right-handed","3","no","right","d","482.590488823","544.450242252","27","green","0"
"98","86","18","725.986400744","1","1","1","82","0","right","2","out","Female","Right-handed","3","no","right","s","521.177266337","961.083207159","27","green","0"
"98","87","18","724.733019835","1","1","1","83","3","right","3","out","Female","Right-handed","3","no","right","s","431.754337745","864.799231055","27","green","0"
"98","87","18","727.639819846","1","1","1","84","1","right","3","in","Female","Right-handed","3","no","right","d","575.339227854","1240.38361315","27","green","0"
"98","87","18","724.47277125","1","1","1","85","1","right","2","in","Female","Right-handed","3","no","right","d","456.972447729","592.924971705","27","green","3"
"98","87","18","724.574741687","1","1","1","86","3","right","3","out","Female","Right-handed","3","no","right","s","661.657639085","800.544060253","27","green","2"
"98","87","18","724.930458626","1","1","1","87","1","left","0","in","Female","Right-handed","3","no","left","d","864.095583215","632.00853614","27","green","2"
"98","88","18","723.46420415","1","1","1","88","2","right","3","in","Female","Right-handed","3","no","right","d","556.669789358","696.713028101","27","green","2"
"98","88","18","724.190810644","1","1","1","89","1","left","3","out","Female","Right-handed","3","no","left","s","641.366988269","904.379903125","27","green","1"
"98","88","18","723.796379358","1","1","1","90","2","right","1","in","Female","Right-handed","3","no","right","d","497.011100253","896.93900361","27","green","2"
"98","88","18","722.207490986","1","1","1","91","2","right","3","out","Female","Right-handed","3","no","right","d","640.67456544","584.473821189","27","red","1"
"98","88","18","722.911424856","1","1","1","92","3","left","3","in","Female","Right-handed","3","no","left","s","624.116391178","920.257200284","27","green","1"
"98","87","18","719.902377682","1","0","1","93","0","left","3","in","Female","Right-handed","3","no","left","d","555.764732747","456.755323943","27","red","1"
"98","87","18","716.723332617","1","1","1","94","2","right","1","out","Female","Right-handed","3","no","right","s","319.324305645","656.339870245","27","red","0"
"98","87","18","715.81559817","1","1","1","95","2","right","1","out","Female","Right-handed","3","no","right","s","634.053733166","665.048233873","27","red","3"
"98","88","18","714.472445324","1","1","1","96","1","left","1","out","Female","Right-handed","3","no","left","d","525.502744194","704.655525255","27","green","3"
"98","88","18","717.502331047","1","1","1","97","0","right","0","out","Female","Right-handed","3","no","right","s","497.280821235","1392.20669928","27","green","2"
"98","88","18","714.84357443","1","1","1","98","1","left","1","in","Female","Right-handed","3","no","left","s","528.772750291","496.783392885","27","red","2"
"98","88","18","714.460897295","1","1","1","99","3","right","3","in","Female","Right-handed","3","no","right","s","921.52562654","448.4638893","27","red","1"
"98","87","18","714.8160501","1","0","1","100","3","right","2","in","Female","Right-handed","3","no","right","d","476.963551106","1008.07238657","27","red","0"
"98","87","18","713.188399865","1","1","1","101","3","left","1","out","Female","Right-handed","3","no","left","s","528.591867255","640.616195382","27","red","3"
"98","87","18","713.997147786","1","1","1","102","3","left","0","in","Female","Right-handed","3","no","left","d","965.173601212","592.220361721","27","red","2"
"98","87","18","714.33037994","1","1","1","103","2","right","3","out","Female","Right-handed","3","no","right","s","729.752084404","752.892284473","27","red","2"
"98","87","18","714.621847478","1","1","1","104","0","left","3","out","Female","Right-handed","3","no","left","s","564.472454945","912.571916241","27","red","2"
"98","88","18","715.086624556","1","1","1","105","1","left","3","out","Female","Right-handed","3","no","left","s","715.13262992","792.193614123","27","red","1"
"98","88","18","714.850765175","1","1","1","106","2","left","1","in","Female","Right-handed","3","no","left","d","685.518484867","704.558669445","27","green","3"
"98","88","18","715.693735036","1","1","1","107","3","right","3","out","Female","Right-handed","3","no","right","d","942.280672102","632.411674397","27","green","2"
"98","88","18","714.458900698","1","1","1","108","3","right","1","in","Female","Right-handed","3","no","right","s","399.741568172","816.784727057","27","green","0"
"98","87","18","714.856359801","1","0","1","109","3","right","3","out","Female","Right-handed","3","no","right","s","418.394970939","1080.47563259","27","red","0"
"98","87","18","713.448290876","1","1","1","110","1","left","3","in","Female","Right-handed","3","no","left","d","579.021672931","600.054778054","27","red","0"
"98","87","18","711.451070373","1","1","1","111","2","left","3","out","Female","Right-handed","3","no","left","s","434.679896358","632.716994699","27","red","0"
"98","87","18","711.003543942","1","1","1","112","0","right","2","in","Female","Right-handed","3","no","right","s","485.249212886","856.203117538","27","red","3"
"98","88","18","711.475008851","1","1","1","113","0","left","3","in","Female","Right-handed","3","no","left","s","468.867752371","1039.8888788","27","green","0"
"98","88","18","710.758889689","1","1","1","114","1","left","0","in","Female","Right-handed","3","no","left","d","577.385387024","712.366466466","27","green","3"
"98","88","18","709.645296882","1","1","1","115","1","left","3","in","Female","Right-handed","3","no","left","s","548.066940835","664.095390786","27","green","1"
"98","87","18","709.620055655","1","0","1","116","1","left","2","out","Female","Right-handed","3","no","left","s","725.752452585","688.742308061","27","red","1"
"98","86","18","710.325126367","1","0","1","117","0","left","1","out","Female","Right-handed","3","no","left","d","426.311169495","1128.30251854","27","green","3"
"100","100","18","451.442045107","1","1","2","118","3","right","3","out","Female","Right-handed","3","no","right","s","501.3407474","401.543342815","27","green","2"
"100","100","18","581.535193457","1","1","2","119","0","left","3","in","Female","Right-handed","3","no","left","d","774.121987648","649.134695964","27","red","1"
"100","100","18","567.390957837","1","1","2","120","1","left","3","in","Female","Right-handed","3","no","left","d","501.650236992","576.554736201","27","red","0"
"100","100","18","563.364586437","1","1","2","121","2","right","3","in","Female","Right-handed","3","no","right","d","517.234721717","585.336222758","27","red","0"
"100","100","18","593.579293639","1","1","2","122","1","right","2","out","Female","Right-handed","3","no","right","s","619.99841567","808.877829224","27","red","3"
"100","100","18","568.977265718","1","1","2","123","0","left","1","out","Female","Right-handed","3","no","left","d","530.41961978","361.514632444","27","red","0"
"100","100","18","576.644398841","1","1","2","124","2","right","3","in","Female","Right-handed","3","no","right","s","772.137084967","473.157310192","27","green","2"
"100","100","18","575.22326948","1","1","2","125","2","left","3","in","Female","Right-handed","3","no","left","d","593.695648897","536.855079013","27","red","2"
"100","100","18","584.623060385","1","1","2","126","2","right","3","out","Female","Right-handed","3","no","right","d","510.341602745","809.3011725","27","green","0"
"100","100","18","605.110603242","1","1","2","127","0","left","0","in","Female","Right-handed","3","no","left","s","569.931017496","1009.06596041","27","red","3"
"100","90","18","623.508214244","1","0","2","128","3","right","3","in","Female","Right-handed","3","no","right","d","1150.50815625","464.460492291","27","red","1"
"100","91","18","618.472789664","1","1","2","129","2","left","1","out","Female","Right-handed","3","no","left","s","549.078795409","577.087443157","27","red","3"
"100","92","18","638.992898417","1","1","2","130","0","right","3","out","Female","Right-handed","3","no","right","s","809.644337126","960.824069759","27","green","2"
"100","92","18","649.089990639","1","1","2","131","1","right","2","in","Female","Right-handed","3","no","right","d","624.41048647","936.2938926","27","green","1"
"100","93","18","650.74592337","1","1","2","132","2","right","3","in","Female","Right-handed","3","no","right","s","690.869928741","656.988034459","27","green","1"
"100","93","18","644.3615807","1","1","2","133","1","right","3","out","Female","Right-handed","3","no","right","s","512.621242147","584.571639144","27","green","2"
"100","94","18","646.82240027","1","1","2","134","0","left","2","in","Female","Right-handed","3","no","left","d","755.204957478","617.186069312","27","red","3"
"100","94","18","653.183210035","1","1","2","135","1","right","3","out","Female","Right-handed","3","no","right","s","825.849083895","696.784868172","27","green","2"
"100","94","18","645.986662695","1","1","2","136","3","right","3","in","Female","Right-handed","3","no","right","d","408.439348218","624.458272945","27","red","0"
"100","90","18","647.03755119","1","0","2","137","3","left","1","out","Female","Right-handed","3","no","left","s","533.043065236","800.965799957","27","green","2"
"100","90","18","643.348790708","1","1","2","138","3","right","3","in","Female","Right-handed","3","no","right","d","570.536847382","568.610314759","27","red","2"
"100","90","18","633.956753443","1","1","2","139","3","left","1","out","Female","Right-handed","3","no","left","d","400.11969069","473.328251075","27","green","0"
"100","91","18","633.473093321","1","1","2","140","2","right","0","out","Female","Right-handed","3","no","right","d","524.817377087","720.847764154","27","red","3"
"100","91","18","639.199178041","1","1","2","141","3","right","3","out","Female","Right-handed","3","no","right","d","709.406912105","832.39134109","27","green","1"
"100","88","18","634.977686281","1","0","2","142","3","right","3","in","Female","Right-handed","3","no","right","d","498.142902089","569.180866038","27","green","0"
"100","88","18","631.912963188","1","1","2","143","0","right","3","out","Female","Right-handed","3","no","right","d","685.750361526","424.83941018","27","green","2"
"100","88","18","625.85176008","1","1","2","144","1","right","0","in","Female","Right-handed","3","no","right","d","407.252062756","529.268895783","27","green","3"
"100","89","18","628.462268775","1","1","2","145","3","right","0","in","Female","Right-handed","3","no","right","s","925.020774289","472.871232766","27","green","1"
"100","86","18","627.207985953","1","0","2","146","1","left","3","out","Female","Right-handed","3","no","left","s","487.626028812","696.550105082","27","red","2"
"100","83","18","635.470495272","1","0","2","147","2","right","1","in","Female","Right-handed","3","no","right","d","645.006457589","1105.16007347","27","green","3"
"96","83","18","630.594345096","0","1","2","148","3","left","3","out","Female","Right-handed","3","no","right","d","332.777962545","635.84171708","27","red","0"
"96","84","18","632.241896103","1","1","2","149","3","left","2","out","Female","Right-handed","3","no","left","s","558.291643108","808.340311549","27","green","3"
"96","84","18","626.506273795","1","1","2","150","3","left","1","out","Female","Right-handed","3","no","left","d","436.927785014","449.004934835","27","red","3"
"94","85","18","626.333505381","0","1","2","151","3","right","3","out","Female","Right-handed","3","no","left","s","541.661628775","699.602666678","27","red","1"
"94","85","18","628.199990663","1","1","2","152","0","left","3","out","Female","Right-handed","3","no","left","s","710.171816434","673.149164042","27","green","0"
"94","86","18","624.71628339","1","1","2","153","3","right","2","out","Female","Right-handed","3","no","right","s","452.799950738","552.773106926","27","red","0"
"94","86","18","621.925425031","1","1","2","154","2","left","2","out","Female","Right-handed","3","no","left","s","498.476124562","544.432923663","27","red","3"
"94","86","18","620.20640331","1","1","2","155","0","right","1","in","Female","Right-handed","3","no","right","d","504.185165218","609.020034079","27","red","3"
"94","84","18","623.272126432","1","0","2","156","1","right","3","in","Female","Right-handed","3","no","right","s","750.732913048","728.806297039","27","green","1"
"95","85","18","623.522231295","1","1","2","157","1","left","1","in","Female","Right-handed","3","no","left","d","530.196402416","736.356239519","27","green","0"
"95","85","18","620.325004826","1","1","2","158","1","left","3","out","Female","Right-handed","3","no","left","s","359.898872271","624.973019884","27","green","0"
"95","85","18","621.580138096","1","1","2","159","0","left","3","in","Female","Right-handed","3","no","left","s","529.478001704","816.603202592","27","green","1"
"95","86","18","621.057135598","1","1","2","160","0","right","3","in","Female","Right-handed","3","no","right","d","686.128163328","512.053898014","27","red","1"
"95","84","18","622.287202726","1","0","2","161","1","right","3","out","Female","Right-handed","3","no","right","d","765.667629987","584.692548549","27","red","2"
"95","84","18","620.342164709","1","1","2","162","0","left","3","in","Female","Right-handed","3","no","left","s","445.272458281","624.248525595","27","green","0"
"95","84","18","619.234693104","1","1","2","163","0","left","2","in","Female","Right-handed","3","no","left","s","505.966414125","632.830527668","27","green","0"
"95","85","18","616.050627025","1","1","2","164","3","left","1","out","Female","Right-handed","3","no","left","s","442.652861399","496.514313333","27","green","3"
"95","85","18","615.136512572","1","1","2","165","1","left","3","in","Female","Right-handed","3","no","left","s","576.222155157","568.12411142","27","green","1"
"95","85","18","625.804390679","1","1","2","166","1","right","0","in","Female","Right-handed","3","no","right","d","770.879883721","1504.84519587","27","red","1"
"96","86","18","624.623838652","1","1","2","167","3","left","3","out","Female","Right-handed","3","no","left","d","565.224530691","568.329048051","27","red","1"
"96","86","18","633.276767452","1","1","2","168","0","right","3","out","Female","Right-handed","3","no","right","d","667.938513879","1463.90790103","27","red","1"
"96","86","18","630.465609021","1","1","2","169","2","left","3","out","Female","Right-handed","3","no","left","d","469.633298129","504.559759875","27","red","1"
"96","86","18","633.129052452","1","1","2","170","0","left","0","in","Female","Right-handed","3","no","left","d","615.119384408","928.136837376","27","red","3"
"96","87","18","631.808187509","1","1","2","171","2","right","1","in","Female","Right-handed","3","no","right","s","514.711980647","608.892710382","27","red","0"
"96","87","18","636.083565047","1","1","2","172","3","left","0","in","Female","Right-handed","3","no","left","s","1117.48673925","616.421164983","27","green","2"
"96","87","18","634.941571412","1","1","2","173","2","left","3","in","Female","Right-handed","3","no","left","d","504.031222208","640.232620716","27","red","2"
"96","87","18","634.795261902","1","1","2","174","0","left","3","out","Female","Right-handed","3","no","left","s","452.732600671","800.471258038","27","green","0"
"96","87","18","633.951007726","1","1","2","175","0","right","1","out","Female","Right-handed","3","no","right","d","675.305007605","496.352031743","27","green","2"
"96","86","18","630.95736413","1","0","2","176","2","left","3","out","Female","Right-handed","3","no","left","s","418.824407792","495.827663366","27","green","0"
"96","86","18","628.700399749","1","1","2","177","0","left","0","in","Female","Right-handed","3","no","left","s","510.602343718","480.476658872","27","green","1"
"96","86","18","627.345684922","1","1","2","178","1","left","1","out","Female","Right-handed","3","no","left","s","668.128376924","423.997213632","27","red","3"
"96","87","18","626.052964237","1","1","2","179","1","left","3","out","Female","Right-handed","3","no","left","d","405.738610542","688.655394404","27","green","0"
"96","87","18","624.518539292","1","1","2","180","1","right","2","in","Female","Right-handed","3","no","right","s","442.406873299","616.361512067","27","red","0"
"96","87","18","625.096687936","1","1","2","181","3","right","3","in","Female","Right-handed","3","no","right","s","466.984836934","856.055268106","27","green","0"
"96","87","18","626.835979471","1","1","2","182","2","left","2","in","Female","Right-handed","3","no","left","d","491.590382026","984.710893424","27","red","3"
"96","87","18","626.688816286","1","1","2","183","1","left","1","in","Female","Right-handed","3","no","left","d","466.012430257","768.233988243","27","red","3"
"97","88","18","624.86981919","1","1","2","184","0","right","2","out","Female","Right-handed","3","no","right","d","433.775160462","575.856861224","27","green","3"
"97","86","18","639.679237101","1","0","2","185","2","right","1","in","Female","Right-handed","3","no","right","d","543.533319201","2720.28715503","27","green","2"
"97","86","18","646.022400112","1","1","2","186","0","right","2","in","Female","Right-handed","3","no","right","d","810.936175549","1343.77879416","27","green","1"
"97","87","18","646.449916131","1","1","2","187","3","left","3","in","Female","Right-handed","3","no","left","d","583.404879416","768.492163499","27","green","2"
"97","85","18","646.838422316","1","0","2","188","3","right","2","out","Female","Right-handed","3","no","right","d","676.01314545","672.0545651","27","red","3"
"97","86","18","645.690806873","1","1","2","189","3","right","3","out","Female","Right-handed","3","no","right","d","560.603995398","567.816225401","27","green","2"
"97","86","18","643.980148891","1","1","2","190","1","right","2","out","Female","Right-handed","3","no","right","s","417.219551917","624.405996465","27","green","3"
"97","85","18","644.148342327","1","0","2","191","2","left","0","in","Female","Right-handed","3","no","left","d","624.87937122","687.973555156","27","green","1"
"97","85","18","643.799888627","1","1","2","192","1","right","3","out","Female","Right-handed","3","no","right","d","628.434813313","607.593816238","27","green","1"
"97","85","18","642.21196786","1","1","2","193","2","left","3","in","Female","Right-handed","3","no","left","d","494.098370225","552.137450582","27","green","2"
"97","85","18","643.511119502","1","1","2","194","1","left","3","out","Female","Right-handed","3","no","left","s","492.731484585","991.761803981","27","green","0"
"97","85","18","643.028641467","1","1","2","195","3","right","0","out","Female","Right-handed","3","no","right","s","475.411292425","736.344373078","27","red","3"
"97","86","18","644.566463541","1","1","2","196","0","left","3","out","Female","Right-handed","3","no","left","d","912.933682313","616.099488236","27","red","2"
"97","86","18","642.760124399","1","1","2","197","0","left","1","in","Female","Right-handed","3","no","left","d","400.652718361","599.465946042","27","green","3"
"97","85","18","643.371096211","1","0","2","198","1","right","3","in","Female","Right-handed","3","no","right","s","784.177673324","600.320009031","27","red","1"
"97","85","18","642.356846514","1","1","2","199","2","right","3","out","Female","Right-handed","3","no","right","s","696.675183778","423.730058367","27","red","1"
"97","84","18","642.568541666","1","0","2","200","1","left","0","out","Female","Right-handed","3","no","left","d","727.436524967","592.418563346","27","green","3"
"97","84","18","641.080628308","1","1","2","201","2","left","3","out","Female","Right-handed","3","no","left","d","355.048384608","680.119254519","27","red","0"
"97","84","18","641.593642939","1","1","2","202","3","right","2","in","Female","Right-handed","3","no","right","d","409.64331084","959.730432961","27","green","1"
"97","83","18","641.646705477","1","0","2","203","0","right","3","out","Female","Right-handed","3","no","right","d","692.189669334","600.124373123","27","red","2"
"97","83","18","639.689743052","1","1","2","204","0","left","3","in","Female","Right-handed","3","no","left","s","526.886627708","415.895321319","27","red","0"
"97","84","18","639.063051092","1","1","2","205","1","left","1","in","Female","Right-handed","3","no","left","s","673.52183441","495.559866672","27","red","2"
"97","84","18","637.378248133","1","1","2","206","3","right","0","out","Female","Right-handed","3","no","right","d","410.129193464","568.101982112","27","red","3"
"97","84","18","637.404767807","1","1","2","207","2","right","0","in","Female","Right-handed","3","no","right","s","471.666628715","807.863408933","27","red","3"
"97","84","18","637.629584691","1","1","2","208","2","left","2","in","Female","Right-handed","3","no","left","s","748.45487722","567.271331289","27","green","1"
"97","84","18","638.421132256","1","1","2","209","2","right","3","out","Female","Right-handed","3","no","right","d","660.899469763","760.004451519","27","red","1"
"97","84","18","637.422867664","1","1","2","210","2","left","0","in","Female","Right-handed","3","no","left","d","563.553286892","527.611763427","27","red","2"
"97","85","18","637.261607632","1","1","2","211","0","left","0","out","Female","Right-handed","3","no","left","s","564.274574035","680.254275366","27","red","2"
"97","85","18","635.641761653","1","1","2","212","2","right","2","in","Female","Right-handed","3","no","right","s","318.925657393","647.826821811","27","red","0"
"97","85","18","635.284958199","1","1","2","213","1","left","0","out","Female","Right-handed","3","no","left","s","563.367913851","639.409346329","27","green","2"
"100","100","18","664.221110911","1","1","3","214","1","left","1","out","Female","Right-handed","3","no","left","d","575.74364897","752.698572852","27","red","2"
"100","100","18","593.027039128","1","1","3","215","2","right","3","out","Female","Right-handed","3","no","right","d","379.343798679","664.32213601","27","green","0"
"100","100","18","579.147125793","1","1","3","216","3","left","3","in","Female","Right-handed","3","no","left","d","549.8911655","552.88343275","27","green","0"
"100","100","18","590.392529018","1","1","3","217","2","left","2","out","Female","Right-handed","3","no","left","s","415.575248145","832.682229237","27","green","0"
"100","80","18","619.938794825","1","0","3","218","2","right","2","in","Female","Right-handed","3","no","right","s","780.116785016","696.130931095","27","red","1"
"100","83","18","608.396431259","1","1","3","219","2","left","3","in","Female","Right-handed","3","no","left","d","500.70188391","600.667342947","27","red","1"
"100","85","18","608.599164887","1","1","3","220","3","left","0","in","Female","Right-handed","3","no","left","s","507.352221926","712.278911379","27","green","1"
"100","87","18","608.521523317","1","1","3","221","2","right","3","out","Female","Right-handed","3","no","right","d","646.895145888","569.060918777","27","green","1"
"100","88","18","590.925975399","1","1","3","222","2","right","0","out","Female","Right-handed","3","no","right","d","395.64283554","504.680348566","27","red","3"
"100","90","18","568.613874691","1","1","3","223","1","right","0","out","Female","Right-handed","3","no","right","s","351.324567348","384.285369288","27","red","3"
"100","90","18","576.31743655","1","1","3","224","0","right","3","out","Female","Right-handed","3","no","right","d","625.774164963","680.931945323","27","red","1"
"100","91","18","592.748164417","1","1","3","225","1","right","1","out","Female","Right-handed","3","no","right","s","602.443139706","944.529202187","27","green","3"
"100","92","18","591.305683672","1","1","3","226","1","left","3","in","Female","Right-handed","3","no","left","d","603.892769714","544.099059762","27","red","0"
"100","92","18","605.838109957","1","1","3","227","3","left","3","out","Female","Right-handed","3","no","left","s","804.771720156","784.747583175","27","green","2"
"100","93","18","603.335057709","1","1","3","228","3","left","2","in","Female","Right-handed","3","no","left","d","472.271817172","664.312835287","27","green","3"
"100","93","18","599.150292716","1","1","3","229","0","left","0","in","Female","Right-handed","3","no","left","s","359.929019444","712.82861621","27","green","3"
"100","88","18","596.880750519","1","0","3","230","1","left","2","in","Female","Right-handed","3","no","left","s","440.54608717","680.590063556","27","green","3"
"100","88","18","602.063573973","1","1","3","231","0","left","1","in","Female","Right-handed","3","no","left","d","372.159470847","1008.18367454","27","red","3"
"100","89","18","605.836308651","1","1","3","232","2","left","3","in","Female","Right-handed","3","no","left","d","714.733981669","632.757084024","27","green","0"
"100","90","18","602.440509846","1","1","3","233","1","left","3","out","Female","Right-handed","3","no","left","d","411.370679694","664.469985442","27","green","0"
"100","90","18","613.155877973","1","1","3","234","1","right","3","in","Female","Right-handed","3","no","right","d","998.971468267","655.95501272","27","green","2"
"100","86","18","618.831991235","1","0","3","235","0","right","1","in","Female","Right-handed","3","no","right","d","403.488797599","1072.5719419","27","green","0"
"100","86","18","611.001827223","1","1","3","236","2","right","1","out","Female","Right-handed","3","no","right","s","493.17631574","384.30012216","27","green","3"
"100","87","18","610.099078362","1","1","3","237","1","left","0","in","Female","Right-handed","3","no","left","d","601.773808329","576.897900827","27","red","2"
"100","88","18","604.277903052","1","1","3","238","2","right","1","in","Female","Right-handed","3","no","right","d","408.521130442","520.618260783","27","red","0"
"100","88","18","608.23147088","1","1","3","239","2","right","3","in","Female","Right-handed","3","no","right","s","662.088038083","752.053295069","27","red","2"
"100","88","18","607.564114502","1","1","3","240","2","left","3","in","Female","Right-handed","3","no","left","s","475.693200561","704.73249676","27","red","2"
"100","89","18","604.771063836","1","1","3","241","3","right","0","in","Female","Right-handed","3","no","right","s","386.269951255","672.447440489","27","green","3"
"100","89","18","609.551441588","1","1","3","242","3","right","3","out","Female","Right-handed","3","no","right","s","670.932384703","815.871652581","27","green","1"
"100","90","18","614.667887734","1","1","3","243","0","right","0","in","Female","Right-handed","3","no","right","s","717.577758058","808.511893861","27","green","1"
"100","90","18","613.392620773","1","1","3","244","2","left","2","in","Female","Right-handed","3","no","left","d","494.074637344","656.19458653","27","green","3"
"100","90","18","608.217275404","1","1","3","245","2","right","3","out","Female","Right-handed","3","no","right","d","463.794688773","431.768449188","27","green","2"
"100","87","18","603.340095844","1","0","3","246","3","left","2","in","Female","Right-handed","3","no","left","s","582.27724687","312.263452935","27","green","0"
"100","88","18","598.431660312","1","1","3","247","3","right","0","in","Female","Right-handed","3","no","right","d","344.998471795","527.908103721","27","red","3"
"100","88","18","598.350115794","1","1","3","248","0","right","1","in","Female","Right-handed","3","no","right","d","382.580450457","808.574753923","27","green","3"
"100","88","18","597.707409965","1","1","3","249","1","left","3","out","Female","Right-handed","3","no","left","d","470.170174376","680.25523751","27","green","1"
"100","89","18","595.075605824","1","1","3","250","1","right","0","out","Female","Right-handed","3","no","right","s","384.784721926","615.876591586","27","red","3"
"100","86","18","596.058188803","1","0","3","251","0","right","2","out","Female","Right-handed","3","no","right","s","360.444087098","904.383430986","27","green","3"
"100","84","18","599.610962496","1","0","3","252","1","left","0","in","Female","Right-handed","3","no","left","s","901.127536332","568.105189259","27","red","1"
"100","85","18","597.677008002","1","1","3","253","1","left","1","out","Female","Right-handed","3","no","left","s","428.725188315","615.780377205","27","green","3"
"100","82","18","599.033982583","1","0","3","254","2","left","1","out","Female","Right-handed","3","no","left","d","378.33996197","928.285969666","27","red","3"
"100","83","18","601.579233833","1","1","3","255","0","right","0","in","Female","Right-handed","3","no","right","s","795.926732108","615.942338081","27","red","2"
"100","83","18","602.088425626","1","1","3","256","0","right","3","out","Female","Right-handed","3","no","right","d","750.495904956","496.453056843","27","green","1"
"100","84","18","606.043412599","1","1","3","257","0","right","0","out","Female","Right-handed","3","no","right","d","496.121437944","1056.094267","27","red","3"
"100","84","18","607.05984424","1","1","3","258","3","left","3","in","Female","Right-handed","3","no","left","s","535.664265691","767.9014072","27","red","1"
"100","84","18","605.382049807","1","1","3","259","0","right","2","out","Female","Right-handed","3","no","right","s","451.379185045","608.383415591","27","red","0"
"100","85","18","604.511653366","1","1","3","260","2","right","3","out","Female","Right-handed","3","no","right","s","409.020162365","719.926671813","27","red","0"
"100","85","18","605.981239826","1","1","3","261","1","left","1","in","Female","Right-handed","3","no","left","s","446.462309459","903.641297393","27","red","0"
"100","85","18","610.698889941","1","1","3","262","1","left","3","out","Female","Right-handed","3","no","left","s","1170.18816646","504.104024423","27","red","2"
"100","86","18","609.291381084","1","1","3","263","1","left","3","in","Female","Right-handed","3","no","left","d","456.855386898","623.791507284","27","red","0"
"100","86","18","616.226110763","1","1","3","264","0","left","3","out","Female","Right-handed","3","no","left","s","853.518736308","1072.40645316","27","red","2"
"100","86","18","613.279676012","1","1","3","265","3","right","0","out","Female","Right-handed","3","no","right","d","445.987010417","480.035997008","27","green","2"
"100","86","18","615.492923127","1","1","3","266","3","right","3","out","Female","Right-handed","3","no","right","d","693.570987131","767.592559036","27","green","2"
"100","87","18","621.718336818","1","1","3","267","2","right","1","out","Female","Right-handed","3","no","right","s","591.231919313","1312.09860563","27","red","2"
"100","87","18","619.364272516","1","1","3","268","0","left","3","in","Female","Right-handed","3","no","left","s","464.728930413","519.760669934","27","green","2"
"100","87","18","618.248728516","1","1","3","269","3","right","1","in","Female","Right-handed","3","no","right","s","554.337232047","559.45038497","27","red","0"
"100","87","18","616.367293369","1","1","3","270","1","left","3","out","Female","Right-handed","3","no","left","s","397.928889234","624.084961147","27","red","0"
"100","87","18","615.035959904","1","1","3","271","0","right","3","out","Female","Right-handed","3","no","right","s","438.598387383","639.701517333","27","red","2"
"100","88","18","616.02404692","1","1","3","272","2","left","3","in","Female","Right-handed","3","no","left","s","978.338935683","368.32725205","27","red","1"
"100","88","18","616.346331576","1","1","3","273","0","left","2","in","Female","Right-handed","3","no","left","d","646.79283793","623.929414564","27","green","1"
"100","88","18","616.998658945","1","1","3","274","3","left","2","in","Female","Right-handed","3","no","left","s","544.647802448","767.628799787","27","red","1"
"100","88","18","616.978334187","1","1","3","275","2","left","0","out","Female","Right-handed","3","no","left","s","527.202531592","704.274516306","27","green","2"
"100","88","18","614.649025897","1","1","3","276","2","right","0","in","Female","Right-handed","3","no","right","s","380.776110097","559.687713776","27","green","3"
"100","89","18","612.722566414","1","1","3","277","3","left","3","out","Female","Right-handed","3","no","left","d","503.296785766","479.414452106","27","green","0"
"100","87","18","612.335744474","1","0","3","278","3","right","1","out","Female","Right-handed","3","no","right","d","527.159235121","647.999045553","27","red","3"
"100","87","18","616.597468118","1","1","3","279","0","right","3","in","Female","Right-handed","3","no","right","s","691.724312443","1095.49469747","27","green","1"
"100","88","18","618.017332844","1","1","3","280","2","left","0","out","Female","Right-handed","3","no","left","s","919.253363574","504.20344595","27","red","1"
"100","88","18","616.521845786","1","1","3","281","1","left","2","out","Female","Right-handed","3","no","left","s","568.913390059","463.735035857","27","red","1"
"100","88","18","615.557724578","1","1","3","282","1","right","2","out","Female","Right-handed","3","no","right","s","516.426520917","583.568443864","27","red","3"
"100","88","18","613.878832832","1","1","3","283","1","right","3","in","Female","Right-handed","3","no","right","s","668.029917541","328.040687138","27","green","1"
"100","88","18","612.931907542","1","1","3","284","0","right","3","out","Female","Right-handed","3","no","right","s","477.701836123","615.592438447","27","green","2"
"100","88","18","612.201151006","1","1","3","285","3","right","3","in","Female","Right-handed","3","no","right","d","537.292854447","583.342019354","27","green","1"
"100","87","18","610.326864811","1","0","3","286","2","right","3","in","Female","Right-handed","3","no","right","d","462.837355683","487.91916196","27","green","0"
"100","87","18","610.525535604","1","1","3","287","0","left","3","in","Female","Right-handed","3","no","left","d","562.545280894","687.511726128","27","green","0"
"100","88","18","612.234361983","1","1","3","288","0","right","2","in","Female","Right-handed","3","no","right","s","422.186458981","1055.18856896","27","red","3"
"100","88","18","611.622962241","1","1","3","289","3","right","3","in","Female","Right-handed","3","no","right","d","603.752296717","527.783666455","27","green","2"
"100","88","18","611.172170683","1","1","3","290","1","right","3","in","Female","Right-handed","3","no","right","d","586.439801709","567.384222831","27","red","2"
"100","88","18","610.792259805","1","1","3","291","0","left","1","in","Female","Right-handed","3","no","left","s","571.107077947","591.971166475","27","red","2"
"100","88","18","608.808813065","1","1","3","292","2","left","2","out","Female","Right-handed","3","no","left","d","412.600940913","495.598993854","27","green","3"
"100","88","18","606.620675925","1","1","3","293","3","left","2","out","Female","Right-handed","3","no","left","d","396.228781121","471.286902624","27","green","3"
"100","88","18","607.216158954","1","1","3","294","3","left","3","out","Female","Right-handed","3","no","left","s","645.885536317","663.824066231","27","red","1"
"100","89","18","607.005707789","1","1","3","295","0","left","3","out","Female","Right-handed","3","no","left","d","492.398903541","687.519423278","27","red","1"
"98","89","18","604.350951097","0","1","3","296","1","left","3","in","Female","Right-handed","3","no","right","d","307.191351482","466.13045323","27","green","2"
"98","89","18","608.271690459","1","1","3","297","3","left","1","out","Female","Right-handed","3","no","left","d","1387.60412401","479.781991041","27","green","2"
"98","89","18","610.779070671","1","1","3","298","3","right","3","in","Female","Right-handed","3","no","right","d","515.438399224","1127.3596176","27","red","2"
"98","89","18","612.082101506","1","1","3","299","1","left","3","out","Female","Right-handed","3","no","left","s","461.806258232","983.873186879","27","red","1"
"98","89","18","611.770220786","1","1","3","300","3","right","3","in","Female","Right-handed","3","no","right","d","538.447747733","631.449209872","27","green","0"
"98","89","18","611.996117998","1","1","3","301","0","right","3","out","Female","Right-handed","3","no","right","d","464.0522226","799.246128253","27","green","0"
"98","89","18","611.898191794","1","1","3","302","2","left","3","out","Female","Right-handed","3","no","left","d","710.659623347","495.90174844","27","red","1"
"98","90","18","612.058202716","1","1","3","303","3","right","1","in","Female","Right-handed","3","no","right","d","829.355456654","423.242892883","27","red","3"
"98","90","18","610.98117216","1","1","3","304","1","left","3","out","Female","Right-handed","3","no","left","s","573.066002745","455.03084152","27","green","1"
"98","90","18","610.455441091","1","1","3","305","2","right","3","out","Female","Right-handed","3","no","right","s","613.646342233","511.581485403","27","red","2"
"98","90","18","609.533968886","1","1","3","306","0","right","3","in","Female","Right-handed","3","no","right","s","490.212912804","559.304139111","27","red","0"
"98","89","18","609.479108033","1","0","3","307","1","left","2","out","Female","Right-handed","3","no","left","s","568.877790738","639.876306792","27","green","0"
"98","88","18","614.499946095","1","0","3","308","3","right","3","in","Female","Right-handed","3","no","right","d","469.579418076","1703.33802966","27","red","0"
"98","87","18","613.662424735","1","0","3","309","0","left","3","out","Female","Right-handed","3","no","left","s","397.051734793","671.144056341","27","red","0"
"100","100","18","815.121020052","1","1","4","310","2","left","3","in","Female","Right-handed","3","no","left","s","710.213509333","920.028530771","27","red","2"
"100","100","18","717.146316737","1","1","4","311","1","right","2","out","Female","Right-handed","3","no","right","d","717.730738923","520.612487921","27","red","3"
"100","100","18","617.741974625","1","1","4","312","3","right","2","in","Female","Right-handed","3","no","right","d","349.336778236","488.529802565","27","red","3"
"100","75","18","614.811779013","1","0","4","313","3","right","1","in","Female","Right-handed","3","no","right","d","404.091420338","807.950964019","27","green","3"
"100","60","18","596.574062463","1","0","4","314","2","left","1","in","Female","Right-handed","3","no","left","s","695.632219886","351.614172635","27","green","0"
"100","66","18","575.924024207","1","1","4","315","0","left","3","in","Female","Right-handed","3","no","left","s","465.082999335","480.264666519","27","green","2"
"100","57","18","586.767090961","1","0","4","316","0","left","3","out","Female","Right-handed","3","no","left","d","599.883516456","703.767466518","27","red","0"
"100","62","18","588.973888058","1","1","4","317","3","left","0","out","Female","Right-handed","3","no","left","s","592.441654798","616.401280677","27","red","1"
"100","66","18","593.919008801","1","1","4","318","3","right","3","out","Female","Right-handed","3","no","right","s","595.052913099","671.907036382","27","red","0"
"100","70","18","584.137551927","1","1","4","319","2","right","2","in","Female","Right-handed","3","no","right","d","440.532617156","551.676262982","27","red","3"
"100","72","18","601.417640183","1","1","4","320","2","left","0","out","Female","Right-handed","3","no","left","s","620.229330184","928.207715303","27","green","2"
"100","75","18","601.757545426","1","1","4","321","2","left","2","out","Female","Right-handed","3","no","left","d","490.931954945","720.061051232","27","green","1"
"100","76","18","594.61238692","1","1","4","322","0","right","2","in","Female","Right-handed","3","no","right","d","425.371154993","592.369814726","27","green","3"
"100","78","18","589.536587557","1","1","4","323","0","right","1","in","Female","Right-handed","3","no","right","d","479.024463148","568.077928517","27","green","0"
"100","80","18","600.346799391","1","1","4","324","3","left","1","out","Female","Right-handed","3","no","left","s","511.637931172","991.741598961","27","green","3"
"100","81","18","624.844533596","1","1","4","325","2","left","3","out","Female","Right-handed","3","no","left","d","544.354348585","1440.26674475","27","green","2"
"100","82","18","621.997392062","1","1","4","326","3","left","3","in","Female","Right-handed","3","no","left","d","416.989599545","735.896655492","27","green","0"
"100","83","18","621.190280223","1","1","4","327","0","left","3","out","Female","Right-handed","3","no","left","s","423.496578136","791.442179807","27","green","0"
"100","84","18","618.344895573","1","1","4","328","3","left","2","in","Female","Right-handed","3","no","left","s","430.103619681","704.152324042","27","red","3"
"100","85","18","625.16261834","1","1","4","329","3","right","0","in","Female","Right-handed","3","no","right","d","981.653200395","527.745501417","27","red","3"
"100","85","18","616.767888013","1","1","4","330","0","right","1","out","Female","Right-handed","3","no","right","d","473.310611773","424.43595121","27","red","3"
"100","86","18","615.035481094","1","1","4","331","0","right","3","out","Female","Right-handed","3","no","right","s","605.087752327","552.222119238","27","red","1"
"100","86","18","610.430069777","1","1","4","332","1","left","3","in","Female","Right-handed","3","no","left","s","434.583681978","583.638359648","27","red","1"
"100","87","18","616.944604623","1","1","4","333","0","left","2","in","Female","Right-handed","3","no","left","d","701.227406858","832.330405315","27","green","3"
"100","88","18","615.398855113","1","1","4","334","1","right","3","out","Female","Right-handed","3","no","right","d","396.774958091","759.826775628","27","red","0"
"100","88","18","617.745765636","1","1","4","335","2","right","3","out","Female","Right-handed","3","no","right","d","761.467872254","591.369185164","27","green","0"
"100","88","18","613.761253088","1","1","4","336","0","left","3","in","Female","Right-handed","3","no","left","d","484.108110328","536.219743383","27","red","0"
"100","89","18","607.510310173","1","1","4","337","1","left","1","out","Female","Right-handed","3","no","left","s","325.671889076","551.797813817","27","red","0"
"100","89","18","604.639868853","1","1","4","338","1","left","3","in","Female","Right-handed","3","no","left","s","448.189999028","600.34502477","27","green","0"
"100","90","18","599.217894677","1","1","4","339","0","left","3","in","Female","Right-handed","3","no","left","d","396.010053762","487.951233421","27","red","0"
"100","90","18","633.503278277","1","1","4","340","0","right","1","in","Female","Right-handed","3","no","right","d","588.575119538","2735.55445301","27","green","3"
"100","90","18","630.989430409","1","1","4","341","2","right","3","out","Female","Right-handed","3","no","right","d","554.105676103","552.014616889","27","green","2"
"100","90","18","632.58452499","1","1","4","342","3","right","2","out","Female","Right-handed","3","no","right","s","391.737814529","975.517288601","27","green","1"
"100","91","18","628.486448365","1","1","4","343","2","left","2","in","Female","Right-handed","3","no","left","s","443.266067721","543.233771761","27","green","3"
"100","88","18","642.211686391","1","0","4","344","3","right","3","in","Female","Right-handed","3","no","right","s","1513.89319626","703.84636231","27","red","1"
"100","86","18","650.541212129","1","0","4","345","1","right","3","in","Female","Right-handed","3","no","right","d","572.549010804","1311.60021514","27","green","2"
"100","86","18","648.32359573","1","1","4","346","3","right","3","out","Female","Right-handed","3","no","right","s","456.916322674","680.062488033","27","red","1"
"100","86","18","644.411333662","1","1","4","347","2","left","1","out","Female","Right-handed","3","no","left","d","463.61605074","535.699223582","27","red","3"
"100","87","18","646.716154246","1","1","4","348","3","left","3","in","Female","Right-handed","3","no","left","s","989.31988299","479.278789828","27","green","0"
"100","85","18","643.683153054","1","0","4","349","1","right","2","in","Female","Right-handed","3","no","right","s","474.792633955","575.999579222","27","green","3"
"100","85","18","640.350538089","1","1","4","350","3","left","3","out","Female","Right-handed","3","no","left","d","502.596345073","511.495533889","27","green","2"
"100","85","18","641.641623056","1","1","4","351","3","right","3","in","Female","Right-handed","3","no","right","s","830.072253793","559.079959603","27","green","1"
"100","83","18","640.120284832","1","0","4","352","1","right","0","in","Female","Right-handed","3","no","right","d","536.794463953","615.653694937","27","green","3"
"100","84","18","639.305412931","1","1","4","353","0","right","2","out","Female","Right-handed","3","no","right","s","609.198992828","599.332849483","27","green","1"
"100","84","18","636.742700616","1","1","4","354","0","right","0","out","Female","Right-handed","3","no","right","s","399.882682598","648.084034923","27","green","3"
"100","84","18","639.403507232","1","1","4","355","1","left","0","out","Female","Right-handed","3","no","left","d","574.573361381","943.706248515","27","red","3"
"100","85","18","638.090431405","1","1","4","356","1","right","3","out","Female","Right-handed","3","no","right","s","612.212427243","543.16545955","27","green","2"
"100","85","18","638.240545387","1","1","4","357","0","right","3","out","Female","Right-handed","3","no","right","d","482.840646215","807.751158821","27","green","1"
"100","83","18","637.22379412","1","0","4","358","3","right","0","in","Female","Right-handed","3","no","right","s","377.4182282","799.421238427","27","red","2"
"100","84","18","639.300203942","1","1","4","359","3","left","3","out","Female","Right-handed","3","no","left","s","835.071553031","647.017017437","27","red","1"
"100","84","18","640.46205114","1","1","4","360","1","right","1","in","Female","Right-handed","3","no","right","s","509.495878336","887.612943657","27","green","3"
"100","84","18","643.707970505","1","1","4","361","2","right","3","out","Female","Right-handed","3","no","right","d","483.192470134","1135.30724619","27","green","0"
"100","84","18","641.934507887","1","1","4","362","3","left","0","in","Female","Right-handed","3","no","left","d","427.760478789","671.668424718","27","green","3"
"100","83","18","640.352657065","1","0","4","363","1","left","3","in","Female","Right-handed","3","no","left","s","473.469686216","639.559440763","27","red","0"
"100","83","18","638.855944534","1","1","4","364","3","left","3","in","Female","Right-handed","3","no","left","d","500.982188473","615.08474723","27","red","2"
"100","83","18","639.647219205","1","1","4","365","0","left","1","out","Female","Right-handed","3","no","left","s","726.662319915","639.672332303","27","red","2"
"100","84","18","636.27119332","1","1","4","366","2","right","0","in","Female","Right-handed","3","no","right","s","479.264036956","415.163450594","27","green","3"
"100","82","18","633.506787587","1","0","4","367","0","left","3","in","Female","Right-handed","3","no","left","s","463.841192391","488.030129213","27","red","1"
"100","83","18","632.185891316","1","1","4","368","0","right","0","out","Female","Right-handed","3","no","right","d","455.559058471","655.588756644","27","green","2"
"100","83","18","630.184127065","1","1","4","369","3","left","3","out","Female","Right-handed","3","no","left","s","433.054835462","591.105237045","27","green","2"
"100","83","18","629.923257675","1","1","4","370","2","right","3","in","Female","Right-handed","3","no","right","s","652.774485999","575.767702564","27","red","1"
"100","83","18","629.987873781","1","1","4","371","0","right","0","out","Female","Right-handed","3","no","right","s","468.462048397","799.396864117","27","green","3"
"100","82","18","628.298196529","1","0","4","372","1","left","3","out","Female","Right-handed","3","no","left","s","416.050547187","631.025866595","27","red","0"
"100","82","18","630.365317285","1","1","4","373","1","right","2","in","Female","Right-handed","3","no","right","s","961.582239083","559.605610838","27","red","0"
"100","83","18","628.878344341","1","1","4","374","2","left","3","in","Female","Right-handed","3","no","left","d","644.250533269","423.17361853","27","green","0"
"100","83","18","633.795681823","1","1","4","375","2","right","1","in","Female","Right-handed","3","no","right","s","979.906267949","926.938968331","27","green","2"
"100","82","18","635.117043287","1","0","4","376","1","right","3","out","Female","Right-handed","3","no","right","s","709.256817671","735.39698214","27","red","1"
"100","82","18","636.343232183","1","1","4","377","2","left","3","out","Female","Right-handed","3","no","left","d","581.997263022","854.998513488","27","red","1"
"100","82","18","641.455189433","1","1","4","378","1","left","0","out","Female","Right-handed","3","no","left","d","1082.56091894","895.575645831","27","green","2"
"100","82","18","642.44300409","1","1","4","379","3","left","3","in","Female","Right-handed","3","no","left","d","677.977522396","743.226908469","27","red","0"
"100","81","18","643.644929238","1","0","4","380","2","left","1","in","Female","Right-handed","3","no","left","d","584.645724217","870.91365497","27","red","3"
"100","81","18","641.314642745","1","1","4","381","2","left","3","in","Female","Right-handed","3","no","left","s","528.30033768","423.428265925","27","green","1"
"100","82","18","638.604658012","1","1","4","382","2","right","0","out","Female","Right-handed","3","no","right","d","415.93990065","471.0316138","27","red","3"
"100","82","18","636.516934004","1","1","4","383","1","right","3","in","Female","Right-handed","3","no","right","s","561.618094975","406.608067833","27","red","1"
"100","82","18","636.567372356","1","1","4","384","2","left","3","in","Female","Right-handed","3","no","left","s","681.185630575","599.413990277","27","red","2"
"100","82","18","642.282058771","1","1","4","385","0","left","3","out","Female","Right-handed","3","no","left","s","1582.83593171","558.931148027","27","red","1"
"100","81","18","642.479713833","1","0","4","386","0","right","2","in","Female","Right-handed","3","no","right","s","555.476410318","759.526586759","27","red","0"
"100","82","18","639.967613828","1","1","4","387","3","right","2","in","Female","Right-handed","3","no","right","s","414.008236592","479.063590329","27","red","0"
"100","82","18","638.463617829","1","1","4","388","1","right","1","out","Female","Right-handed","3","no","right","s","571.622787029","470.681072738","27","red","3"
"100","82","18","641.316690196","1","1","4","389","1","right","3","in","Female","Right-handed","3","no","right","s","1078.20657677","655.212237699","27","red","2"
"100","82","18","644.10703724","1","1","4","390","3","left","1","in","Female","Right-handed","3","no","left","s","735.78087752","998.8887239","27","red","2"
"100","82","18","644.805932738","1","1","4","391","1","left","3","out","Female","Right-handed","3","no","left","d","755.477885606","647.355050629","27","green","2"
"100","81","18","644.579706236","1","0","4","392","0","left","3","in","Female","Right-handed","3","no","left","s","421.03413141","831.024134736","27","green","2"
"98","82","18","641.675500445","0","1","4","393","1","left","1","out","Female","Right-handed","3","no","right","s","367.587684175","433.665155353","27","red","2"
"98","82","18","641.505633192","1","1","4","394","1","right","0","out","Female","Right-handed","3","no","right","d","671.223914277","583.249653549","27","red","1"
"98","82","18","639.980570736","1","1","4","395","1","right","2","out","Female","Right-handed","3","no","right","s","557.937253471","462.763270609","27","green","1"
"98","82","18","641.617003734","1","1","4","396","0","left","3","out","Female","Right-handed","3","no","left","d","998.457683472","566.242799557","27","green","2"
"98","82","18","639.975917832","1","1","4","397","2","left","3","out","Female","Right-handed","3","no","left","s","507.150813156","487.252075585","27","green","0"
"98","82","18","644.473132626","1","0","4","398","0","right","0","out","Female","Right-handed","3","no","right","d","505.672960263","1574.78310873","27","green","1"
"98","82","18","646.126795659","1","1","4","399","2","right","3","in","Female","Right-handed","3","no","right","d","739.342413192","847.263197967","27","green","1"
"98","82","18","645.492137563","1","1","4","400","3","left","1","in","Female","Right-handed","3","no","left","s","513.936492736","662.809325226","27","green","0"
"98","82","18","644.578575503","1","1","4","401","3","right","3","in","Female","Right-handed","3","no","right","d","532.479248963","590.40960707","27","red","2"
"98","82","18","650.687054653","1","1","4","402","1","left","3","out","Female","Right-handed","3","no","left","s","770.117545109","1655.2167277","27","green","1"
"98","82","18","650.681447907","1","1","4","403","2","right","2","out","Female","Right-handed","3","no","right","d","669.671014168","630.649026935","27","red","0"
"98","83","18","653.597557829","1","1","4","404","0","right","3","out","Female","Right-handed","3","no","right","d","1329.20712615","526.216654902","27","red","2"
"98","83","18","655.292185837","1","1","4","405","2","left","0","out","Female","Right-handed","3","no","left","d","937.743201893","694.820491226","27","red","1"
"100","100","18","565.356023678","1","1","5","406","2","left","0","in","Female","Right-handed","3","no","left","d","394.812505432","735.899541923","27","green","3"
"100","50","18","634.959431206","1","0","5","407","0","left","3","in","Female","Right-handed","3","no","left","s","561.674540745","847.451136725","27","red","0"
"100","66","18","641.490730653","1","1","5","408","0","left","3","out","Female","Right-handed","3","no","left","s","837.152028664","471.954630429","27","green","2"
"100","75","18","610.160334852","1","1","5","409","2","left","3","in","Female","Right-handed","3","no","left","s","480.645034039","551.693260856","27","red","0"
"100","60","18","645.303663812","1","0","5","410","2","left","3","out","Female","Right-handed","3","no","left","d","924.386721517","647.367237784","27","red","2"
"100","66","18","665.403906368","1","1","5","411","2","right","3","out","Female","Right-handed","3","no","right","d","875.840151993","655.970086308","27","green","1"
"100","71","18","662.340348843","1","1","5","412","3","left","3","in","Female","Right-handed","3","no","left","d","520.441867752","767.476139636","27","red","2"
"100","75","18","683.070189674","1","1","5","413","1","left","3","out","Female","Right-handed","3","no","left","s","713.192947999","943.165202978","27","green","1"
"100","77","18","692.307496315","1","1","5","414","3","left","3","in","Female","Right-handed","3","no","left","s","668.681930329","863.729968566","27","green","2"
"100","80","18","678.49788184","1","1","5","415","1","left","3","out","Female","Right-handed","3","no","left","s","501.128434332","607.294268798","27","green","2"
"100","81","18","680.854142876","1","1","5","416","2","right","3","out","Female","Right-handed","3","no","right","d","496.945674475","911.887831992","27","red","0"
"100","83","18","681.739304248","1","1","5","417","3","left","1","in","Female","Right-handed","3","no","left","s","671.526668863","711.425489819","27","green","2"
"100","76","18","713.417941628","1","0","5","418","3","right","3","out","Female","Right-handed","3","no","right","d","732.127296757","1454.99588363","27","green","1"
"100","78","18","702.761934604","1","1","5","419","0","right","3","out","Female","Right-handed","3","no","right","d","624.617668103","503.850018457","27","red","1"
"100","80","18","702.366638583","1","1","5","420","2","left","1","out","Female","Right-handed","3","no","left","d","530.3387997","863.326188882","27","red","2"
"100","81","18","703.679109645","1","1","5","421","0","right","0","out","Female","Right-handed","3","no","right","s","447.856135126","998.87621603","27","red","3"
"100","76","18","701.509409323","1","0","5","422","2","right","2","in","Female","Right-handed","3","no","right","s","654.277354631","679.311053718","27","red","1"
"100","77","18","690.130387591","1","1","5","423","3","left","0","in","Female","Right-handed","3","no","left","d","506.151145737","487.222890555","27","red","3"
"100","78","18","681.209937366","1","1","5","424","3","right","2","in","Female","Right-handed","3","no","right","s","393.577754209","647.705912406","27","green","3"
"100","80","18","671.315341992","1","1","5","425","0","left","2","in","Female","Right-handed","3","no","left","d","439.297545218","527.338514585","27","red","3"
"100","80","18","659.275027388","1","1","5","426","1","left","3","in","Female","Right-handed","3","no","left","d","365.968716856","470.968753738","27","green","0"
"100","81","18","652.755418058","1","1","5","427","1","left","2","in","Female","Right-handed","3","no","left","s","471.947574708","559.739669542","27","green","3"
"95","82","18","641.755220268","0","1","5","428","1","right","0","in","Female","Right-handed","3","no","left","d","413.254557275","386.247180518","27","red","2"
"95","79","18","637.135486472","1","0","5","429","0","left","3","in","Female","Right-handed","3","no","left","s","414.821568827","646.941649505","27","green","0"
"96","80","18","641.030795978","1","1","5","430","0","right","0","in","Female","Right-handed","3","no","right","s","917.503223984","551.533224268","27","green","1"
"96","80","18","643.167362868","1","1","5","431","0","right","1","out","Female","Right-handed","3","no","right","d","985.973867533","407.189202694","27","red","3"
"96","81","18","640.15022082","1","1","5","432","3","right","0","in","Female","Right-handed","3","no","right","s","683.562125786","439.846929334","27","red","1"
"96","82","18","643.460475751","1","1","5","433","3","right","3","out","Female","Right-handed","3","no","right","d","474.338181362","991.336536416","27","red","0"
"96","82","18","658.184598526","1","1","5","434","2","left","0","out","Female","Right-handed","3","no","left","d","982.005024315","1158.91504815","27","red","1"
"96","83","18","650.627665205","1","1","5","435","3","left","0","in","Female","Right-handed","3","no","left","s","447.411945401","415.541252397","27","green","3"
"96","83","18","649.9687505","1","1","5","436","2","right","3","out","Female","Right-handed","3","no","right","s","613.197662504","647.204956195","27","red","2"
"96","84","18","646.123030492","1","1","5","437","1","left","1","out","Female","Right-handed","3","no","left","s","430.875259017","622.936161437","27","green","3"
"96","84","18","641.284433414","1","1","5","438","1","left","1","out","Female","Right-handed","3","no","left","s","437.447663386","535.450990479","27","red","0"
"97","85","18","639.308557049","1","1","5","439","3","left","3","out","Female","Right-handed","3","no","left","d","581.101186419","567.108087556","27","red","0"
"97","85","18","638.946316911","1","1","5","440","0","right","3","in","Female","Right-handed","3","no","right","d","558.782015736","694.478288744","27","green","1"
"97","83","18","638.623230292","1","0","5","441","1","right","0","out","Female","Right-handed","3","no","right","s","463.321955448","791.308441818","27","red","1"
"97","83","18","636.979582155","1","1","5","442","2","left","3","in","Female","Right-handed","3","no","left","d","676.78221907","478.834279387","27","green","2"
"94","84","18","633.071844308","0","1","5","443","2","left","1","in","Female","Right-handed","3","no","right","d","382.42811102","594.542976879","27","red","0"
"94","84","18","633.417661538","1","1","5","444","1","right","0","out","Female","Right-handed","3","no","right","s","598.023692471","695.093740068","27","green","3"
"95","82","18","633.673393709","1","0","5","445","3","left","3","out","Female","Right-handed","3","no","left","s","456.645639549","830.648257221","27","green","0"
"95","82","18","632.056310882","1","1","5","446","2","left","2","in","Female","Right-handed","3","no","left","d","415.367425081","719.378570556","27","green","0"
"95","83","18","635.934159247","1","1","5","447","0","right","1","in","Female","Right-handed","3","no","right","s","670.922442549","918.929441825","27","red","3"
"95","83","18","636.937617526","1","1","5","448","2","left","2","out","Female","Right-handed","3","no","left","s","455.600430656","902.565299899","27","green","3"
"95","84","18","636.658839578","1","1","5","449","0","left","3","in","Female","Right-handed","3","no","left","s","642.197639091","607.145136507","27","green","2"
"95","84","18","631.50657146","1","1","5","450","1","left","2","out","Female","Right-handed","3","no","left","s","426.735795631","382.877752893","27","green","1"
"95","84","18","629.830883982","1","1","5","451","3","left","2","out","Female","Right-handed","3","no","left","s","517.436771919","591.413123065","27","red","0"
"95","85","18","626.633837046","1","1","5","452","2","left","2","out","Female","Right-handed","3","no","left","s","639.99176405","319.147591899","27","green","3"
"93","85","18","624.450064656","0","1","5","453","0","left","3","out","Female","Right-handed","3","no","right","s","601.836026961","441.789497687","27","red","2"
"93","85","18","624.946567474","1","1","5","454","2","right","3","out","Female","Right-handed","3","no","right","s","690.250949556","607.306455954","27","green","1"
"94","86","18","627.98403611","1","1","5","455","0","left","3","in","Female","Right-handed","3","no","left","d","618.803433058","934.836565441","27","red","0"
"94","86","18","632.463054762","1","1","5","456","1","right","3","out","Female","Right-handed","3","no","right","s","562.286464208","1150.54151057","27","green","1"
"94","86","18","631.330659569","1","1","5","457","3","right","3","in","Female","Right-handed","3","no","right","s","620.097516482","527.059492879","27","red","2"
"94","86","18","631.404787873","1","1","5","458","0","left","3","in","Female","Right-handed","3","no","left","s","935.662405545","334.85651389","27","red","2"
"94","87","18","626.699750278","1","1","5","459","2","left","0","out","Female","Right-handed","3","no","left","s","435.314911272","319.350604243","27","green","3"
"94","85","18","627.195732443","1","0","5","460","3","left","3","out","Female","Right-handed","3","no","left","s","988.910009727","319.047528942","27","green","0"
"94","85","18","625.998178387","1","1","5","461","2","right","3","in","Female","Right-handed","3","no","right","d","721.68001855","398.585392028","27","green","1"
"94","85","18","624.756424995","1","1","5","462","3","right","1","out","Female","Right-handed","3","no","right","d","511.142106396","599.29436373","27","green","0"
"94","86","18","622.515798595","1","1","5","463","2","right","1","in","Female","Right-handed","3","no","right","d","454.737066943","534.86312061","27","green","3"
"94","86","18","618.032549303","1","1","5","464","0","right","2","in","Female","Right-handed","3","no","right","s","365.541845719","350.466335069","27","red","3"
"95","86","18","619.017095799","1","1","5","465","2","left","3","out","Female","Right-handed","3","no","left","d","547.200049262","807.010628802","27","red","2"
"95","86","18","618.439106525","1","1","5","466","3","left","3","out","Female","Right-handed","3","no","left","d","488.720307039","678.79919321","27","green","1"
"95","87","18","616.026828273","1","1","5","467","1","left","2","out","Female","Right-handed","3","no","left","s","387.305859424","550.449850339","27","red","0"
"95","87","18","621.303314304","1","1","5","468","2","left","0","in","Female","Right-handed","3","no","left","d","1297.97337235","598.91752407","27","red","2"
"95","87","18","619.19180842","1","1","5","469","2","right","3","in","Female","Right-handed","3","no","right","s","405.608721129","566.72515432","27","green","0"
"95","87","18","628.66848104","1","1","5","470","1","left","1","out","Female","Right-handed","3","no","left","d","999.212645649","1471.13841176","27","red","2"
"95","87","18","627.935708501","1","1","5","471","1","right","3","in","Female","Right-handed","3","no","right","s","473.775968662","686.835018314","27","green","1"
"95","86","18","625.643576678","1","0","5","472","3","right","0","in","Female","Right-handed","3","no","right","s","365.36705626","583.358696514","27","red","2"
"95","86","18","626.545193527","1","1","5","473","0","right","1","out","Female","Right-handed","3","no","right","d","934.897180502","439.009864219","27","green","0"
"95","85","18","625.015433228","1","0","5","474","1","right","2","in","Female","Right-handed","3","no","right","s","411.372283267","630.611182612","27","red","3"
"95","85","18","623.867468539","1","1","5","475","1","right","3","in","Female","Right-handed","3","no","right","d","403.110995796","686.204814118","27","green","2"
"95","85","18","621.803763344","1","1","5","476","0","right","0","out","Female","Right-handed","3","no","right","s","523.778582487","430.910216908","27","red","3"
"95","86","18","621.833061332","1","1","5","477","0","left","2","in","Female","Right-handed","3","no","left","s","521.347886506","726.478550447","27","green","1"
"95","86","18","619.692831766","1","1","5","478","3","right","1","out","Female","Right-handed","3","no","right","s","395.99465946","535.197946657","27","green","3"
"95","86","18","618.79488428","1","1","5","479","3","right","2","in","Female","Right-handed","3","no","right","s","395.743860641","710.74557486","27","red","3"
"96","86","18","618.3082604","1","1","5","480","3","right","3","out","Female","Right-handed","3","no","right","d","710.368414487","454.227772153","27","green","1"
"96","86","18","617.262690563","1","1","5","481","0","right","3","in","Female","Right-handed","3","no","right","d","582.901998918","494.787906622","27","green","1"
"96","87","18","614.662559776","1","1","5","482","2","right","3","out","Female","Right-handed","3","no","right","d","363.561753758","470.543486175","27","red","0"
"96","87","18","613.2655841","1","1","5","483","0","right","2","in","Female","Right-handed","3","no","right","s","397.156287754","614.240626394","27","green","0"
"96","87","18","612.323051452","1","1","5","484","1","left","3","out","Female","Right-handed","3","no","left","s","590.810179609","486.800830138","27","red","0"
"96","86","18","611.299685507","1","0","5","485","0","right","0","out","Female","Right-handed","3","no","right","s","390.374136035","670.533415736","27","red","2"
"96","85","18","613.827518269","1","0","5","486","2","right","3","in","Female","Right-handed","3","no","right","s","1057.97365458","574.134623804","27","red","1"
"96","84","18","614.356157963","1","0","5","487","1","right","3","in","Female","Right-handed","3","no","right","s","555.595716151","758.756230282","27","green","2"
"96","84","18","612.873597785","1","1","5","488","0","right","3","in","Female","Right-handed","3","no","right","d","616.249582671","366.35774367","27","red","1"
"96","84","18","610.968367659","1","1","5","489","3","right","3","out","Female","Right-handed","3","no","right","s","402.742174002","502.926360399","27","green","1"
"96","84","18","609.928646849","1","1","5","490","1","right","3","out","Female","Right-handed","3","no","right","d","446.604065314","598.580132307","27","green","1"
"96","84","18","611.017901461","1","1","5","491","1","right","3","out","Female","Right-handed","3","no","right","d","761.046773979","646.16231302","27","green","2"
"96","83","18","611.739411909","1","0","5","492","1","left","3","in","Female","Right-handed","3","no","left","d","492.764197474","854.814423305","27","red","0"
"96","84","18","610.382283935","1","1","5","493","3","left","3","out","Female","Right-handed","3","no","left","s","474.267303435","510.356997047","27","green","2"
"96","84","18","609.482800027","1","1","5","494","0","right","1","out","Female","Right-handed","3","no","right","s","446.673018954","613.983413282","27","red","2"
"96","84","18","609.651834721","1","1","5","495","1","left","0","in","Female","Right-handed","3","no","left","d","626.68307015","622.708774784","27","red","3"
"96","84","18","610.394296155","1","1","5","496","3","right","2","in","Female","Right-handed","3","no","right","s","476.274335423","878.157315003","27","green","1"
"96","84","18","608.415467878","1","1","5","497","2","left","1","in","Female","Right-handed","3","no","left","s","409.842474608","446.841714835","27","green","3"
"96","84","18","609.67970436","1","1","5","498","0","right","3","in","Female","Right-handed","3","no","right","d","405.363695171","1046.61522618","27","red","0"
"96","84","18","609.45988051","1","0","5","499","1","left","1","out","Female","Right-handed","3","no","left","d","460.029820044","718.002704906","27","red","3"
"96","83","18","607.499212181","1","0","5","500","1","right","3","out","Female","Right-handed","3","no","right","s","383.723798017","462.668980516","27","red","0"
"96","83","18","605.205072067","1","1","5","501","3","left","1","in","Female","Right-handed","3","no","left","s","432.319757591","342.20376474","27","red","3"
dis_reply=No
dis_loc=1
