"acc_1","acc_2","age","avg_rt","correct_1","correct_2","count_block_loop","count_trial_sequence","cue_position","detection","dis_position","dis_shape","gender","hand","high_loc","practice","response_keyboard_response_1","response_keyboard_response_2","response_time_keyboard_response_1","response_time_keyboard_response_2","subject_nr","tar_color","tar_position"
"100","100","21","1200.7322282","1","1","0","0","2","left","2","in","Female","Right-handed","1","yes","left","d","1250.44507455","1151.01938185","21","green","1"
"100","50","21","1258.36765803","1","0","0","1","0","left","3","out","Female","Right-handed","1","yes","left","s","1560.03831924","1071.96785649","21","green","0"
"100","33","21","1300.92999279","1","0","0","2","2","left","2","out","Female","Right-handed","1","yes","left","s","1970.54506117","801.564263442","21","green","1"
"100","50","21","1183.47695025","1","1","0","3","3","left","0","in","Female","Right-handed","1","yes","left","s","724.164428888","938.071216398","21","green","3"
"100","40","21","1375.76142144","1","0","0","4","3","right","0","out","Female","Right-handed","1","yes","right","None","1289.67192932","3000.12668307","21","red","2"
"100","50","21","1316.23269426","1","1","0","5","2","left","0","out","Female","Right-handed","1","yes","left","d","1387.16466268","650.013454084","21","red","1"
"100","57","21","1300.6506104","1","1","0","6","1","left","0","in","Female","Right-handed","1","yes","left","s","1348.61355793","1065.70265652","21","red","2"
"100","62","21","1260.1588205","1","1","0","7","3","right","3","out","Female","Right-handed","1","yes","right","d","856.181990035","1097.25059228","21","red","1"
"100","66","21","1209.88248835","1","1","0","8","0","left","3","out","Female","Right-handed","1","yes","left","d","805.667512381","809.676149918","21","red","1"
"100","60","21","1170.07078537","1","0","0","9","0","left","2","out","Female","Right-handed","1","yes","left","s","926.307329297","697.223587951","21","red","1"
"90","54","21","1336.4355527","0","0","0","10","1","right","3","out","Female","Right-handed","1","yes","None","None","3000.08498991","3000.08146206","21","green","1"
"91","50","21","1290.61531736","1","0","0","11","3","right","2","in","Female","Right-handed","1","yes","right","d","700.074438326","873.111018969","21","green","3"
"92","53","21","1263.27919315","1","1","0","12","0","right","1","out","Female","Right-handed","1","yes","right","d","884.677023889","985.814381391","21","green","3"
"92","50","21","1312.33939254","1","0","0","13","2","left","1","out","Female","Right-handed","1","yes","left","None","900.107985275","3000.13598386","21","red","2"
"93","46","21","1369.20971459","1","0","0","14","2","right","0","out","Female","Right-handed","1","yes","right","None","1330.69575953","3000.09268711","21","green","3"
"93","50","21","1356.42047293","1","1","0","15","2","left","0","out","Female","Right-handed","1","yes","left","s","1096.06618565","1233.09751038","21","red","1"
"94","52","21","1355.48258245","1","1","0","16","1","right","1","out","Female","Right-handed","1","yes","right","d","1703.51476595","977.437903639","21","green","2"
"94","55","21","1321.79979205","1","1","0","17","2","right","2","out","Female","Right-handed","1","yes","right","d","529.171264934","969.213445584","21","red","3"
"94","57","21","1313.87089598","1","1","0","18","3","left","3","in","Female","Right-handed","1","yes","left","d","1316.68685577","1025.61467755","21","green","0"
"95","60","21","1291.65823182","1","1","0","19","3","left","1","out","Female","Right-handed","1","yes","left","s","826.245976205","912.989249278","21","red","0"
"95","61","21","1289.57744771","1","1","0","20","1","right","2","out","Female","Right-handed","1","yes","right","s","935.089834355","1560.83369654","21","green","0"
"95","59","21","1348.31204781","1","0","0","21","2","left","1","in","Female","Right-handed","1","yes","left","None","2163.39006493","3000.08723492","21","red","2"
"100","0","21","874.660561516","1","0","1","22","1","left","0","out","Female","Right-handed","1","no","left","s","779.652901198","969.668221835","21","red","1"
"100","50","21","908.971872188","1","1","1","23","0","left","0","out","Female","Right-handed","1","no","left","d","1085.30742454","801.258941181","21","red","3"
"100","66","21","1003.71063831","1","1","1","24","2","right","3","in","Female","Right-handed","1","no","right","s","1336.58636242","1049.78997869","21","green","1"
"100","75","21","944.497736858","1","1","1","25","2","right","1","out","Female","Right-handed","1","no","right","s","860.365097411","673.352967598","21","green","0"
"100","80","21","940.48739952","1","1","1","26","2","right","1","in","Female","Right-handed","1","no","right","s","1023.01623113","825.875869195","21","green","2"
"100","83","21","937.730054065","1","1","1","27","1","left","1","in","Female","Right-handed","1","no","left","s","886.518578947","961.368074641","21","green","2"
"100","85","21","923.289774969","1","1","1","28","0","right","3","in","Female","Right-handed","1","no","right","d","1016.09259989","657.203600887","21","red","0"
"100","87","21","956.074024773","1","1","1","29","0","left","0","out","Female","Right-handed","1","no","left","d","881.632781355","1489.49476544","21","red","2"
"100","77","21","955.202421568","1","0","1","30","0","right","2","out","Female","Right-handed","1","no","right","d","1119.21807996","777.241111908","21","green","1"
"100","80","21","930.760399959","1","1","1","31","2","left","0","out","Female","Right-handed","1","no","left","s","931.694407045","489.870003919","21","green","1"
"100","81","21","928.445357767","1","1","1","32","2","right","0","in","Female","Right-handed","1","no","right","s","881.286407355","929.303464334","21","red","2"
"100","83","21","914.690210155","1","1","1","33","2","right","3","out","Female","Right-handed","1","no","right","s","716.78121062","809.985962231","21","green","0"
"100","84","21","899.335058146","1","1","1","34","2","left","2","out","Female","Right-handed","1","no","left","d","724.633637321","705.512830755","21","green","1"
"100","85","21","914.859222109","1","1","1","35","1","right","2","in","Female","Right-handed","1","no","right","s","480.133366829","1753.21334042","21","red","0"
"100","86","21","915.315225458","1","1","1","36","0","right","1","out","Female","Right-handed","1","no","right","d","865.713689185","977.68485549","21","red","2"
"100","87","21","922.153126492","1","1","1","37","1","right","0","in","Female","Right-handed","1","no","right","s","1368.29497723","681.148306787","21","red","1"
"100","82","21","912.701302294","1","0","1","38","1","left","3","out","Female","Right-handed","1","no","left","s","624.976707943","897.967522324","21","red","0"
"100","83","21","902.238256632","1","1","1","39","3","right","1","out","Female","Right-handed","1","no","right","d","703.3287503","745.404210436","21","green","0"
"100","84","21","890.233566637","1","1","1","40","0","right","1","out","Female","Right-handed","1","no","right","s","499.154109828","849.144183623","21","red","0"
"100","85","21","886.375940223","1","1","1","41","3","left","3","out","Female","Right-handed","1","no","left","s","880.555494077","745.606582641","21","green","2"
"100","85","21","877.347342423","1","1","1","42","2","left","1","out","Female","Right-handed","1","no","left","s","608.207395941","785.343376891","21","red","0"
"100","86","21","874.824236338","1","1","1","43","3","left","3","in","Female","Right-handed","1","no","left","d","674.753537256","968.924479879","21","green","0"
"100","86","21","889.216893721","1","1","1","44","2","right","0","out","Female","Right-handed","1","no","right","s","762.297319103","1649.4133932","21","red","3"
"100","87","21","880.312798436","1","1","1","45","3","left","1","in","Female","Right-handed","1","no","left","s","646.00064719","705.036566535","21","green","0"
"100","88","21","885.796190337","1","1","1","46","3","right","0","out","Female","Right-handed","1","no","right","s","1193.39310849","841.402083432","21","red","2"
"100","88","21","877.77290083","1","1","1","47","0","left","3","out","Female","Right-handed","1","no","left","s","689.217858657","665.163467667","21","red","1"
"100","88","21","878.439922269","1","1","1","48","1","right","1","in","Female","Right-handed","1","no","right","d","573.71912981","1217.84582958","21","red","0"
"100","89","21","878.202888476","1","1","1","49","3","right","1","in","Female","Right-handed","1","no","right","d","982.222996216","761.382955883","21","red","2"
"100","86","21","883.654557059","1","0","1","50","2","left","1","in","Female","Right-handed","1","no","left","d","815.899015317","1256.70353946","21","red","2"
"100","86","21","882.85036077","1","1","1","51","1","left","2","out","Female","Right-handed","1","no","left","s","765.464396129","953.592940641","21","green","1"
"100","87","21","881.29287859","1","1","1","52","1","right","3","out","Female","Right-handed","1","no","right","d","1043.96031194","625.176514412","21","red","1"
"100","87","21","879.878521349","1","1","1","53","3","left","2","in","Female","Right-handed","1","no","left","d","719.561182661","952.505711146","21","red","3"
"100","87","21","876.300939756","1","1","1","54","3","right","1","in","Female","Right-handed","1","no","right","d","562.28012871","961.356528831","21","green","0"
"100","88","21","874.860556642","1","1","1","55","3","left","1","out","Female","Right-handed","1","no","left","d","621.832722536","1032.8231052","21","red","2"
"100","88","21","884.616009838","1","1","1","56","2","left","1","out","Female","Right-handed","1","no","left","s","687.258921302","1745.34391571","21","red","0"
"100","88","21","879.624426894","1","1","1","57","2","right","1","in","Female","Right-handed","1","no","right","s","760.900598019","648.937449674","21","green","3"
"100","89","21","874.959972178","1","1","1","58","2","left","1","in","Female","Right-handed","1","no","left","s","716.613155091","697.466049751","21","green","2"
"100","86","21","867.885772306","1","0","1","59","2","right","2","in","Female","Right-handed","1","no","right","d","555.10313125","657.177622837","21","green","3"
"100","87","21","865.420369125","1","1","1","60","1","right","1","out","Female","Right-handed","1","no","right","s","806.605287886","736.864808627","21","red","3"
"100","87","21","858.169888106","1","1","1","61","1","left","1","in","Female","Right-handed","1","no","left","s","597.429712536","553.372544149","21","red","2"
"100","87","21","855.040711969","1","1","1","62","0","right","1","out","Female","Right-handed","1","no","right","d","610.853308375","848.894024646","21","red","3"
"100","88","21","854.733492321","1","1","1","63","1","left","1","in","Female","Right-handed","1","no","left","s","627.680670121","1056.59430337","21","green","0"
"100","88","21","849.975619195","1","1","1","64","3","left","1","out","Female","Right-handed","1","no","left","s","723.158019973","577.131875791","21","green","3"
"100","88","21","847.312574423","1","1","1","65","1","left","0","out","Female","Right-handed","1","no","left","d","480.814889743","984.788408765","21","red","3"
"100","88","21","841.911306663","1","1","1","66","1","right","1","out","Female","Right-handed","1","no","right","s","831.280586339","377.230464102","21","green","2"
"100","89","21","840.90204782","1","1","1","67","0","left","1","out","Female","Right-handed","1","no","left","s","645.984932082","944.985867623","21","red","3"
"100","89","21","838.80006823","1","1","1","68","0","right","1","out","Female","Right-handed","1","no","right","d","611.659269343","872.558744857","21","red","3"
"100","89","21","838.827062735","1","1","1","69","0","left","0","in","Female","Right-handed","1","no","left","s","1031.03767554","649.153933395","21","green","1"
"100","89","21","834.396338887","1","1","1","70","2","right","1","out","Female","Right-handed","1","no","right","d","514.799630677","728.643557755","21","green","3"
"100","90","21","836.214013586","1","1","1","71","1","right","1","out","Female","Right-handed","1","no","right","s","897.177917883","953.382229782","21","red","2"
"100","90","21","832.532670479","1","1","1","72","3","right","1","out","Female","Right-handed","1","no","right","s","472.017952416","824.913077784","21","red","3"
"100","90","21","829.053717968","1","1","1","73","0","right","2","in","Female","Right-handed","1","no","right","d","670.623668819","632.630611042","21","red","0"
"100","90","21","825.414790573","1","1","1","74","0","right","1","in","Female","Right-handed","1","no","right","s","551.155750611","721.225381392","21","red","0"
"100","90","21","823.042768078","1","1","1","75","3","right","0","in","Female","Right-handed","1","no","right","d","481.821619323","912.829532375","21","green","3"
"100","89","21","823.720898134","1","0","1","76","3","right","2","in","Female","Right-handed","1","no","right","d","960.336970573","760.34287177","21","red","1"
"100","89","21","824.855254271","1","1","1","77","0","right","0","out","Female","Right-handed","1","no","right","s","677.60727412","1096.88240953","21","green","1"
"100","89","21","823.190367918","1","1","1","78","3","left","3","in","Female","Right-handed","1","no","left","d","667.497322807","792.416141427","21","red","1"
"100","89","21","823.180168236","1","1","1","79","3","right","1","out","Female","Right-handed","1","no","right","d","692.144077475","953.053495236","21","red","0"
"100","89","21","821.553815362","1","1","1","80","2","right","1","in","Female","Right-handed","1","no","right","d","501.846526167","952.60417118","21","green","3"
"100","90","21","819.567695857","1","1","1","81","2","right","3","out","Female","Right-handed","1","no","right","s","988.320782082","416.452508129","21","green","2"
"100","90","21","817.82773958","1","1","1","82","0","left","1","in","Female","Right-handed","1","no","left","d","537.894116685","888.966609229","21","green","3"
"100","90","21","820.364234394","1","1","1","83","0","left","1","in","Female","Right-handed","1","no","left","d","877.655253338","1072.52558277","21","red","2"
"100","90","21","821.598183453","1","1","1","84","3","right","0","out","Female","Right-handed","1","no","right","d","1043.06904034","753.13700983","21","green","1"
"98","89","21","828.582770416","0","0","1","85","3","right","2","in","Female","Right-handed","1","no","left","s","1069.74176216","1467.48173601","21","green","1"
"98","89","21","830.900157179","1","1","1","86","2","right","1","out","Female","Right-handed","1","no","right","s","830.263273121","1128.1625469","21","green","3"
"98","89","21","833.004742108","1","1","1","87","2","left","3","in","Female","Right-handed","1","no","left","d","906.732708652","1032.87281629","21","red","1"
"98","88","21","845.568717018","1","0","1","88","3","left","2","out","Female","Right-handed","1","no","left","s","1021.31226353","2328.2698587","21","green","0"
"98","88","21","846.219905624","1","1","1","89","2","left","1","in","Female","Right-handed","1","no","left","d","770.732808713","1008.96627567","21","red","2"
"98","88","21","845.807800744","1","1","1","90","1","right","1","in","Female","Right-handed","1","no","right","d","779.257136834","856.31220098","21","green","3"
"98","88","21","848.509022608","1","1","1","91","0","right","1","in","Female","Right-handed","1","no","right","s","1068.96851427","1000.8181482","21","red","2"
"98","88","21","847.755552761","1","1","1","92","1","left","1","out","Female","Right-handed","1","no","left","d","757.582142745","832.443184248","21","green","0"
"98","88","21","846.621415239","1","1","1","93","3","right","1","in","Female","Right-handed","1","no","right","d","571.112024074","961.083278235","21","green","3"
"98","87","21","843.649960154","1","0","1","94","1","right","1","in","Female","Right-handed","1","no","right","s","642.6802676","616.73012044","21","red","3"
"98","87","21","843.711405922","1","1","1","95","0","left","2","out","Female","Right-handed","1","no","left","s","776.182426198","920.211467746","21","green","1"
"98","88","21","842.940591194","1","1","1","96","1","left","1","in","Female","Right-handed","1","no","left","d","666.831194336","904.969408439","21","green","3"
"98","88","21","842.920299142","1","1","1","97","3","left","0","in","Female","Right-handed","1","no","left","d","650.372015283","1032.4247751","21","green","1"
"98","88","21","841.688589629","1","1","1","98","0","left","3","in","Female","Right-handed","1","no","left","d","656.018232112","840.13910123","21","red","2"
"98","88","21","842.546739704","1","1","1","99","1","left","2","out","Female","Right-handed","1","no","left","s","528.658759722","1288.5898313","21","red","1"
"98","88","21","841.504523995","1","1","1","100","0","left","1","out","Female","Right-handed","1","no","left","s","632.203416462","888.219980843","21","green","0"
"98","88","21","840.209153767","1","1","1","101","3","right","1","in","Female","Right-handed","1","no","right","d","562.839137827","912.91067368","21","red","3"
"98","87","21","839.512448592","1","0","1","102","0","right","1","out","Female","Right-handed","1","no","right","d","671.4277055","896.124363644","21","green","0"
"98","87","21","837.732001446","1","1","1","103","3","left","1","in","Female","Right-handed","1","no","left","d","571.048201469","815.983363776","21","green","2"
"98","87","21","836.929322522","1","1","1","104","0","right","1","in","Female","Right-handed","1","no","right","d","685.597929696","856.621371844","21","green","2"
"98","88","21","835.355814594","1","1","1","105","2","left","1","in","Female","Right-handed","1","no","left","d","545.25392261","864.255390537","21","red","0"
"98","88","21","834.137690718","1","1","1","106","2","left","2","in","Female","Right-handed","1","no","left","d","518.771385803","944.859184528","21","red","0"
"98","88","21","832.948797787","1","1","1","107","1","left","3","out","Female","Right-handed","1","no","left","d","663.494778913","800.291018299","21","green","2"
"98","87","21","832.649821618","1","0","1","108","3","left","3","in","Female","Right-handed","1","no","left","d","533.970469027","1079.90527313","21","red","1"
"98","87","21","833.735014551","1","1","1","109","1","left","1","in","Female","Right-handed","1","no","left","d","791.624291975","1064.66930744","21","green","0"
"98","87","21","832.559492679","1","1","1","110","0","left","3","in","Female","Right-handed","1","no","left","s","578.168111329","880.059024697","21","red","1"
"98","87","21","831.511783861","1","1","1","111","3","left","1","in","Female","Right-handed","1","no","left","s","635.767219996","840.764178021","21","green","2"
"98","86","21","832.360846407","1","0","1","112","0","right","2","in","Female","Right-handed","1","no","right","s","529.19980872","1288.35314242","21","green","3"
"98","86","21","832.0513016","1","1","1","113","2","right","0","out","Female","Right-handed","1","no","right","d","735.816385859","871.949062508","21","green","1"
"98","87","21","832.991856304","1","1","1","114","1","left","0","out","Female","Right-handed","1","no","left","s","902.510153101","936.53562502","21","green","2"
"98","87","21","835.507563697","1","1","1","115","2","right","2","out","Female","Right-handed","1","no","right","s","994.984632853","1143.95206954","21","red","1"
"98","87","21","835.134903471","1","1","1","116","1","left","2","out","Female","Right-handed","1","no","left","d","663.654816512","936.554868036","21","red","3"
"98","87","21","834.656244458","1","1","1","117","1","left","3","out","Female","Right-handed","1","no","left","s","762.210084184","816.157192196","21","green","1"
"100","100","21","831.261664076","1","1","2","118","3","left","0","in","Female","Right-handed","1","no","left","d","1037.28395325","625.239374902","21","green","1"
"100","100","21","790.519583446","1","1","2","119","3","right","3","out","Female","Right-handed","1","no","right","s","746.751541126","752.803464507","21","red","1"
"100","100","21","761.662300113","1","1","2","120","0","right","2","in","Female","Right-handed","1","no","right","s","670.48159134","737.413875555","21","red","1"
"100","100","21","744.135936398","1","1","2","121","3","right","1","in","Female","Right-handed","1","no","right","d","806.10625277","577.007437736","21","red","3"
"100","100","21","706.532966305","1","1","2","122","2","left","3","out","Female","Right-handed","1","no","left","d","607.613428641","504.62874322","21","red","1"
"100","100","21","679.501720699","1","1","2","123","0","right","0","out","Female","Right-handed","1","no","right","d","487.329607247","601.361378096","21","red","3"
"100","100","21","657.90867355","1","1","2","124","2","left","1","out","Female","Right-handed","1","no","left","d","527.880380396","528.820400912","21","green","2"
"100","100","21","646.046710137","1","1","2","125","3","right","2","out","Female","Right-handed","1","no","right","d","557.545067888","568.480864604","21","green","0"
"100","100","21","663.886516476","1","1","2","126","3","right","2","out","Female","Right-handed","1","no","right","s","772.090402315","841.119532066","21","green","1"
"100","100","21","717.176253369","1","1","2","127","1","right","1","in","Female","Right-handed","1","no","right","d","1368.73243476","1024.83533605","21","green","2"
"100","100","21","726.591379305","1","1","2","128","3","left","3","out","Female","Right-handed","1","no","left","d","776.1731254","865.312151931","21","green","0"
"100","91","21","731.656343331","1","0","2","129","0","left","1","in","Female","Right-handed","1","no","left","d","597.850492777","976.891402446","21","green","2"
"100","92","21","738.373015727","1","1","2","130","0","left","1","out","Female","Right-handed","1","no","left","s","516.446510708","1121.49965827","21","green","2"
"100","92","21","729.743260813","1","1","2","131","3","right","1","out","Female","Right-handed","1","no","right","s","674.016851088","561.096042773","21","red","2"
"100","93","21","736.2981985","1","1","2","132","0","left","1","out","Female","Right-handed","1","no","left","s","703.631186101","952.503466135","21","red","2"
"100","87","21","739.326679824","1","0","2","133","1","left","3","in","Female","Right-handed","1","no","left","d","592.245006992","977.262792352","21","green","2"
"100","88","21","737.210635514","1","1","2","134","2","right","1","out","Female","Right-handed","1","no","right","s","621.850041236","784.857811872","21","red","2"
"100","88","21","730.086782719","1","1","2","135","2","left","1","in","Female","Right-handed","1","no","left","s","505.573574483","712.388995948","21","green","3"
"100","89","21","734.923122442","1","1","2","136","1","left","1","out","Female","Right-handed","1","no","left","d","635.038551758","1008.91592316","21","green","2"
"100","90","21","732.358611256","1","1","2","137","3","right","2","in","Female","Right-handed","1","no","right","d","790.581962821","576.683834632","21","green","1"
"100","90","21","738.307170717","1","1","2","138","0","left","1","out","Female","Right-handed","1","no","left","d","817.189899855","897.36682002","21","green","0"
"100","90","21","748.923106343","1","1","2","139","1","left","1","in","Female","Right-handed","1","no","left","d","558.903623692","1384.81188525","21","red","2"
"100","91","21","745.594681267","1","1","2","140","0","left","1","out","Female","Right-handed","1","no","left","s","544.351746619","800.386912568","21","red","3"
"100","91","21","742.760396003","1","1","2","141","3","right","0","in","Female","Right-handed","1","no","right","d","890.011504118","465.132165758","21","red","1"
"100","92","21","749.913935683","1","1","2","142","0","right","0","in","Female","Right-handed","1","no","right","s","858.655356918","984.542419115","21","red","1"
"100","92","21","744.349546029","1","1","2","143","0","left","3","out","Female","Right-handed","1","no","left","s","634.235797945","576.243811374","21","red","2"
"100","92","21","744.955248681","1","1","2","144","3","left","1","in","Female","Right-handed","1","no","left","s","752.725209633","768.681825662","21","green","2"
"100","92","21","745.205692546","1","1","2","145","1","right","2","in","Female","Right-handed","1","no","right","s","615.508831397","888.426522375","21","red","0"
"100","93","21","744.580576869","1","1","2","146","1","left","3","out","Female","Right-handed","1","no","left","s","557.051484968","897.103190888","21","green","0"
"100","93","21","748.313960443","1","1","2","147","0","right","1","in","Female","Right-handed","1","no","right","d","808.620992146","904.543176002","21","green","3"
"100","93","21","746.568096366","1","1","2","148","0","left","2","out","Female","Right-handed","1","no","left","d","620.132924232","768.251423899","21","red","3"
"100","93","21","745.058718409","1","1","2","149","2","left","1","out","Female","Right-handed","1","no","left","d","507.711151033","888.824852474","21","green","0"
"100","93","21","743.434116016","1","1","2","150","3","right","1","in","Female","Right-handed","1","no","right","d","558.448526717","824.44515216","21","red","2"
"100","94","21","742.022022141","1","1","2","151","1","left","1","out","Female","Right-handed","1","no","left","d","629.916065256","760.929783253","21","red","2"
"100","94","21","738.479314623","1","1","2","152","2","right","1","out","Female","Right-handed","1","no","right","s","531.477538461","704.576979537","21","green","2"
"100","94","21","742.250282792","1","1","2","153","0","left","2","out","Female","Right-handed","1","no","left","d","876.193106058","872.275231348","21","green","1"
"100","91","21","740.173178675","1","0","2","154","2","left","1","in","Female","Right-handed","1","no","left","d","505.937587877","824.857273081","21","red","2"
"100","92","21","742.479439066","1","1","2","155","3","right","1","out","Female","Right-handed","1","no","right","d","607.325745834","1048.29640122","21","red","0"
"100","92","21","747.657557467","1","1","2","156","0","right","3","in","Female","Right-handed","1","no","right","d","839.917806734","1048.93430666","21","red","0"
"100","90","21","745.904412164","1","0","2","157","2","left","2","in","Female","Right-handed","1","no","left","d","578.507429571","776.556061115","21","red","3"
"100","90","21","744.128333067","1","1","2","158","2","left","3","out","Female","Right-handed","1","no","left","s","610.152863199","736.017475196","21","green","1"
"100","90","21","753.904156453","1","1","2","159","0","right","1","out","Female","Right-handed","1","no","right","s","956.610884401","1352.81494615","21","green","2"
"100","90","21","754.414062557","1","1","2","160","2","right","2","out","Female","Right-handed","1","no","right","d","799.378900119","752.281337773","21","green","1"
"100","90","21","753.685311413","1","1","2","161","2","right","1","out","Female","Right-handed","1","no","right","d","515.959342098","928.738682327","21","red","0"
"100","91","21","757.134985331","1","1","2","162","2","right","0","in","Female","Right-handed","1","no","right","s","721.461749577","1096.37952584","21","green","1"
"100","91","21","755.480779304","1","1","2","163","3","right","1","out","Female","Right-handed","1","no","right","s","666.076868714","696.006147482","21","red","0"
"100","91","21","752.753634011","1","1","2","164","1","right","1","in","Female","Right-handed","1","no","right","s","525.776799797","728.833101311","21","red","0"
"100","91","21","749.86943157","1","1","2","165","0","right","2","in","Female","Right-handed","1","no","right","d","516.280379496","712.343454186","21","green","0"
"100","91","21","748.330851412","1","1","2","166","1","right","0","in","Female","Right-handed","1","no","right","d","571.983731963","776.97427565","21","red","3"
"100","92","21","747.606206124","1","1","2","167","3","right","1","out","Female","Right-handed","1","no","right","d","543.728914869","880.468259158","21","green","3"
"100","92","21","746.409487372","1","1","2","168","3","left","0","in","Female","Right-handed","1","no","left","s","637.137642305","736.009457265","21","green","2"
"100","92","21","750.567400197","1","1","2","169","2","left","2","out","Female","Right-handed","1","no","left","s","740.536372963","1184.70553559","21","red","0"
"100","92","21","754.81581935","1","1","2","170","1","left","0","in","Female","Right-handed","1","no","left","s","655.280263047","1296.18696755","21","red","1"
"100","90","21","754.938436715","1","0","2","171","0","right","0","in","Female","Right-handed","1","no","right","s","802.953287319","719.921026757","21","green","2"
"100","90","21","757.737153862","1","1","2","172","1","left","0","out","Female","Right-handed","1","no","left","d","1001.4015318","816.334227828","21","red","2"
"100","91","21","754.770376836","1","1","2","173","0","right","1","out","Female","Right-handed","1","no","right","s","527.013803949","656.181476865","21","red","3"
"100","91","21","754.97111246","1","1","2","174","1","left","1","in","Female","Right-handed","1","no","left","d","507.713396044","1024.71121872","21","green","3"
"100","91","21","753.793751849","1","1","2","175","2","right","0","out","Female","Right-handed","1","no","right","d","597.169611341","776.198782754","21","green","3"
"100","91","21","751.894741031","1","1","2","176","3","right","0","in","Female","Right-handed","1","no","right","s","547.81580728","735.688419896","21","green","3"
"100","91","21","751.477130069","1","1","2","177","1","left","2","out","Female","Right-handed","1","no","left","s","669.270244514","784.405922081","21","green","1"
"100","91","21","748.577738593","1","1","2","178","2","right","1","in","Female","Right-handed","1","no","right","d","469.095261506","680.133238551","21","green","3"
"100","91","21","749.110448373","1","1","2","179","1","left","3","out","Female","Right-handed","1","no","left","d","610.613091587","952.598398289","21","red","1"
"100","92","21","748.605461598","1","1","2","180","2","right","1","out","Female","Right-handed","1","no","right","s","482.27607485","952.316488343","21","red","0"
"100","92","21","749.279362192","1","1","2","181","0","left","1","out","Female","Right-handed","1","no","left","d","463.636984641","1119.8332145","21","red","0"
"100","90","21","752.158646394","1","0","2","182","3","right","1","in","Female","Right-handed","1","no","right","s","704.469860153","1168.39581053","21","red","3"
"100","90","21","753.467960274","1","1","2","183","1","left","2","in","Female","Right-handed","1","no","left","d","469.069924904","1208.0768001","21","red","3"
"100","89","21","750.529770072","1","0","2","184","3","left","1","in","Female","Right-handed","1","no","left","s","424.590051931","688.628381438","21","red","3"
"100","89","21","754.732919522","1","1","2","185","1","left","1","in","Female","Right-handed","1","no","left","d","864.350964112","1208.3369013","21","green","0"
"100","89","21","752.813239396","1","1","2","186","1","left","1","in","Female","Right-handed","1","no","left","d","500.758013834","743.791967776","21","red","0"
"100","90","21","748.971660972","1","1","2","187","1","left","2","in","Female","Right-handed","1","no","left","s","583.343836799","384.461662645","21","red","1"
"100","90","21","747.788320969","1","1","2","188","2","left","2","out","Female","Right-handed","1","no","left","d","634.000391932","695.90864965","21","red","1"
"100","90","21","748.627314875","1","1","2","189","1","left","1","out","Female","Right-handed","1","no","left","s","824.661315186","791.730449186","21","green","3"
"100","90","21","750.025397025","1","1","2","190","1","left","1","in","Female","Right-handed","1","no","left","d","749.249603192","952.1250205","21","red","3"
"100","90","21","748.218369109","1","1","2","191","2","right","1","in","Female","Right-handed","1","no","right","s","704.757222295","527.853440173","21","red","0"
"100","90","21","747.394058467","1","1","2","192","1","right","1","out","Female","Right-handed","1","no","right","s","692.339714617","680.450427288","21","green","0"
"100","89","21","755.699179368","1","0","2","193","1","left","0","in","Female","Right-handed","1","no","left","d","829.085280799","1928.08121315","21","green","1"
"100","89","21","759.210135926","1","1","2","194","3","left","3","in","Female","Right-handed","1","no","left","s","620.592190506","1431.49347807","21","green","1"
"100","89","21","759.593305535","1","1","2","195","2","left","1","in","Female","Right-handed","1","no","left","d","570.085410058","1008.10932077","21","red","3"
"100","89","21","758.581960703","1","1","2","196","0","left","0","in","Female","Right-handed","1","no","left","s","567.604345968","791.789781768","21","red","1"
"100","90","21","760.540759961","1","1","2","197","2","right","3","out","Female","Right-handed","1","no","right","d","902.248448314","928.323354252","21","red","2"
"100","90","21","760.427529088","1","1","2","198","0","left","1","in","Female","Right-handed","1","no","left","s","606.842425797","895.895692665","21","green","0"
"100","90","21","759.019025749","1","1","2","199","1","right","3","in","Female","Right-handed","1","no","right","s","594.309460139","695.551050565","21","green","1"
"100","90","21","756.947361404","1","1","2","200","2","right","1","in","Female","Right-handed","1","no","right","s","494.082617253","680.059152975","21","green","3"
"100","90","21","755.730380116","1","1","2","201","0","right","3","out","Female","Right-handed","1","no","right","s","709.791511734","599.650354707","21","green","1"
"100","89","21","753.020348208","1","0","2","202","2","right","3","out","Female","Right-handed","1","no","right","d","490.380905569","560.374430293","21","red","0"
"100","89","21","751.473308942","1","1","2","203","2","right","0","in","Female","Right-handed","1","no","right","d","743.93661099","496.013331547","21","green","1"
"100","89","21","752.347692957","1","1","2","204","3","left","1","in","Female","Right-handed","1","no","left","s","903.566273046","751.523163606","21","red","2"
"100","89","21","749.516450388","1","1","2","205","3","left","1","out","Female","Right-handed","1","no","left","d","510.145390464","496.251303295","21","green","0"
"100","89","21","749.708952333","1","1","2","206","2","right","0","in","Female","Right-handed","1","no","right","s","677.549865824","855.748381116","21","green","2"
"100","90","21","747.371112259","1","1","2","207","0","right","1","out","Female","Right-handed","1","no","right","s","543.214806094","535.391885292","21","red","3"
"100","90","21","745.553400069","1","1","2","208","0","right","1","out","Female","Right-handed","1","no","right","d","627.978615899","535.939990048","21","green","0"
"100","89","21","748.037327334","1","0","2","209","0","right","3","out","Female","Right-handed","1","no","right","d","860.562017449","1087.58739929","21","green","1"
"100","89","21","749.022030583","1","1","2","210","3","left","1","in","Female","Right-handed","1","no","left","d","711.035250919","968.19420805","21","green","0"
"100","89","21","749.54616716","1","1","2","211","1","right","1","in","Female","Right-handed","1","no","right","d","820.748571918","775.833165739","21","red","3"
"100","89","21","748.075037503","1","1","2","212","3","right","3","out","Female","Right-handed","1","no","right","d","596.220931446","623.356768105","21","green","2"
"100","88","21","747.59999872","1","0","2","213","3","left","2","out","Female","Right-handed","1","no","left","d","549.051849317","855.89077929","21","red","3"
"100","100","21","553.803426985","1","1","3","214","1","right","2","out","Female","Right-handed","1","no","right","d","602.787284355","504.819569614","21","red","1"
"100","100","21","589.135177906","1","1","3","215","3","left","0","out","Female","Right-handed","1","no","left","s","600.397945236","648.53591242","21","green","1"
"100","100","21","608.449055925","1","1","3","216","3","left","1","out","Female","Right-handed","1","no","left","s","694.102694135","600.050929788","21","green","2"
"100","100","21","600.171078284","1","1","3","217","0","left","1","out","Female","Right-handed","1","no","left","s","413.808840676","736.865450046","21","green","2"
"100","100","21","629.294259779","1","1","3","218","2","right","3","in","Female","Right-handed","1","no","right","s","683.253490919","808.320480603","21","green","2"
"100","100","21","620.077466971","1","1","3","219","1","right","1","out","Female","Right-handed","1","no","right","s","434.893074678","713.093931176","21","red","0"
"100","100","21","606.065833326","1","1","3","220","1","right","1","in","Female","Right-handed","1","no","right","s","451.534420776","592.457642138","21","green","0"
"100","100","21","618.524890981","1","1","3","221","2","right","0","in","Female","Right-handed","1","no","right","d","675.238460855","736.238128273","21","green","1"
"100","100","21","645.89523833","1","1","3","222","1","right","1","out","Female","Right-handed","1","no","right","s","512.84197616","1216.8740581","21","green","0"
"100","100","21","644.255675963","1","1","3","223","2","right","1","out","Female","Right-handed","1","no","right","s","690.495273127","568.503956194","21","red","2"
"100","100","21","654.501388077","1","1","3","224","1","right","3","out","Female","Right-handed","1","no","right","s","848.942773562","664.974244864","21","red","2"
"100","100","21","663.466529102","1","1","3","225","0","right","2","in","Female","Right-handed","1","no","right","d","843.54607432","680.620086438","21","green","1"
"100","100","21","687.096984054","1","1","3","226","0","right","1","out","Female","Right-handed","1","no","right","s","573.099825968","1368.22506099","21","red","2"
"100","100","21","682.788383039","1","1","3","227","2","left","1","out","Female","Right-handed","1","no","left","d","556.906841754","696.646297933","21","green","2"
"100","100","21","696.288805783","1","1","3","228","2","left","3","out","Female","Right-handed","1","no","left","d","1074.30107021","696.288378182","21","red","1"
"100","93","21","700.733761637","1","0","3","229","2","right","3","in","Female","Right-handed","1","no","right","d","766.847326362","767.968872533","21","green","1"
"100","94","21","696.573910317","1","1","3","230","0","right","1","in","Female","Right-handed","1","no","right","d","491.505017446","768.527560955","21","red","3"
"100","94","21","699.107477607","1","1","3","231","3","right","1","in","Female","Right-handed","1","no","right","s","588.130532968","896.225710108","21","red","2"
"100","94","21","694.485528532","1","1","3","232","3","right","1","in","Female","Right-handed","1","no","right","d","453.79643538","768.784454995","21","red","3"
"100","95","21","689.403954503","1","1","3","233","2","left","0","out","Female","Right-handed","1","no","left","s","561.321506568","624.386589305","21","red","2"
"100","95","21","687.049210782","1","1","3","234","3","left","2","in","Female","Right-handed","1","no","left","s","503.836893768","776.071778964","21","red","1"
"100","95","21","684.164603222","1","1","3","235","1","left","3","in","Female","Right-handed","1","no","left","d","542.501852935","704.673835979","21","green","1"
"95","95","21","679.40374757","0","1","3","236","3","right","3","in","Female","Right-handed","1","no","left","d","498.199977737","651.129868755","21","red","1"
"95","95","21","671.274770419","1","1","3","237","0","right","3","out","Female","Right-handed","1","no","right","s","504.739069729","463.877522154","21","red","0"
"96","92","21","673.839462711","1","0","3","238","2","left","1","in","Female","Right-handed","1","no","left","d","606.33024128","864.453914139","21","red","0"
"96","92","21","671.557971968","1","1","3","239","2","left","2","in","Female","Right-handed","1","no","left","d","597.059284803","631.982121966","21","green","0"
"96","92","21","670.485790358","1","1","3","240","1","left","1","out","Female","Right-handed","1","no","left","d","652.616069739","632.602067257","21","green","2"
"96","92","21","662.548132126","1","1","3","241","1","left","3","in","Female","Right-handed","1","no","left","s","504.224319506","392.238400236","21","green","1"
"96","93","21","667.075547232","1","1","3","242","3","left","1","in","Female","Right-handed","1","no","left","d","843.798157613","743.888182798","21","green","0"
"96","93","21","665.623006546","1","1","3","243","0","left","1","in","Female","Right-handed","1","no","left","s","630.58379732","616.414855991","21","red","0"
"96","93","21","665.735776215","1","1","3","244","2","left","1","in","Female","Right-handed","1","no","left","s","570.124537509","768.113195023","21","green","0"
"96","93","21","664.722091397","1","1","3","245","1","right","2","out","Female","Right-handed","1","no","right","d","770.797593461","495.798130665","21","red","1"
"96","90","21","676.888081578","1","0","3","246","1","left","1","out","Female","Right-handed","1","no","left","d","604.195230495","1528.2043042","21","red","2"
"97","91","21","678.341979383","1","1","3","247","3","right","0","in","Female","Right-handed","1","no","right","s","476.738901692","975.902312261","21","green","2"
"97","88","21","692.5747862","1","0","3","248","1","left","0","out","Female","Right-handed","1","no","left","s","1160.54274238","1192.43769356","21","red","3"
"97","88","21","691.349996382","1","1","3","249","1","left","1","in","Female","Right-handed","1","no","left","s","497.030003375","799.934702081","21","green","2"
"97","89","21","696.88501083","1","1","3","250","3","left","1","out","Female","Right-handed","1","no","left","d","504.604689457","1287.68637247","21","green","2"
"97","89","21","698.856972574","1","1","3","251","3","right","2","in","Female","Right-handed","1","no","right","d","703.3287503","840.310363914","21","green","0"
"97","89","21","697.072501611","1","1","3","252","3","right","0","out","Female","Right-handed","1","no","right","d","586.776467215","671.748742869","21","red","3"
"97","90","21","697.002109033","1","1","3","253","0","right","1","out","Female","Right-handed","1","no","right","s","684.159836208","704.353760753","21","red","3"
"97","90","21","699.098505362","1","1","3","254","0","left","1","in","Female","Right-handed","1","no","left","s","541.894736321","1024.0139807","21","red","0"
"97","90","21","697.050675845","1","1","3","255","1","right","1","out","Female","Right-handed","1","no","right","s","458.598205209","767.581126071","21","green","3"
"97","90","21","699.413482322","1","1","3","256","3","right","1","in","Female","Right-handed","1","no","right","d","708.995492954","888.307215762","21","red","2"
"97","90","21","698.581010274","1","1","3","257","3","left","3","out","Female","Right-handed","1","no","left","d","549.795270519","775.774153881","21","red","2"
"97","91","21","698.530811232","1","1","3","258","3","right","1","out","Female","Right-handed","1","no","right","d","672.303903382","720.340203407","21","green","0"
"97","91","21","697.963449902","1","1","3","259","2","left","2","in","Female","Right-handed","1","no","left","d","640.970206383","703.894173756","21","red","1"
"97","91","21","697.444415009","1","1","3","260","1","left","1","out","Female","Right-handed","1","no","left","d","531.589147839","815.54847199","21","red","3"
"97","91","21","695.960415306","1","1","3","261","0","right","0","out","Female","Right-handed","1","no","right","s","684.301592963","568.123265548","21","red","1"
"97","91","21","695.130676101","1","1","3","262","3","left","1","in","Female","Right-handed","1","no","left","d","510.755072843","799.851315765","21","red","0"
"98","92","21","694.936961537","1","1","3","263","1","right","0","out","Female","Right-handed","1","no","right","d","851.487980981","519.401914731","21","red","1"
"98","92","21","694.732902354","1","1","3","264","0","right","1","in","Female","Right-handed","1","no","right","d","736.970645143","632.08924135","21","green","0"
"98","90","21","698.009972858","1","0","3","265","3","right","1","out","Female","Right-handed","1","no","right","s","626.672336948","1103.6088001","21","green","3"
"98","90","21","698.478089313","1","1","3","266","0","right","1","in","Female","Right-handed","1","no","right","s","605.376750696","840.263539285","21","red","3"
"98","88","21","700.485537704","1","0","3","267","2","right","0","in","Female","Right-handed","1","no","right","d","565.840404335","1047.92020057","21","green","3"
"98","89","21","699.720069752","1","1","3","268","1","right","1","in","Female","Right-handed","1","no","right","s","645.397379179","671.372221492","21","green","3"
"98","89","21","696.940234771","1","1","3","269","1","right","2","in","Female","Right-handed","1","no","right","d","408.069295314","680.029326322","21","red","3"
"98","87","21","698.811484261","1","0","3","270","2","left","0","in","Female","Right-handed","1","no","left","s","607.603486453","999.599424889","21","red","1"
"98","86","21","697.419520937","1","0","3","271","2","left","1","out","Female","Right-handed","1","no","left","s","516.135736252","720.019486733","21","green","3"
"98","86","21","696.349265401","1","1","3","272","3","right","1","out","Female","Right-handed","1","no","right","d","452.672002779","815.876885841","21","green","3"
"98","86","21","695.133977247","1","1","3","273","1","right","1","out","Female","Right-handed","1","no","right","s","695.436875423","551.427076891","21","red","2"
"98","86","21","696.009614918","1","1","3","274","3","right","2","out","Female","Right-handed","1","no","right","d","752.982424427","744.113325898","21","green","1"
"98","87","21","695.309100873","1","1","3","275","1","right","1","in","Female","Right-handed","1","no","right","s","593.650387396","711.50510083","21","red","0"
"98","85","21","696.078626917","1","0","3","276","2","left","1","out","Female","Right-handed","1","no","left","d","615.275028977","872.30345438","21","green","2"
"98","85","21","702.112086585","1","1","3","277","2","left","2","out","Female","Right-handed","1","no","left","d","916.662096454","1247.77799481","21","green","1"
"98","86","21","701.309661286","1","1","3","278","2","left","1","out","Female","Right-handed","1","no","left","d","548.363270616","751.545613777","21","green","2"
"98","86","21","701.518137096","1","1","3","279","0","left","2","out","Female","Right-handed","1","no","left","d","525.973078387","904.165051063","21","green","0"
"98","86","21","702.041999149","1","1","3","280","0","right","1","out","Female","Right-handed","1","no","right","d","657.640737685","815.593051608","21","green","2"
"98","86","21","703.044651928","1","1","3","281","0","left","0","out","Female","Right-handed","1","no","left","d","589.175748551","951.269027719","21","red","2"
"98","86","21","701.664546892","1","1","3","282","2","right","1","in","Female","Right-handed","1","no","right","s","551.826689829","663.808119076","21","red","3"
"98","87","21","700.746960557","1","1","3","283","0","right","0","in","Female","Right-handed","1","no","right","d","427.347894496","847.519112314","21","green","3"
"98","87","21","703.377314022","1","1","3","284","1","right","1","out","Female","Right-handed","1","no","right","s","479.007972055","1295.99614112","21","green","3"
"98","87","21","703.784303809","1","1","3","285","0","left","3","in","Female","Right-handed","1","no","left","d","657.704239566","807.656917867","21","green","1"
"98","87","21","705.057446043","1","1","3","286","3","left","3","in","Female","Right-handed","1","no","left","d","810.164922121","783.282451652","21","green","0"
"98","87","21","709.377819733","1","1","3","287","0","left","3","in","Female","Right-handed","1","no","left","s","1017.77796593","1031.75223226","21","green","2"
"98","88","21","709.930382034","1","1","3","288","1","left","0","out","Female","Right-handed","1","no","left","s","782.245895389","719.394089247","21","red","2"
"98","88","21","709.74645314","1","1","3","289","2","right","1","out","Female","Right-handed","1","no","right","s","576.963499567","814.940072509","21","green","3"
"98","88","21","708.880988791","1","1","3","290","3","left","1","in","Female","Right-handed","1","no","left","s","590.609031322","695.602365216","21","red","3"
"98","88","21","709.300315652","1","1","3","291","0","right","2","in","Female","Right-handed","1","no","right","s","740.064919489","743.112048454","21","red","1"
"98","88","21","707.83199179","1","1","3","292","2","right","2","in","Female","Right-handed","1","no","right","d","506.832387386","679.773073702","21","green","3"
"98","88","21","706.476317721","1","1","3","293","0","right","1","out","Female","Right-handed","1","no","right","d","471.378122719","727.378009818","21","green","3"
"98","88","21","707.434469955","1","1","3","294","3","left","2","in","Female","Right-handed","1","no","left","d","497.062395764","1071.1109016","21","green","3"
"98","89","21","706.394598187","1","1","3","295","2","right","1","in","Female","Right-handed","1","no","right","d","524.702078256","719.627891696","21","red","0"
"98","87","21","705.705780463","1","0","3","296","3","left","1","out","Female","Right-handed","1","no","left","d","611.262542807","687.182911439","21","red","0"
"98","88","21","704.434795149","1","1","3","297","3","left","3","out","Female","Right-handed","1","no","left","d","509.933076071","687.95295214","21","red","1"
"98","88","21","709.123285352","1","1","3","298","1","left","0","in","Female","Right-handed","1","no","left","s","558.355518907","1647.55740587","21","red","1"
"98","88","21","706.796627845","1","1","3","299","3","left","0","out","Female","Right-handed","1","no","left","s","466.962495702","551.098983735","21","red","1"
"98","87","21","708.72586979","1","0","3","300","1","left","3","in","Female","Right-handed","1","no","left","s","741.632261779","1007.64909235","21","red","0"
"98","87","21","712.314784671","1","1","3","301","0","right","1","out","Female","Right-handed","1","no","right","s","1034.03348988","1015.06726872","21","green","2"
"98","87","21","710.701883979","1","1","3","302","2","left","3","in","Female","Right-handed","1","no","left","s","537.75364277","599.779603508","21","red","0"
"98","87","21","708.55263315","1","1","3","303","0","left","3","in","Female","Right-handed","1","no","left","d","547.27604115","487.262577459","21","green","1"
"98","87","21","706.773032241","1","1","3","304","0","left","2","in","Female","Right-handed","1","no","left","s","414.14334817","679.074552841","21","green","3"
"98","88","21","706.374334964","1","1","3","305","0","right","1","in","Female","Right-handed","1","no","right","d","532.679263764","807.506501732","21","red","0"
"98","88","21","706.81348165","1","1","3","306","2","left","1","in","Female","Right-handed","1","no","left","s","455.307010852","1039.12294257","21","red","0"
"98","88","21","704.367085835","1","1","3","307","0","left","0","out","Female","Right-handed","1","no","left","d","426.732759952","526.971790095","21","red","1"
"98","88","21","702.61099991","1","1","3","308","1","left","2","out","Female","Right-handed","1","no","left","s","491.587762342","583.490083606","21","green","0"
"98","88","21","701.308928546","1","1","3","309","2","right","1","out","Female","Right-handed","1","no","right","s","475.99034899","679.23394902","21","green","3"
"100","100","21","673.885357261","1","1","4","310","3","left","0","in","Female","Right-handed","1","no","left","s","659.298842831","688.47187169","21","green","2"
"100","100","21","638.418023373","1","1","4","311","0","right","3","out","Female","Right-handed","1","no","right","s","613.963618555","591.937760415","21","red","0"
"100","100","21","637.992940164","1","1","4","312","1","left","2","in","Female","Right-handed","1","no","left","s","522.726784344","751.55876315","21","green","1"
"100","100","21","624.425235652","1","1","4","313","1","right","0","out","Female","Right-handed","1","no","right","d","671.149644157","496.294600074","21","red","2"
"100","100","21","642.706630527","1","1","4","314","1","left","1","in","Female","Right-handed","1","no","left","d","511.842302337","919.822117721","21","green","0"
"100","100","21","628.969122573","1","1","4","315","1","left","2","in","Female","Right-handed","1","no","left","s","544.039368601","576.523797004","21","green","3"
"100","85","21","660.481096067","1","0","4","316","2","right","0","out","Female","Right-handed","1","no","right","d","875.090482208","824.015391845","21","red","1"
"100","87","21","670.239009283","1","1","4","317","3","left","1","out","Female","Right-handed","1","no","left","s","765.545537462","711.543266137","21","red","3"
"100","88","21","662.82970163","1","1","4","318","2","left","1","out","Female","Right-handed","1","no","left","s","479.124071484","727.986409329","21","red","3"
"100","90","21","657.329418028","1","1","4","319","3","left","3","in","Female","Right-handed","1","no","left","s","519.753740926","695.8999903","21","red","1"
"100","90","21","659.15147352","1","1","4","320","3","left","2","out","Female","Right-handed","1","no","left","d","587.348946458","767.395110422","21","green","1"
"100","91","21","655.064768199","1","1","4","321","1","right","0","out","Female","Right-handed","1","no","right","d","612.084218912","608.137800416","21","green","1"
"100","92","21","659.22295633","1","1","4","322","3","left","1","out","Female","Right-handed","1","no","left","d","458.562284941","959.68014287","21","green","3"
"100","92","21","664.870286837","1","1","4","323","3","left","0","in","Female","Right-handed","1","no","left","d","636.34996218","840.221204679","21","green","1"
"100","93","21","669.108678157","1","1","4","324","0","right","3","in","Female","Right-handed","1","no","right","s","576.883320377","880.008992885","21","red","1"
"100","93","21","658.480935161","1","1","4","325","2","left","2","in","Female","Right-handed","1","no","left","s","526.552934112","471.57664632","21","red","1"
"100","94","21","669.132581611","1","1","4","326","0","left","1","in","Female","Right-handed","1","no","left","s","1015.16701162","663.950838003","21","red","2"
"100","94","21","671.888201168","1","1","4","327","2","right","3","in","Female","Right-handed","1","no","right","s","765.785112774","671.682354528","21","green","1"
"100","94","21","671.247361454","1","1","4","328","1","right","3","in","Female","Right-handed","1","no","right","d","623.254780192","696.169712988","21","red","2"
"100","95","21","668.18455448","1","1","4","329","3","left","1","out","Female","Right-handed","1","no","left","s","644.041068386","575.941375573","21","green","0"
"100","95","21","670.181767086","1","1","4","330","3","right","1","in","Female","Right-handed","1","no","right","s","612.564973184","807.687065215","21","red","2"
"100","95","21","674.720576341","1","1","4","331","1","left","0","out","Female","Right-handed","1","no","left","d","556.235261058","983.835880324","21","red","3"
"100","95","21","671.309381964","1","1","4","332","2","right","1","out","Female","Right-handed","1","no","right","d","504.781404335","687.744807045","21","green","2"
"95","95","21","671.833539022","0","1","4","333","3","right","3","in","Female","Right-handed","1","no","left","d","725.378982868","642.399319826","21","red","1"
"96","96","21","673.458656578","1","1","4","334","3","left","2","out","Female","Right-handed","1","no","left","d","769.037821156","655.885134678","21","green","1"
"96","96","21","672.194372505","1","1","4","335","2","right","3","out","Female","Right-handed","1","no","right","s","537.608037412","743.566503952","21","red","0"
"96","96","21","672.916680105","1","1","4","336","0","left","2","out","Female","Right-handed","1","no","left","s","583.163914766","800.229440676","21","green","1"
"96","96","21","672.76523142","1","1","4","337","0","right","0","out","Female","Right-handed","1","no","right","d","633.639585664","703.712648159","21","red","1"
"96","96","21","671.628158937","1","1","4","338","2","right","0","in","Female","Right-handed","1","no","right","s","608.187511476","671.392747376","21","green","3"
"96","96","21","672.457548074","1","1","4","339","3","right","1","out","Female","Right-handed","1","no","right","s","777.013723797","616.005942254","21","green","0"
"96","96","21","689.423489768","1","1","4","340","1","right","1","in","Female","Right-handed","1","no","right","s","973.37795145","1423.42552973","21","red","2"
"96","96","21","690.852386109","1","1","4","341","0","right","3","out","Female","Right-handed","1","no","right","s","815.064510534","655.231834826","21","red","2"
"96","96","21","690.815382361","1","1","4","342","1","right","2","in","Female","Right-handed","1","no","right","d","643.590461521","735.672063369","21","red","0"
"97","97","21","693.816888409","1","1","4","343","0","right","0","in","Female","Right-handed","1","no","right","s","978.415768769","607.317407179","21","green","1"
"97","97","21","691.163385485","1","1","4","344","2","right","0","in","Female","Right-handed","1","no","right","d","610.007257841","591.881314321","21","green","2"
"97","97","21","690.371146863","1","1","4","345","3","right","3","in","Female","Right-handed","1","no","right","d","597.633367608","727.652222558","21","green","2"
"97","97","21","687.406494301","1","1","4","346","2","right","3","out","Female","Right-handed","1","no","right","d","514.064868796","647.29313535","21","red","2"
"97","97","21","684.720524887","1","1","4","347","3","left","1","out","Female","Right-handed","1","no","left","s","506.908076524","663.771236636","21","red","2"
"97","97","21","684.071622677","1","1","4","348","0","left","1","in","Female","Right-handed","1","no","left","s","679.442735564","639.383941772","21","green","3"
"97","97","21","681.296682316","1","1","4","349","3","right","2","out","Female","Right-handed","1","no","right","s","690.972499491","455.175517011","21","green","0"
"97","97","21","681.219181232","1","1","4","350","1","right","1","in","Female","Right-handed","1","no","right","d","596.553835319","759.684440447","21","green","2"
"97","97","21","682.554637864","1","1","4","351","2","left","1","in","Female","Right-handed","1","no","left","s","579.313069815","895.303649711","21","red","0"
"97","97","21","681.898459301","1","1","4","352","0","right","1","out","Female","Right-handed","1","no","right","d","636.78004322","671.897876106","21","red","2"
"97","95","21","690.761154519","1","0","4","353","1","right","2","in","Female","Right-handed","1","no","right","s","616.307415912","1527.40668185","21","red","1"
"97","93","21","691.744275645","1","0","4","354","2","right","2","in","Female","Right-handed","1","no","right","d","566.928595945","903.074614413","21","green","1"
"97","93","21","692.43667216","1","1","4","355","0","left","1","in","Female","Right-handed","1","no","left","d","831.680199306","615.508831398","21","green","2"
"97","93","21","691.356383704","1","1","4","356","0","right","1","out","Female","Right-handed","1","no","right","d","596.128565026","687.197664433","21","green","0"
"97","93","21","693.177616976","1","1","4","357","2","left","2","out","Female","Right-handed","1","no","left","s","629.715296614","927.835864917","21","red","3"
"97","93","21","689.78434246","1","1","4","358","1","right","1","in","Female","Right-handed","1","no","right","d","454.333315051","599.48101631","21","red","3"
"98","92","21","688.28908566","1","0","4","359","1","left","1","in","Female","Right-handed","1","no","left","s","503.047610051","726.995394827","21","green","3"
"98","92","21","688.775769607","1","1","4","360","3","right","1","in","Female","Right-handed","1","no","right","d","682.563629379","743.656304607","21","green","2"
"98","92","21","686.708488242","1","1","4","361","3","left","0","in","Female","Right-handed","1","no","left","d","523.189899221","639.364378061","21","red","3"
"98","92","21","685.948702967","1","1","4","362","0","left","0","in","Female","Right-handed","1","no","left","d","612.764458929","680.115278403","21","red","2"
"98","92","21","685.568789037","1","1","4","363","0","left","1","out","Female","Right-handed","1","no","left","d","675.294906978","655.571794487","21","green","0"
"98","92","21","684.286014884","1","1","4","364","3","left","2","out","Female","Right-handed","1","no","left","d","446.964849776","783.067571494","21","green","3"
"98","92","21","687.561746548","1","1","4","365","1","right","1","in","Female","Right-handed","1","no","right","s","743.679396226","991.77457983","21","red","0"
"98","92","21","686.275511175","1","1","4","366","0","right","0","out","Female","Right-handed","1","no","right","d","453.136400495","775.356260071","21","red","3"
"98","93","21","689.112953897","1","1","4","367","0","left","1","out","Female","Right-handed","1","no","left","d","670.905258041","1030.78912015","21","red","2"
"98","93","21","688.965492697","1","1","4","368","3","right","1","out","Female","Right-handed","1","no","right","d","593.424282182","767.401204008","21","green","0"
"98","93","21","685.516791067","1","1","4","369","2","left","1","in","Female","Right-handed","1","no","left","s","445.119446115","518.96734364","21","red","3"
"98","93","21","687.346992193","1","1","4","370","3","left","0","out","Female","Right-handed","1","no","left","s","707.74309439","886.575025099","21","red","1"
"98","93","21","686.983842098","1","1","4","371","2","left","3","out","Female","Right-handed","1","no","left","d","682.319564017","647.343808581","21","green","1"
"98","93","21","691.482736807","1","1","4","372","1","right","3","out","Female","Right-handed","1","no","right","s","741.932452569","1198.89596498","21","red","1"
"98","93","21","689.61520405","1","1","4","373","1","right","1","out","Female","Right-handed","1","no","right","s","416.35661383","727.564666915","21","green","3"
"98","93","21","691.321821628","1","1","4","374","3","left","1","out","Female","Right-handed","1","no","left","s","698.027945327","903.062747878","21","green","2"
"98","93","21","692.607867776","1","1","4","375","1","right","0","in","Female","Right-handed","1","no","right","d","689.664616977","862.737117859","21","green","1"
"98","94","21","693.325875282","1","1","4","376","3","right","1","out","Female","Right-handed","1","no","right","s","618.058528868","863.370212523","21","green","0"
"98","94","21","696.577624496","1","1","4","377","0","left","2","out","Female","Right-handed","1","no","left","d","629.964814172","1198.92482946","21","red","3"
"98","94","21","694.576483261","1","1","4","378","2","left","1","in","Female","Right-handed","1","no","left","s","509.417363675","607.580394833","21","green","0"
"98","94","21","692.790488771","1","1","4","379","2","left","1","in","Female","Right-handed","1","no","left","d","563.987624191","575.126113807","21","red","2"
"98","94","21","691.732509909","1","1","4","380","1","right","1","in","Female","Right-handed","1","no","right","d","460.610381531","774.737597618","21","green","0"
"98","94","21","690.434668804","1","1","4","381","2","right","1","out","Female","Right-handed","1","no","right","d","661.286003276","535.28989738","21","green","2"
"98","94","21","689.359892205","1","1","4","382","3","right","1","in","Female","Right-handed","1","no","right","d","504.895258754","719.056695321","21","green","3"
"98","94","21","687.087665099","1","1","4","383","0","left","2","out","Female","Right-handed","1","no","left","d","491.687184491","550.742988242","21","green","1"
"98","94","21","687.703201532","1","1","4","384","0","left","1","in","Female","Right-handed","1","no","left","d","507.319876721","959.185918473","21","red","3"
"98","94","21","687.756692541","1","1","4","385","2","right","2","in","Female","Right-handed","1","no","right","s","721.760978194","661.776058317","21","red","0"
"98","94","21","688.6157881","1","1","4","386","2","left","1","in","Female","Right-handed","1","no","left","d","676.446600526","831.367500563","21","green","0"
"98","94","21","688.313176579","1","1","4","387","0","right","1","in","Female","Right-handed","1","no","right","s","522.985602729","807.038576138","21","red","0"
"98","94","21","688.677211562","1","1","4","388","3","right","3","in","Female","Right-handed","1","no","right","s","715.532660659","718.611219898","21","green","0"
"98","95","21","688.428462705","1","1","4","389","2","right","1","out","Female","Right-handed","1","no","right","d","546.261614363","791.292991664","21","green","0"
"98","95","21","689.543542467","1","1","4","390","1","left","3","out","Female","Right-handed","1","no","left","s","998.79763322","558.702213602","21","red","1"
"98","95","21","688.700599396","1","1","4","391","0","left","1","in","Female","Right-handed","1","no","left","s","618.416769372","622.42765192","21","red","3"
"98","95","21","687.186787094","1","1","4","392","2","left","1","in","Female","Right-handed","1","no","left","d","543.126609002","582.981747692","21","red","3"
"98","95","21","686.86511178","1","1","4","393","1","left","1","out","Female","Right-handed","1","no","left","s","665.635562589","654.696558748","21","green","0"
"98","95","21","687.233241323","1","1","4","394","0","right","1","out","Female","Right-handed","1","no","right","d","477.110933017","959.201312886","21","green","0"
"98","95","21","685.822586136","1","1","4","395","0","left","1","in","Female","Right-handed","1","no","left","s","500.921900035","630.911890476","21","green","3"
"98","95","21","685.012503839","1","1","4","396","0","left","2","out","Female","Right-handed","1","no","left","d","576.248301397","654.442551139","21","red","0"
"98","95","21","683.27457804","1","1","4","397","1","right","3","out","Female","Right-handed","1","no","right","s","465.064494521","599.085572641","21","green","0"
"98","95","21","684.105418874","1","1","4","398","1","right","1","out","Female","Right-handed","1","no","right","s","907.68299211","606.755832327","21","red","2"
"98","95","21","685.7072834","1","1","4","399","1","left","1","in","Female","Right-handed","1","no","left","d","529.23155966","1127.31489277","21","red","3"
"98","95","21","687.631190515","1","1","4","400","2","left","1","out","Female","Right-handed","1","no","left","s","930.788703205","790.776958573","21","green","2"
"98","95","21","686.287024315","1","1","4","401","2","right","0","in","Female","Right-handed","1","no","right","d","545.44378689","582.492013345","21","red","1"
"98","95","21","688.607753836","1","1","4","402","0","right","3","out","Female","Right-handed","1","no","right","s","933.0738094","871.155930188","21","red","1"
"98","95","21","688.129861505","1","1","4","403","2","left","1","out","Female","Right-handed","1","no","left","d","464.620943355","822.750806051","21","red","3"
"98","95","21","692.978577156","1","1","4","404","1","left","1","in","Female","Right-handed","1","no","left","s","827.304661885","1470.21103476","21","green","2"
"98","95","21","690.830356881","1","1","4","405","3","left","1","out","Female","Right-handed","1","no","left","s","486.89824334","486.600618256","21","red","3"
"100","100","21","606.715101297","1","1","5","406","1","right","1","in","Female","Right-handed","1","no","right","d","598.218675528","615.211527067","21","green","0"
"100","100","21","595.212518085","1","1","5","407","0","left","1","out","Female","Right-handed","1","no","left","d","487.614724378","679.805145366","21","green","3"
"100","66","21","556.259261367","1","0","5","408","2","right","1","in","Female","Right-handed","1","no","right","d","381.392083509","575.313412352","21","green","0"
"100","75","21","555.703873648","1","1","5","409","2","right","1","out","Female","Right-handed","1","no","right","s","427.972329839","680.103091144","21","red","0"
"100","80","21","530.87815108","1","1","5","410","2","right","1","in","Female","Right-handed","1","no","right","s","375.535476546","487.615045073","21","red","0"
"100","83","21","522.118010689","1","1","5","411","3","right","0","out","Female","Right-handed","1","no","right","s","573.314385401","383.320232067","21","red","2"
"100","85","21","537.010404828","1","1","5","412","1","left","2","in","Female","Right-handed","1","no","left","s","620.836576593","631.89296273","21","red","1"
"100","75","21","562.640012868","1","0","5","413","3","right","1","in","Female","Right-handed","1","no","right","d","516.634771397","967.459766893","21","green","0"
"100","77","21","569.35675962","1","1","5","414","3","right","1","out","Female","Right-handed","1","no","right","s","623.137718619","623.043748667","21","green","3"
"100","80","21","578.444071987","1","1","5","415","3","right","1","out","Female","Right-handed","1","no","right","d","504.617518134","815.842248441","21","red","3"
"100","81","21","580.072949629","1","1","5","416","2","left","0","in","Female","Right-handed","1","no","left","s","497.283690231","695.439761854","21","red","1"
"100","83","21","598.649825621","1","1","5","417","0","right","1","in","Female","Right-handed","1","no","right","s","702.909894317","903.081028752","21","red","2"
"100","84","21","593.996551704","1","1","5","418","0","left","1","in","Female","Right-handed","1","no","left","s","532.705883263","543.608646141","21","red","2"
"100","85","21","604.830856552","1","1","5","419","3","right","2","out","Female","Right-handed","1","no","right","s","732.149952994","759.203686175","21","red","1"
"100","86","21","610.36323193","1","1","5","420","0","left","3","in","Female","Right-handed","1","no","left","d","799.774985207","575.857989228","21","green","0"
"100","87","21","617.986618176","1","1","5","421","3","left","2","in","Female","Right-handed","1","no","left","s","553.342396772","911.332426971","21","green","3"
"100","82","21","630.102514817","1","0","5","422","3","right","3","out","Female","Right-handed","1","no","right","d","856.955879339","790.957842779","21","green","2"
"100","83","21","630.740788135","1","1","5","423","1","left","3","out","Female","Right-handed","1","no","left","d","571.605607023","711.577262089","21","red","1"
"100","84","21","633.41809706","1","1","5","424","0","left","2","out","Female","Right-handed","1","no","left","s","636.150476436","727.068838955","21","green","0"
"100","85","21","643.707651371","1","1","5","425","1","left","3","in","Female","Right-handed","1","no","left","d","694.718149403","983.700217155","21","red","2"
"100","85","21","654.906093629","1","1","5","426","1","right","2","out","Female","Right-handed","1","no","right","d","1006.39733524","751.352542342","21","red","3"
"100","86","21","664.568407072","1","1","5","427","2","right","1","out","Female","Right-handed","1","no","right","s","959.968787851","774.985190917","21","red","0"
"100","86","21","662.065756092","1","1","5","428","0","left","1","out","Female","Right-handed","1","no","left","d","502.498222427","711.516646639","21","green","3"
"100","87","21","659.361489477","1","1","5","429","2","right","1","out","Female","Right-handed","1","no","right","d","531.125070819","663.201643853","21","red","2"
"100","88","21","665.418835113","1","1","5","430","3","right","3","out","Female","Right-handed","1","no","right","d","765.771001257","855.819259479","21","green","1"
"100","88","21","673.261279649","1","1","5","431","1","right","3","out","Female","Right-handed","1","no","right","d","531.260092568","1207.38469352","21","red","0"
"100","88","21","692.840644362","1","1","5","432","0","right","1","in","Female","Right-handed","1","no","right","s","812.874977914","1590.93327587","21","red","2"
"100","89","21","693.02663245","1","1","5","433","2","left","2","out","Female","Right-handed","1","no","left","s","548.547682702","847.548938968","21","green","1"
"100","89","21","693.821447724","1","1","5","434","0","right","1","in","Female","Right-handed","1","no","right","d","641.044291929","791.108258854","21","red","2"
"100","90","21","691.799713301","1","1","5","435","2","left","1","out","Female","Right-handed","1","no","left","s","523.688613612","742.650216445","21","red","2"
"100","90","21","686.975573298","1","1","5","436","2","right","3","in","Female","Right-handed","1","no","right","d","613.192294986","471.310451481","21","red","2"
"100","90","21","687.014906028","1","1","5","437","1","left","0","out","Female","Right-handed","1","no","left","s","753.665230179","622.803211125","21","red","1"
"100","90","21","690.604856169","1","1","5","438","0","right","3","in","Female","Right-handed","1","no","right","s","788.483513723","822.483007621","21","red","1"
"100","91","21","687.959041049","1","1","5","439","0","right","1","out","Female","Right-handed","1","no","right","d","506.148619461","695.145664708","21","green","0"
"100","88","21","690.367430874","1","0","5","440","2","left","1","out","Female","Right-handed","1","no","left","d","545.739808324","998.765561555","21","green","3"
"100","88","21","689.18576472","1","1","5","441","2","right","3","out","Female","Right-handed","1","no","right","d","704.317199037","591.337699588","21","green","0"
"100","89","21","686.284939469","1","1","5","442","3","right","1","in","Female","Right-handed","1","no","right","d","492.810975673","670.899485179","21","green","3"
"100","89","21","686.118473949","1","1","5","443","2","right","1","out","Female","Right-handed","1","no","right","s","521.384905849","838.533593604","21","green","3"
"100","89","21","691.733469685","1","1","5","444","0","right","2","out","Female","Right-handed","1","no","right","d","523.081176274","1287.12543903","21","red","1"
"100","90","21","689.129601442","1","1","5","445","1","right","1","out","Female","Right-handed","1","no","right","d","648.435848824","526.721631089","21","green","0"
"100","90","21","687.611064277","1","1","5","446","3","right","0","out","Female","Right-handed","1","no","right","s","630.361219984","623.377935379","21","red","1"
"100","90","21","685.700910302","1","1","5","447","3","left","3","out","Female","Right-handed","1","no","left","d","647.930720064","566.838474595","21","red","1"
"100","90","21","680.431896597","1","1","5","448","1","left","0","out","Female","Right-handed","1","no","left","s","487.561164686","430.705477251","21","red","1"
"100","90","21","682.346668208","1","1","5","449","2","right","1","out","Female","Right-handed","1","no","right","d","498.13455157","1031.22914338","21","green","2"
"100","91","21","681.289365075","1","1","5","450","3","right","1","in","Female","Right-handed","1","no","right","s","486.770277377","782.765777083","21","red","0"
"100","91","21","681.054545942","1","1","5","451","2","left","0","out","Female","Right-handed","1","no","left","d","598.387372477","742.587997432","21","red","2"
"100","91","21","677.948881708","1","1","5","452","3","left","0","out","Female","Right-handed","1","no","left","d","415.162585705","655.014068238","21","red","3"
"100","91","21","678.108437323","1","1","5","453","3","left","1","in","Female","Right-handed","1","no","left","d","684.559449146","686.655653263","21","green","0"
"100","91","21","678.632192924","1","1","5","454","3","left","2","in","Female","Right-handed","1","no","left","d","680.231698556","727.313225041","21","green","0"
"100","90","21","677.557819601","1","0","5","455","1","right","1","in","Female","Right-handed","1","no","right","s","570.906444715","678.920608829","21","red","2"
"100","88","21","678.038106635","1","0","5","456","3","right","1","out","Female","Right-handed","1","no","right","d","597.597447369","806.50746933","21","red","2"
"100","88","21","675.940734743","1","1","5","457","1","left","2","in","Female","Right-handed","1","no","left","d","546.938005777","591.01153072","21","red","0"
"100","88","21","676.076200003","1","1","5","458","1","left","1","out","Female","Right-handed","1","no","left","d","487.64519245","878.59559455","21","red","0"
"100","88","21","674.043396337","1","1","5","459","0","right","2","in","Female","Right-handed","1","no","right","s","478.340239963","654.269364168","21","green","3"
"100","89","21","673.422087879","1","1","5","460","2","left","1","out","Female","Right-handed","1","no","left","s","568.826597184","710.916265059","21","green","2"
"100","89","21","670.440628382","1","1","5","461","0","right","3","in","Female","Right-handed","1","no","right","s","574.475379719","438.445332402","21","green","2"
"100","89","21","668.374063702","1","1","5","462","1","left","0","in","Female","Right-handed","1","no","left","s","490.129463695","615.16341957","21","green","2"
"100","89","21","666.769929137","1","1","5","463","1","left","3","out","Female","Right-handed","1","no","left","s","551.76831942","598.900198441","21","green","1"
"100","89","21","666.126547195","1","1","5","464","3","left","1","in","Female","Right-handed","1","no","left","d","707.144957851","550.47583126","21","red","3"
"100","90","21","664.890096815","1","1","5","465","0","right","1","out","Female","Right-handed","1","no","right","s","448.967404606","734.911644162","21","green","3"
"100","90","21","663.762361742","1","1","5","466","0","left","0","out","Female","Right-handed","1","no","left","s","521.645327797","670.551186864","21","green","3"
"100","90","21","667.760494116","1","1","5","467","0","left","1","out","Female","Right-handed","1","no","left","d","489.048648567","1334.24448938","21","red","0"
"100","90","21","665.260375018","1","1","5","468","1","left","1","out","Female","Right-handed","1","no","left","d","437.698383321","582.807598548","21","green","3"
"100","90","21","665.154309715","1","1","5","469","3","left","1","out","Female","Right-handed","1","no","left","s","558.49919995","758.445191284","21","green","2"
"100","89","21","665.212088325","1","0","5","470","3","right","3","out","Female","Right-handed","1","no","right","s","658.80654275","679.013295973","21","green","0"
"100","89","21","667.461813167","1","1","5","471","2","right","3","in","Female","Right-handed","1","no","right","d","780.700361793","846.68749402","21","green","1"
"100","89","21","665.763308358","1","1","5","472","1","left","1","in","Female","Right-handed","1","no","left","d","549.123048404","558.200933476","21","green","2"
"100","89","21","666.138040715","1","1","5","473","0","right","2","in","Female","Right-handed","1","no","right","d","655.643314327","726.84690301","21","green","1"
"100","89","21","665.765631802","1","1","5","474","2","left","3","out","Female","Right-handed","1","no","left","d","538.4197713","742.463880102","21","red","1"
"100","90","21","669.128304488","1","1","5","475","3","right","1","in","Female","Right-handed","1","no","right","s","548.190083617","1254.11535602","21","green","2"
"100","90","21","669.564953768","1","1","5","476","0","right","0","in","Female","Right-handed","1","no","right","s","745.67297101","654.587835772","21","red","1"
"100","90","21","671.52575125","1","1","5","477","2","right","0","out","Female","Right-handed","1","no","right","d","695.196017216","926.288727729","21","green","1"
"100","90","21","678.665256867","1","1","5","478","2","left","0","in","Female","Right-handed","1","no","left","d","570.7271641","1814.69215851","21","red","3"
"100","90","21","679.492264614","1","1","5","479","2","right","1","in","Female","Right-handed","1","no","right","d","465.365006036","1014.36265421","21","red","3"
"100","90","21","679.211240136","1","1","5","480","0","left","1","in","Female","Right-handed","1","no","left","d","518.901276053","797.929581516","21","red","3"
"100","90","21","678.354546041","1","1","5","481","1","left","2","in","Female","Right-handed","1","no","left","s","605.649680539","622.555297159","21","green","1"
"100","90","21","676.95064007","1","1","5","482","0","left","3","in","Female","Right-handed","1","no","left","s","534.217100154","606.290472439","21","green","1"
"100","91","21","677.353062984","1","1","5","483","0","left","1","out","Female","Right-handed","1","no","left","d","601.836359448","814.842895343","21","red","0"
"100","91","21","677.556801834","1","1","5","484","1","right","0","in","Female","Right-handed","1","no","right","s","652.385474503","734.511389775","21","green","3"
"100","91","21","675.863381278","1","1","5","485","0","right","1","out","Female","Right-handed","1","no","right","s","509.999785136","574.16652955","21","green","0"
"100","91","21","676.002415861","1","1","5","486","2","left","2","out","Female","Right-handed","1","no","left","d","623.64509239","750.605272537","21","green","1"
"100","91","21","675.456859124","1","1","5","487","2","left","1","in","Female","Right-handed","1","no","left","s","496.169199847","766.364327079","21","red","3"
"100","90","21","676.263882826","1","0","5","488","1","right","1","in","Female","Right-handed","1","no","right","d","518.899351737","965.980300942","21","red","0"
"100","90","21","676.128793214","1","1","5","489","1","left","1","in","Female","Right-handed","1","no","left","s","675.272136083","654.560574884","21","red","3"
"100","89","21","689.176350377","1","0","5","490","2","right","2","in","Female","Right-handed","1","no","right","None","570.111067384","3000.23123671","21","green","3"
"100","89","21","689.567385745","1","1","5","491","3","right","1","in","Female","Right-handed","1","no","right","d","711.361099063","734.24968496","21","green","0"
"100","89","21","688.861094552","1","1","5","492","3","left","2","out","Female","Right-handed","1","no","left","s","714.034913864","542.205190024","21","red","1"
"100","89","21","688.746104496","1","1","5","493","0","left","0","in","Female","Right-handed","1","no","left","s","703.684745793","653.799193533","21","green","2"
"100","89","21","688.736300792","1","1","5","494","0","left","0","in","Female","Right-handed","1","no","left","d","521.319800376","854.427349172","21","green","1"
"100","90","21","689.371979051","1","1","5","495","3","right","0","out","Female","Right-handed","1","no","right","s","861.959379952","629.935308243","21","red","1"
"100","90","21","689.598720267","1","1","5","496","1","left","1","in","Female","Right-handed","1","no","left","d","613.566571323","806.444288174","21","red","3"
"100","90","21","689.045067329","1","1","5","497","1","left","1","in","Female","Right-handed","1","no","left","s","655.223816925","622.10148311","21","green","2"
"100","90","21","689.987587266","1","1","5","498","2","left","2","out","Female","Right-handed","1","no","left","s","675.833069544","877.56577335","21","green","0"
"100","90","21","691.905660458","1","1","5","499","1","right","1","in","Female","Right-handed","1","no","right","d","670.144197415","1070.42873724","21","red","3"
"100","90","21","691.517614866","1","1","5","500","1","left","1","in","Female","Right-handed","1","no","left","d","551.998914685","758.083743596","21","green","2"
"100","90","21","690.992906777","1","1","5","501","3","left","1","in","Female","Right-handed","1","no","left","d","555.606335693","726.684941095","21","red","2"
dis_reply=No
dis_loc=1
