"acc_1","acc_2","age","avg_rt","correct_1","correct_2","count_block_loop","count_trial_sequence","cue_position","detection","dis_position","dis_shape","gender","hand","high_loc","practice","response_keyboard_response_1","response_keyboard_response_2","response_time_keyboard_response_1","response_time_keyboard_response_2","subject_nr","tar_color","tar_position"
"100","100","18","1874.02202091","1","1","0","0","3","right","0","in","Female","Right-handed","1","yes","right","d","1564.76526738","2183.27877444","13","red","3"
"100","100","18","1448.92708137","1","1","0","1","3","left","0","out","Female","Right-handed","1","yes","left","s","710.310365142","1337.35391851","13","green","3"
"100","66","18","1408.06486047","1","0","0","2","1","right","0","in","Female","Right-handed","1","yes","right","s","1090.87801075","1561.80282659","13","green","2"
"100","75","18","1402.40871099","1","1","0","3","1","right","0","out","Female","Right-handed","1","yes","right","s","1249.55027795","1521.3302472","13","green","1"
"100","60","18","1440.39009159","1","0","0","4","0","left","2","in","Female","Right-handed","1","yes","left","d","1270.84059618","1913.79063173","13","green","3"
"100","66","18","1369.70731372","1","1","0","5","3","left","0","in","Female","Right-handed","1","yes","left","d","959.201253867","1073.38559485","13","red","1"
"100","71","18","1343.35435129","1","1","0","6","3","left","1","in","Female","Right-handed","1","yes","left","s","1064.5736404","1305.89951306","13","green","2"
"100","75","18","1321.36547369","1","1","0","7","0","right","3","in","Female","Right-handed","1","yes","right","s","1149.42029232","1185.46636874","13","red","1"
"100","77","18","1316.49472979","1","1","0","8","2","right","3","in","Female","Right-handed","1","yes","right","s","1329.04484456","1226.01271248","13","green","1"
"100","80","18","1307.04396709","1","1","0","9","1","right","3","in","Female","Right-handed","1","yes","right","s","818.430634405","1625.54357116","13","green","2"
"100","81","18","1279.04691025","1","1","0","10","3","left","2","out","Female","Right-handed","1","yes","left","d","1013.02646505","985.126218835","13","red","1"
"100","83","18","1270.27124758","1","1","0","11","0","right","0","in","Female","Right-handed","1","yes","right","d","649.711661536","1697.76625486","13","green","3"
"100","76","18","1278.34936384","1","0","0","12","2","right","3","in","Female","Right-handed","1","yes","right","d","1397.36571439","1353.2078035","13","green","0"
"100","78","18","1277.48006427","1","1","0","13","1","right","1","in","Female","Right-handed","1","yes","right","s","1186.65750278","1345.70083678","13","green","0"
"100","80","18","1290.96373776","1","1","0","14","0","left","3","in","Female","Right-handed","1","yes","left","d","1854.25381418","1105.21651924","13","red","0"
"100","81","18","1291.07858967","1","1","0","15","2","right","0","out","Female","Right-handed","1","yes","right","s","1167.88447347","1417.71826313","13","red","3"
"100","82","18","1261.88325426","1","1","0","16","3","left","3","out","Female","Right-handed","1","yes","left","s","708.387681098","881.128094374","13","red","2"
"100","83","18","1254.29786967","1","1","0","17","3","left","2","in","Female","Right-handed","1","yes","left","s","1160.8508815","1089.84178186","13","green","0"
"100","84","18","1234.11733087","1","1","0","18","3","right","1","out","Female","Right-handed","1","yes","right","d","780.382978137","961.352286711","13","green","2"
"100","85","18","1241.60885519","1","1","0","19","2","left","2","in","Female","Right-handed","1","yes","left","d","1127.08797234","1640.807662","13","green","0"
"100","85","18","1225.93874959","1","1","0","20","3","left","2","out","Female","Right-handed","1","yes","left","d","967.630595787","857.44267948","13","red","1"
"100","86","18","1202.63223158","1","1","0","21","1","right","2","out","Female","Right-handed","1","yes","right","d","705.165461477","721.225245245","13","red","1"
"100","0","18","1066.74616113","1","0","1","22","2","left","1","in","Female","Right-handed","1","no","left","d","1203.76281616","929.729506097","13","red","0"
"100","0","18","980.245904716","1","0","1","23","1","right","1","in","Female","Right-handed","1","no","right","d","826.236827852","961.254468755","13","green","3"
"100","33","18","956.566476494","1","1","1","24","1","left","1","in","Female","Right-handed","1","no","left","d","1208.64409242","609.77114768","13","red","0"
"100","50","18","908.737492532","1","1","1","25","2","left","1","out","Female","Right-handed","1","no","left","d","833.302170562","697.198910726","13","green","0"
"100","60","18","855.770858396","1","1","1","26","0","left","1","out","Female","Right-handed","1","no","left","s","773.853228809","513.955414895","13","green","2"
"100","66","18","896.067167687","1","1","1","27","0","right","2","out","Female","Right-handed","1","no","right","s","1377.49327541","817.604152868","13","green","1"
"100","71","18","852.294568666","1","1","1","28","0","left","3","out","Female","Right-handed","1","no","left","d","658.180130642","521.137818439","13","green","1"
"100","75","18","824.534815494","1","1","1","29","2","right","0","in","Female","Right-handed","1","no","right","s","538.737032304","721.696054279","13","green","2"
"100","77","18","834.964309631","1","1","1","30","2","left","1","out","Female","Right-handed","1","no","left","s","835.436846963","1001.36367849","13","red","0"
"100","80","18","809.514832569","1","1","1","31","2","left","2","in","Female","Right-handed","1","no","left","d","519.872278615","641.066799399","13","red","3"
"100","72","18","830.982981221","1","0","1","32","3","left","1","out","Female","Right-handed","1","no","left","d","761.754591109","1329.57434437","13","red","3"
"100","75","18","809.455569855","1","1","1","33","3","left","2","out","Female","Right-handed","1","no","left","s","656.193303672","489.114786","13","red","0"
"100","69","18","789.591915584","1","0","1","34","2","left","3","out","Female","Right-handed","1","no","left","d","532.793228558","569.662900089","13","red","2"
"100","71","18","811.743941093","1","1","1","35","3","left","2","out","Female","Right-handed","1","no","left","d","750.075448112","1449.36509733","13","green","3"
"100","73","18","807.323624874","1","1","1","36","0","left","2","in","Female","Right-handed","1","no","left","s","1065.04028015","425.838115454","13","red","1"
"100","75","18","812.899369859","1","1","1","37","3","right","0","in","Female","Right-handed","1","no","right","s","607.497922571","1185.57316671","13","green","3"
"100","76","18","803.912478569","1","1","1","38","0","right","1","in","Female","Right-handed","1","no","right","s","663.069745486","657.174690357","13","green","3"
"100","77","18","826.123660138","1","1","1","39","0","right","1","in","Female","Right-handed","1","no","right","s","1653.82995776","753.597535888","13","green","2"
"100","78","18","833.627704326","1","1","1","40","0","left","0","in","Female","Right-handed","1","no","left","s","920.281574592","1017.11942482","13","green","3"
"100","80","18","828.86243813","1","1","1","41","0","left","1","out","Female","Right-handed","1","no","left","s","835.783218739","640.861542051","13","red","0"
"100","76","18","818.889447186","1","0","1","42","1","left","3","out","Female","Right-handed","1","no","left","s","437.346317573","801.51293907","13","green","1"
"100","77","18","825.306019314","1","1","1","43","2","left","1","in","Female","Right-handed","1","no","left","d","863.121252249","1056.98681574","13","green","0"
"100","78","18","820.118450779","1","1","1","44","0","left","3","in","Female","Right-handed","1","no","left","d","666.434683102","745.549202911","13","red","2"
"100","79","18","825.51950955","1","1","1","45","1","right","1","out","Female","Right-handed","1","no","right","d","1002.27386654","897.213856028","13","red","0"
"100","80","18","822.059975555","1","1","1","46","0","left","1","in","Female","Right-handed","1","no","left","s","1044.5469377","433.515381632","13","red","0"
"100","80","18","820.463206374","1","1","1","47","3","left","0","out","Female","Right-handed","1","no","left","d","743.594126689","817.493827046","13","red","1"
"100","81","18","821.885817547","1","1","1","48","2","left","0","in","Female","Right-handed","1","no","left","d","1156.80763249","560.939783591","13","green","1"
"100","82","18","821.640855861","1","1","1","49","3","left","3","in","Female","Right-handed","1","no","left","s","692.59056259","937.463218044","13","green","1"
"100","82","18","818.035043998","1","1","1","50","2","right","2","in","Female","Right-handed","1","no","right","d","833.096592505","601.048031182","13","green","0"
"100","83","18","821.741392635","1","1","1","51","3","right","1","out","Female","Right-handed","1","no","right","d","865.694345513","992.756660682","13","green","0"
"100","83","18","824.340116512","1","1","1","52","0","left","1","in","Female","Right-handed","1","no","left","s","1043.26407929","761.33958641","13","green","3"
"100","84","18","821.920024321","1","1","1","53","1","right","2","out","Female","Right-handed","1","no","right","d","748.934986983","744.859345799","13","red","0"
"100","84","18","821.100452274","1","1","1","54","0","right","0","out","Female","Right-handed","1","no","right","s","772.408409521","817.339884034","13","red","2"
"100","85","18","819.645260784","1","1","1","55","1","left","1","in","Female","Right-handed","1","no","left","s","910.16495314","633.082930064","13","green","3"
"100","85","18","813.931255924","1","1","1","56","3","right","1","in","Female","Right-handed","1","no","right","d","526.626528168","712.683653208","13","red","3"
"100","86","18","810.730530672","1","1","1","57","2","right","3","out","Female","Right-handed","1","no","right","s","876.219236652","521.191057065","13","red","0"
"100","86","18","814.084561467","1","1","1","58","3","right","3","out","Female","Right-handed","1","no","right","s","876.821538681","992.837801478","13","red","1"
"100","86","18","810.924587624","1","1","1","59","1","right","1","out","Female","Right-handed","1","no","right","d","683.470722124","704.540388713","13","red","3"
"100","87","18","807.685523345","1","1","1","60","3","right","1","out","Female","Right-handed","1","no","right","s","800.099229098","569.10293239","13","green","0"
"100","87","18","804.886620171","1","1","1","61","1","left","2","out","Female","Right-handed","1","no","left","s","894.695284245","496.763508578","13","red","1"
"100","87","18","798.201721147","1","1","1","62","1","right","1","in","Female","Right-handed","1","no","right","d","588.237086344","473.374433979","13","red","2"
"100","88","18","792.365570603","1","1","1","63","0","left","1","in","Female","Right-handed","1","no","left","s","593.012847505","513.153949101","13","red","3"
"100","88","18","786.372532193","1","1","1","64","1","left","1","out","Female","Right-handed","1","no","left","d","572.574988688","496.754849286","13","green","3"
"100","88","18","780.312453724","1","1","1","65","3","right","1","in","Female","Right-handed","1","no","right","s","534.239651424","505.218507671","13","red","2"
"100","88","18","781.903503889","1","1","1","66","0","left","0","out","Female","Right-handed","1","no","left","d","990.989523216","712.829899068","13","green","1"
"100","89","18","775.3694315","1","1","1","67","2","right","1","out","Female","Right-handed","1","no","right","d","522.218626655","440.453721363","13","green","3"
"100","87","18","770.000405806","1","0","1","68","3","right","1","in","Female","Right-handed","1","no","right","d","549.091944708","496.958503059","13","red","3"
"100","85","18","773.576585738","1","0","1","69","0","left","2","in","Female","Right-handed","1","no","left","d","1202.61946859","680.694616516","13","green","0"
"100","85","18","770.813839421","1","1","1","70","3","right","2","out","Female","Right-handed","1","no","right","d","803.161091415","473.242940992","13","red","1"
"100","86","18","785.392777571","1","1","1","71","0","right","1","in","Female","Right-handed","1","no","right","d","1254.73944023","1744.78205358","13","red","2"
"100","86","18","783.948120275","1","1","1","72","3","right","2","in","Female","Right-handed","1","no","right","d","719.068118819","704.362392109","13","red","1"
"100","86","18","780.670082466","1","1","1","73","3","right","1","out","Female","Right-handed","1","no","right","s","777.969600745","449.0107077","13","red","0"
"100","84","18","779.195353806","1","0","1","74","2","left","2","out","Female","Right-handed","1","no","left","s","668.654669589","736.364257384","13","red","1"
"100","85","18","775.641373082","1","1","1","75","2","right","0","in","Female","Right-handed","1","no","right","s","701.292832637","473.267956731","13","red","1"
"100","85","18","774.979902128","1","1","1","76","0","right","3","in","Female","Right-handed","1","no","right","d","837.846696493","640.674244725","13","red","0"
"100","85","18","770.450764719","1","1","1","77","1","left","1","out","Female","Right-handed","1","no","left","d","594.344133824","448.352280619","13","green","2"
"100","85","18","770.378409866","1","1","1","78","1","left","1","in","Female","Right-handed","1","no","left","s","1075.79287866","456.860197621","13","red","2"
"100","84","18","767.753756831","1","0","1","79","2","left","0","in","Female","Right-handed","1","no","left","d","715.59317609","520.703891583","13","red","3"
"100","84","18","762.471904653","1","1","1","80","1","right","3","in","Female","Right-handed","1","no","right","s","567.120274711","345.128681922","13","green","2"
"100","83","18","763.77736484","1","0","1","81","3","right","3","out","Female","Right-handed","1","no","right","s","792.889564815","888.709466886","13","green","0"
"100","83","18","760.500823088","1","1","1","82","3","right","1","in","Female","Right-handed","1","no","right","d","559.462892841","568.353743078","13","red","3"
"100","83","18","757.856887046","1","1","1","83","3","left","1","in","Female","Right-handed","1","no","left","d","488.094592845","705.058984226","13","red","2"
"100","84","18","753.806687623","1","1","1","84","1","left","1","in","Female","Right-handed","1","no","left","s","540.748875013","464.639771752","13","green","2"
"100","84","18","748.729268607","1","1","1","85","2","right","1","out","Female","Right-handed","1","no","right","s","545.41912107","312.284620097","13","green","3"
"100","84","18","747.132089837","1","1","1","86","2","right","2","out","Female","Right-handed","1","no","right","s","944.929133297","344.896163835","13","green","1"
"100","84","18","744.632464514","1","1","1","87","2","left","1","in","Female","Right-handed","1","no","left","d","395.760858515","768.552778558","13","green","3"
"100","85","18","740.33521636","1","1","1","88","2","left","1","in","Female","Right-handed","1","no","left","s","512.256589642","401.177086736","13","green","2"
"100","85","18","741.731439854","1","1","1","89","1","right","0","in","Female","Right-handed","1","no","right","d","941.841613811","728.715214093","13","green","1"
"100","85","18","736.95096989","1","1","1","90","2","right","1","in","Female","Right-handed","1","no","right","d","399.308282744","424.449741939","13","green","2"
"100","85","18","741.543486678","1","1","1","91","1","right","1","out","Female","Right-handed","1","no","right","d","1691.92636264","424.927927408","13","green","0"
"100","85","18","743.831541321","1","1","1","92","0","left","3","out","Female","Right-handed","1","no","left","s","1039.45559337","768.535139257","13","green","1"
"100","86","18","745.286424065","1","1","1","93","1","left","0","out","Female","Right-handed","1","no","left","d","1017.03090759","680.135290248","13","red","3"
"100","86","18","745.551983903","1","1","1","94","3","right","0","in","Female","Right-handed","1","no","right","s","1168.74847861","360.59610582","13","green","2"
"100","86","18","747.920597028","1","1","1","95","1","right","0","in","Female","Right-handed","1","no","right","d","1137.36014037","704.298569901","13","red","1"
"100","86","18","749.198580175","1","1","1","96","1","right","2","in","Female","Right-handed","1","no","right","s","1246.85852028","440.680145875","13","green","1"
"100","86","18","749.208921561","1","1","1","97","0","left","1","in","Female","Right-handed","1","no","left","s","931.497605707","568.471445338","13","green","0"
"100","87","18","746.576164393","1","1","1","98","0","left","1","out","Female","Right-handed","1","no","left","d","460.915954493","632.057284758","13","red","2"
"100","87","18","743.141133759","1","1","1","99","2","right","1","out","Female","Right-handed","1","no","right","s","436.606108266","520.681441561","13","red","2"
"100","87","18","741.220185015","1","1","1","100","3","left","3","out","Female","Right-handed","1","no","left","s","494.414594825","688.357771251","13","red","2"
"100","86","18","741.691601559","1","0","1","101","3","right","0","out","Female","Right-handed","1","no","right","s","661.024869172","896.842147802","13","red","1"
"100","86","18","737.863315055","1","1","1","102","2","left","1","in","Female","Right-handed","1","no","left","d","406.669003605","456.531785865","13","red","2"
"100","85","18","735.788304801","1","0","1","103","2","left","3","out","Female","Right-handed","1","no","left","d","671.204671402","464.220277052","13","green","1"
"98","85","18","736.738175835","0","1","1","104","2","right","3","out","Female","Right-handed","1","no","left","d","560.627086848","1068.62811442","13","green","1"
"98","85","18","737.36503585","1","1","1","105","3","left","1","in","Female","Right-handed","1","no","left","d","826.373772987","752.415061143","13","green","0"
"98","85","18","737.241960812","1","1","1","106","0","right","1","out","Female","Right-handed","1","no","right","d","732.908236816","720.899078493","13","red","3"
"98","86","18","736.415012334","1","1","1","107","1","right","1","out","Female","Right-handed","1","no","right","d","867.767765423","464.481018025","13","green","0"
"98","86","18","735.61270879","1","1","1","108","1","left","3","out","Female","Right-handed","1","no","left","s","741.208972184","592.020235807","13","red","0"
"98","86","18","734.119902055","1","1","1","109","2","right","1","out","Female","Right-handed","1","no","right","s","575.714463939","632.77696833","13","green","3"
"98","86","18","733.544022888","1","1","1","110","1","right","3","in","Female","Right-handed","1","no","right","d","741.407815236","624.325497098","13","red","1"
"98","86","18","734.143292719","1","1","1","111","0","left","1","out","Female","Right-handed","1","no","left","d","918.976586872","655.980028463","13","green","0"
"98","86","18","733.943699157","1","1","1","112","3","right","1","in","Female","Right-handed","1","no","right","s","655.394403595","776.56615364","13","red","2"
"98","86","18","732.260750636","1","1","1","113","0","left","0","out","Female","Right-handed","1","no","left","s","765.946651693","392.278218635","13","green","1"
"98","86","18","729.131536132","1","0","1","114","1","left","0","in","Female","Right-handed","1","no","left","s","457.622856942","424.864746634","13","red","2"
"98","85","18","727.751959721","1","0","1","115","1","right","2","out","Female","Right-handed","1","no","right","s","534.476018081","664.426688971","13","red","3"
"98","85","18","724.834835777","1","1","1","116","0","right","2","out","Female","Right-handed","1","no","right","d","421.201223718","480.049146307","13","green","3"
"98","85","18","725.31656636","1","1","1","117","3","right","1","in","Female","Right-handed","1","no","right","d","1021.65368788","520.508255675","13","green","2"
"100","100","18","1440.61119223","1","1","2","118","3","right","1","in","Female","Right-handed","1","no","right","s","736.174715054","2145.04766942","13","green","0"
"100","100","18","980.692579979","1","1","2","119","3","left","2","out","Female","Right-handed","1","no","left","s","584.721733579","456.826201869","13","red","3"
"100","100","18","875.556533379","1","1","2","120","0","left","1","out","Female","Right-handed","1","no","left","s","809.402518316","521.166362039","13","red","0"
"100","100","18","773.282757709","1","1","2","121","2","right","1","in","Female","Right-handed","1","no","right","d","419.978659648","512.944201753","13","red","3"
"100","100","18","789.451472192","1","1","2","122","1","right","0","out","Female","Right-handed","1","no","right","d","1219.67571264","488.576947613","13","green","2"
"100","100","18","736.742139365","1","1","2","123","0","left","1","in","Female","Right-handed","1","no","left","d","553.081955088","393.308995371","13","green","2"
"100","100","18","776.901529483","1","1","2","124","3","right","1","out","Female","Right-handed","1","no","right","s","1434.88579513","600.829945248","13","red","3"
"100","100","18","742.979577375","1","1","2","125","1","right","1","out","Female","Right-handed","1","no","right","s","577.677558027","433.374267206","13","red","3"
"100","100","18","726.591174725","1","1","2","126","0","left","2","out","Female","Right-handed","1","no","left","s","853.990828204","336.977078849","13","red","1"
"100","100","18","711.652443508","1","1","2","127","1","right","1","in","Female","Right-handed","1","no","right","s","713.723409954","440.684315163","13","red","0"
"100","100","18","687.116168398","1","1","2","128","2","left","1","in","Female","Right-handed","1","no","left","s","514.155861525","369.350973066","13","green","3"
"100","100","18","684.182040388","1","1","2","129","1","left","1","in","Female","Right-handed","1","no","left","d","550.969087282","752.844177281","13","red","3"
"100","100","18","672.596819483","1","1","2","130","1","left","1","in","Female","Right-handed","1","no","left","s","666.663031901","400.485305337","13","green","0"
"100","100","18","677.139575316","1","1","2","131","1","left","1","out","Female","Right-handed","1","no","left","d","527.12844652","945.26235577","13","red","3"
"100","100","18","664.811054733","1","1","2","132","0","left","1","in","Female","Right-handed","1","no","left","d","431.695005544","552.728527593","13","red","3"
"100","100","18","652.007817739","1","1","2","133","0","left","1","in","Female","Right-handed","1","no","left","d","487.422695755","432.495829907","13","green","3"
"100","100","18","660.298290238","1","1","2","134","1","right","3","out","Female","Right-handed","1","no","right","s","1040.93665341","544.955047037","13","red","1"
"100","100","18","652.849372858","1","1","2","135","2","left","1","out","Female","Right-handed","1","no","left","s","579.677534293","472.758020511","13","red","2"
"100","100","18","644.708615","1","1","2","136","2","left","1","in","Female","Right-handed","1","no","left","s","595.216477545","401.133469553","13","red","0"
"100","100","18","648.917732535","1","1","2","137","3","right","1","in","Female","Right-handed","1","no","right","d","760.856269506","696.925661883","13","green","0"
"100","100","18","645.726813132","1","1","2","138","0","right","3","in","Female","Right-handed","1","no","right","s","803.412531666","360.404318486","13","red","1"
"100","95","18","637.76580061","1","0","2","139","1","left","0","in","Female","Right-handed","1","no","left","d","572.064731754","369.104343536","13","red","3"
"100","95","18","634.768055225","1","1","2","140","1","right","1","out","Female","Right-handed","1","no","right","d","656.859748618","480.775564883","13","green","2"
"100","95","18","632.645328348","1","1","2","141","2","right","3","in","Female","Right-handed","1","no","right","d","727.283864817","440.361355559","13","red","0"
"100","96","18","625.037079419","1","1","2","142","1","left","1","out","Female","Right-handed","1","no","left","s","547.901131384","336.977078849","13","red","2"
"100","96","18","621.075387643","1","1","2","143","0","right","1","out","Female","Right-handed","1","no","right","d","547.47650525","496.589681264","13","red","3"
"100","96","18","620.247492134","1","1","2","144","1","right","0","in","Female","Right-handed","1","no","right","s","629.219281236","568.225136518","13","red","1"
"100","96","18","616.840734136","1","1","2","145","2","left","0","in","Female","Right-handed","1","no","left","s","600.908199613","448.808336783","13","red","3"
"100","96","18","617.605143767","1","1","2","146","3","right","0","out","Female","Right-handed","1","no","right","s","797.536719416","480.480507449","13","red","1"
"100","93","18","610.155182037","1","0","2","147","1","left","0","in","Female","Right-handed","1","no","left","s","403.087583629","385.125000117","13","green","1"
"100","93","18","609.592188932","1","1","2","148","3","left","3","out","Female","Right-handed","1","no","left","d","616.695055254","568.709736286","13","green","1"
"100","93","18","607.363903956","1","1","2","149","0","right","1","in","Female","Right-handed","1","no","right","s","708.259395251","368.314744181","13","green","2"
"100","93","18","603.470830778","1","1","2","150","1","left","3","in","Female","Right-handed","1","no","left","d","524.928985771","432.855992407","13","red","2"
"100","94","18","598.574241535","1","1","2","151","2","right","0","in","Female","Right-handed","1","no","right","d","465.406279658","408.567313345","13","red","2"
"100","94","18","595.508492775","1","1","2","152","0","right","2","out","Female","Right-handed","1","no","right","d","518.319699222","464.22637063","13","red","3"
"100","94","18","591.032091843","1","1","2","153","2","left","1","in","Female","Right-handed","1","no","left","s","547.862324918","320.853793586","13","red","3"
"100","94","18","587.003076234","1","1","2","154","3","right","1","in","Female","Right-handed","1","no","right","d","451.463532983","432.453495581","13","red","3"
"100","94","18","587.418559379","1","1","2","155","3","left","2","in","Female","Right-handed","1","no","left","d","741.256117231","464.3267543","13","green","1"
"100","94","18","588.197959165","1","1","2","156","3","right","1","out","Female","Right-handed","1","no","right","d","610.870557339","624.759744674","13","green","0"
"100","95","18","588.502160975","1","1","2","157","3","left","2","in","Female","Right-handed","1","no","left","d","792.332162833","408.399900323","13","green","1"
"100","95","18","587.341967977","1","1","2","158","1","right","1","in","Female","Right-handed","1","no","right","s","536.939747668","544.928748441","13","green","2"
"100","95","18","584.289681373","1","1","2","159","0","left","3","in","Female","Right-handed","1","no","left","s","453.74060667","464.551254525","13","red","2"
"100","93","18","582.358063221","1","0","2","160","3","right","1","out","Female","Right-handed","1","no","right","s","394.162096214","608.298105508","13","red","2"
"100","93","18","583.801049419","1","1","2","161","3","left","1","out","Female","Right-handed","1","no","left","s","826.950738559","464.74817329","13","red","0"
"100","93","18","584.381116852","1","1","2","162","2","left","2","in","Female","Right-handed","1","no","left","d","755.398989815","464.409177955","13","green","1"
"100","91","18","584.15759659","1","0","2","163","3","right","1","in","Female","Right-handed","1","no","right","s","548.104785157","600.093584519","13","red","3"
"100","89","18","582.394413468","1","0","2","164","2","left","1","out","Female","Right-handed","1","no","left","s","497.778570301","504.797409394","13","green","0"
"100","89","18","587.132104269","1","1","2","165","1","left","2","out","Female","Right-handed","1","no","left","s","1123.2198335","496.387310351","13","red","1"
"100","87","18","587.504836","1","0","2","166","0","right","1","out","Female","Right-handed","1","no","right","d","785.960846522","424.831071603","13","red","0"
"100","88","18","590.177153125","1","1","2","167","0","left","2","out","Female","Right-handed","1","no","left","d","737.585859308","704.655525253","13","green","1"
"100","88","18","591.283158188","1","1","2","168","1","left","3","out","Female","Right-handed","1","no","left","d","597.081432967","696.085389623","13","green","0"
"100","88","18","594.865535592","1","1","2","169","1","right","2","out","Female","Right-handed","1","no","right","d","1138.60002303","416.533543379","13","red","1"
"100","88","18","593.817762495","1","1","2","170","2","left","2","in","Female","Right-handed","1","no","left","s","566.344786803","512.322336133","13","green","3"
"100","88","18","592.802467635","1","1","2","171","1","left","1","out","Female","Right-handed","1","no","left","s","630.012729162","447.970950954","13","red","0"
"100","89","18","595.089935226","1","1","2","172","2","right","1","out","Female","Right-handed","1","no","right","s","1004.58140811","432.644962199","13","green","2"
"100","87","18","596.939963463","1","0","2","173","2","right","0","in","Female","Right-handed","1","no","right","s","877.272142698","520.11089028","13","green","1"
"100","87","18","596.219062343","1","1","2","174","3","left","2","out","Female","Right-handed","1","no","left","d","678.845376111","432.85182312","13","green","0"
"100","87","18","594.750036863","1","1","2","175","0","left","1","out","Female","Right-handed","1","no","left","s","437.461774829","584.569394141","13","green","3"
"100","86","18","593.661916787","1","0","2","176","2","right","1","out","Female","Right-handed","1","no","right","s","557.046949732","504.05495509","13","green","2"
"100","86","18","594.227492597","1","1","2","177","0","left","3","out","Female","Right-handed","1","no","left","d","694.591821713","560.601108969","13","green","0"
"100","86","18","592.236455285","1","1","2","178","0","left","2","out","Female","Right-handed","1","no","left","s","473.247110283","472.301322916","13","green","0"
"100","85","18","591.92566121","1","0","2","179","0","left","0","out","Female","Right-handed","1","no","left","s","473.979943152","671.954502144","13","green","3"
"100","85","18","592.877625575","1","1","2","180","2","right","3","in","Female","Right-handed","1","no","right","d","847.377693084","456.421139323","13","red","1"
"100","85","18","592.514351778","1","1","2","181","0","right","1","out","Female","Right-handed","1","no","right","d","723.089559233","416.166645875","13","red","2"
"100","86","18","594.126304467","1","1","2","182","0","right","0","out","Female","Right-handed","1","no","right","s","921.777387506","472.805165558","13","green","1"
"100","84","18","594.07655823","1","0","2","183","3","left","0","in","Female","Right-handed","1","no","left","s","685.256461038","496.429644678","13","red","1"
"100","85","18","593.366112249","1","1","2","184","0","left","0","in","Female","Right-handed","1","no","left","d","524.991204402","567.962150544","13","red","2"
"100","85","18","593.24500479","1","1","2","185","2","right","2","in","Female","Right-handed","1","no","right","s","865.662915483","304.598694627","13","green","1"
"100","85","18","595.997745293","1","1","2","186","0","left","1","in","Female","Right-handed","1","no","left","d","894.259433098","672.10876587","13","green","0"
"100","85","18","595.109308471","1","1","2","187","2","right","1","in","Female","Right-handed","1","no","right","s","707.764532621","359.849802935","13","green","0"
"100","85","18","592.330893073","1","1","2","188","2","left","3","in","Female","Right-handed","1","no","left","s","459.380693686","336.30293675","13","red","2"
"100","86","18","592.430844043","1","1","2","189","1","right","3","out","Female","Right-handed","1","no","right","d","655.088762578","543.965963199","13","red","1"
"100","86","18","591.940843568","1","1","2","190","0","left","1","out","Female","Right-handed","1","no","left","s","473.662114975","639.659503722","13","green","0"
"100","86","18","591.066187875","1","1","2","191","0","right","1","in","Female","Right-handed","1","no","right","s","598.243702687","456.188941953","13","red","2"
"100","86","18","589.337282827","1","1","2","192","1","left","2","out","Female","Right-handed","1","no","left","s","570.834149821","351.962468696","13","green","0"
"100","86","18","589.610571955","1","1","2","193","2","right","1","out","Female","Right-handed","1","no","right","s","427.598517912","792.615995259","13","green","3"
"100","87","18","589.638580008","1","1","2","194","1","right","1","in","Female","Right-handed","1","no","right","d","511.21779504","672.316588931","13","green","2"
"100","87","18","591.287222024","1","1","2","195","0","right","3","in","Female","Right-handed","1","no","right","d","820.648055171","615.817259386","13","red","1"
"100","87","18","590.743576524","1","1","2","196","3","left","3","in","Female","Right-handed","1","no","left","d","672.316268214","424.362186848","13","green","1"
"100","87","18","589.590453866","1","1","2","197","3","right","0","out","Female","Right-handed","1","no","right","s","573.039704144","423.947823583","13","green","3"
"100","87","18","588.961744952","1","1","2","198","3","right","3","in","Female","Right-handed","1","no","right","s","637.644774582","439.685289173","13","red","2"
"100","87","18","587.606256366","1","1","2","199","1","right","1","out","Female","Right-handed","1","no","right","s","595.300184057","360.32317769","13","green","0"
"100","87","18","585.580085642","1","1","2","200","3","right","0","out","Female","Right-handed","1","no","right","s","487.023406073","351.844766435","13","green","2"
"100","88","18","585.728195183","1","1","2","201","2","left","1","out","Female","Right-handed","1","no","left","s","892.550986406","303.491587816","13","red","0"
"100","88","18","586.562310914","1","1","2","202","2","right","3","out","Female","Right-handed","1","no","right","d","793.081352145","520.174712485","13","green","1"
"100","88","18","584.599973906","1","1","2","203","2","right","1","in","Female","Right-handed","1","no","right","s","459.837070568","375.765585846","13","green","2"
"100","87","18","583.873168817","1","0","2","204","1","right","2","in","Female","Right-handed","1","no","right","s","618.358601903","424.377260435","13","green","3"
"100","87","18","582.687114667","1","1","2","205","1","left","1","in","Female","Right-handed","1","no","left","d","415.006300438","543.994506803","13","green","3"
"100","87","18","581.602048938","1","1","2","206","3","right","1","out","Female","Right-handed","1","no","right","d","468.646780009","503.585749622","13","red","2"
"100","87","18","580.485959596","1","1","2","207","3","left","1","in","Female","Right-handed","1","no","left","d","466.102230348","496.205785883","13","red","3"
"100","87","18","581.738363515","1","1","2","208","0","left","0","out","Female","Right-handed","1","no","left","d","820.914248292","567.995184152","13","red","1"
"100","88","18","582.361498945","1","1","2","209","2","right","2","in","Female","Right-handed","1","no","right","s","574.478429859","703.655216406","13","green","0"
"100","88","18","581.348397029","1","1","2","210","2","right","0","in","Female","Right-handed","1","no","right","d","472.098952003","504.187089504","13","green","1"
"100","88","18","580.708428739","1","1","2","211","3","left","1","out","Female","Right-handed","1","no","left","s","610.720142191","431.66261337","13","red","2"
"100","88","18","581.020587464","1","1","2","212","3","right","3","out","Female","Right-handed","1","no","right","s","597.301122471","623.425892638","13","green","0"
"100","88","18","580.068268246","1","1","2","213","3","left","1","out","Female","Right-handed","1","no","left","s","555.045369889","424.150515209","13","green","2"
"100","100","18","855.407905679","1","1","3","214","3","right","3","in","Female","Right-handed","1","no","right","d","798.010414885","912.805396474","13","green","1"
"100","100","18","728.149313174","1","1","3","215","2","right","1","in","Female","Right-handed","1","no","right","d","833.300246279","368.481195059","13","red","0"
"100","100","18","641.665947732","1","1","3","216","3","left","3","in","Female","Right-handed","1","no","left","s","513.096220475","424.302213218","13","red","2"
"100","100","18","598.697353495","1","1","3","217","3","left","0","out","Female","Right-handed","1","no","left","d","498.805819174","440.777322398","13","red","2"
"100","80","18","597.944828749","1","0","3","218","2","left","0","out","Female","Right-handed","1","no","left","d","725.495880899","464.373578634","13","red","1"
"100","83","18","566.696557267","1","1","3","219","0","right","0","out","Female","Right-handed","1","no","right","s","500.062378989","320.848020725","13","green","3"
"100","85","18","554.052506203","1","1","3","220","1","left","1","out","Female","Right-handed","1","no","left","s","579.639048541","376.737351096","13","green","0"
"100","87","18","539.531261976","1","1","3","221","0","right","2","in","Female","Right-handed","1","no","right","s","467.333132994","408.43197178","13","red","0"
"100","88","18","524.525277353","1","1","3","222","0","right","1","out","Female","Right-handed","1","no","right","s","383.947977523","425.006823203","13","green","0"
"100","90","18","514.086009883","1","1","3","223","1","left","2","in","Female","Right-handed","1","no","left","d","431.502576783","408.762628536","13","green","1"
"100","90","18","520.319704644","1","1","3","224","2","right","2","out","Female","Right-handed","1","no","right","d","493.130453553","672.182850943","13","red","0"
"100","91","18","536.404421542","1","1","3","225","0","right","3","in","Female","Right-handed","1","no","right","s","841.817464003","584.855150853","13","green","1"
"100","92","18","531.405225097","1","1","3","226","1","left","1","in","Female","Right-handed","1","no","left","d","534.419572315","408.410163189","13","red","2"
"100","92","18","522.847536538","1","1","3","227","3","left","1","out","Female","Right-handed","1","no","left","s","431.079874936","392.115295617","13","red","3"
"100","86","18","533.732537491","1","0","3","228","2","right","2","in","Female","Right-handed","1","no","right","s","979.639112684","392.60598896","13","red","1"
"100","81","18","540.551485197","1","0","3","229","1","right","1","in","Female","Right-handed","1","no","right","s","645.2922143","640.379187291","13","red","2"
"100","82","18","536.539373217","1","1","3","230","0","right","3","out","Female","Right-handed","1","no","right","s","383.870685306","560.820477756","13","green","2"
"100","77","18","569.587665787","1","0","3","231","0","right","3","in","Female","Right-handed","1","no","right","d","1118.29846791","1144.51881103","13","red","1"
"100","78","18","567.98384942","1","1","3","232","0","right","1","in","Female","Right-handed","1","no","right","d","598.059933221","480.170376424","13","green","2"
"100","80","18","586.648362415","1","1","3","233","1","left","3","in","Female","Right-handed","1","no","left","d","793.811619296","1088.73659934","13","red","1"
"100","80","18","588.007660864","1","1","3","234","0","left","1","in","Female","Right-handed","1","no","left","d","718.116237876","512.271021802","13","green","0"
"100","81","18","584.801329111","1","1","3","235","3","left","3","out","Female","Right-handed","1","no","left","s","617.925316474","417.011408139","13","red","0"
"100","82","18","581.570099058","1","1","3","236","1","right","1","out","Female","Right-handed","1","no","right","d","580.519730844","440.446344925","13","red","2"
"100","83","18","581.445687356","1","1","3","237","3","right","1","out","Female","Right-handed","1","no","right","d","725.051691177","432.116745247","13","green","0"
"100","84","18","576.420113039","1","1","3","238","3","left","0","out","Female","Right-handed","1","no","left","s","550.847215734","360.765443129","13","red","3"
"100","84","18","577.304344911","1","1","3","239","3","right","1","in","Female","Right-handed","1","no","right","d","694.332363601","504.487919803","13","green","2"
"100","85","18","574.012912611","1","1","3","240","2","left","2","out","Female","Right-handed","1","no","left","s","592.89129667","383.980048984","13","green","1"
"100","85","18","569.377796259","1","1","3","241","2","right","1","in","Female","Right-handed","1","no","right","s","511.669040486","376.790269005","13","green","0"
"100","86","18","563.064484659","1","1","3","242","3","right","1","out","Female","Right-handed","1","no","right","d","404.336446296","368.247073398","13","green","0"
"100","86","18","563.643883422","1","1","3","243","0","left","1","out","Female","Right-handed","1","no","left","d","473.007215758","687.885679356","13","green","3"
"100","87","18","566.043252999","1","1","3","244","2","left","1","out","Female","Right-handed","1","no","left","d","587.612013584","688.436667042","13","green","0"
"100","87","18","563.955683496","1","1","3","245","3","left","1","in","Female","Right-handed","1","no","left","s","542.191449298","456.290608483","13","red","0"
"100","87","18","559.329742826","1","1","3","246","2","left","1","in","Female","Right-handed","1","no","left","d","382.723489169","439.875793647","13","green","3"
"100","88","18","559.56521023","1","1","3","247","2","left","3","out","Female","Right-handed","1","no","left","d","478.348717479","656.322551658","13","green","0"
"100","85","18","559.680621402","1","0","3","248","1","right","2","in","Female","Right-handed","1","no","right","s","639.051428832","488.157773627","13","red","0"
"100","86","18","558.316698936","1","1","3","249","3","left","1","in","Female","Right-handed","1","no","left","d","484.517021447","536.641803803","13","green","3"
"100","86","18","560.977263857","1","1","3","250","1","right","2","out","Female","Right-handed","1","no","right","d","833.363747766","480.151454267","13","red","1"
"100","86","18","560.0940001","1","1","3","251","1","right","1","in","Female","Right-handed","1","no","right","s","566.832593711","487.993888462","13","green","0"
"100","87","18","558.845032044","1","1","3","252","0","left","0","out","Female","Right-handed","1","no","left","d","574.384139767","448.384352079","13","green","2"
"100","85","18","557.878879404","1","0","3","253","1","left","0","in","Female","Right-handed","1","no","left","s","600.174083887","440.223768994","13","red","3"
"100","82","18","588.087801521","1","0","3","254","0","left","3","in","Female","Right-handed","1","no","left","None","592.800213726","3000.08915866","13","green","0"
"100","83","18","586.451053446","1","1","3","255","1","right","1","out","Female","Right-handed","1","no","right","d","542.254630079","496.434134682","13","red","3"
"100","83","18","587.469455943","1","1","3","256","1","right","3","out","Female","Right-handed","1","no","right","d","852.702196928","407.782524711","13","red","1"
"100","84","18","593.093722254","1","1","3","257","2","left","0","in","Female","Right-handed","1","no","left","d","421.450739679","1248.42360755","13","red","2"
"100","84","18","590.480862728","1","1","3","258","1","left","1","out","Female","Right-handed","1","no","left","s","503.088641988","447.941445211","13","red","2"
"100","84","18","589.410079092","1","1","3","259","3","right","2","in","Female","Right-handed","1","no","right","d","474.659858108","607.789772861","13","red","3"
"100","82","18","600.799566072","1","0","3","260","3","right","1","in","Female","Right-handed","1","no","right","s","889.155580899","1360.27635336","13","red","0"
"100","81","18","608.192961229","1","0","3","261","0","left","1","out","Female","Right-handed","1","no","left","s","823.744875379","1087.62019181","13","red","0"
"100","81","18","609.412461122","1","1","3","262","2","right","1","out","Female","Right-handed","1","no","right","d","664.440800414","671.45611165","13","red","2"
"100","82","18","606.21488135","1","1","3","263","2","right","1","in","Female","Right-handed","1","no","right","s","467.054432003","432.012513","13","green","3"
"100","82","18","608.380500862","1","1","3","264","3","right","1","out","Female","Right-handed","1","no","right","d","345.664275312","1087.65867756","13","red","3"
"100","82","18","612.703543065","1","1","3","265","2","left","1","out","Female","Right-handed","1","no","left","s","778.153370215","888.204020673","13","red","0"
"100","83","18","622.753124167","1","1","3","266","2","right","3","in","Female","Right-handed","1","no","right","s","674.847668583","1615.81501438","13","green","2"
"100","83","18","634.291088699","1","1","3","267","0","left","2","out","Female","Right-handed","1","no","left","s","739.194563757","1752.411854","13","red","1"
"100","83","18","632.22058972","1","1","3","268","1","right","1","out","Female","Right-handed","1","no","right","s","592.900276682","447.927013054","13","red","0"
"100","83","18","629.582785465","1","1","3","269","0","left","2","out","Female","Right-handed","1","no","left","s","417.633594469","551.373508395","13","green","3"
"100","84","18","629.785632277","1","1","3","270","3","right","2","out","Female","Right-handed","1","no","right","d","826.08352627","456.206581257","13","red","1"
"100","84","18","627.061245198","1","1","3","271","3","right","1","out","Female","Right-handed","1","no","right","s","559.847750363","383.694612989","13","green","2"
"100","84","18","623.872813873","1","1","3","272","1","right","2","out","Female","Right-handed","1","no","right","d","438.353361427","439.534232595","13","red","3"
"100","85","18","622.942308467","1","1","3","273","1","right","3","in","Female","Right-handed","1","no","right","s","680.086862343","455.998116762","13","red","2"
"100","85","18","621.488363709","1","1","3","274","0","left","1","in","Female","Right-handed","1","no","left","s","588.761134008","479.742222429","13","green","2"
"100","85","18","619.809582015","1","1","3","275","2","left","0","out","Female","Right-handed","1","no","left","s","699.403823623","335.403973717","13","green","1"
"100","85","18","618.358273552","1","1","3","276","3","right","3","out","Female","Right-handed","1","no","right","s","752.979198133","303.775099524","13","red","1"
"100","85","18","615.300495452","1","1","3","277","2","right","1","out","Female","Right-handed","1","no","right","s","477.677461811","367.643488513","13","green","3"
"100","86","18","614.590094295","1","1","3","278","3","left","1","in","Female","Right-handed","1","no","left","d","513.993900651","624.254939885","13","green","3"
"100","86","18","612.874746632","1","1","3","279","2","right","0","out","Female","Right-handed","1","no","right","d","482.874000533","519.88029648","13","green","3"
"100","86","18","609.846599381","1","1","3","280","1","left","1","out","Female","Right-handed","1","no","left","d","428.441035176","391.536726475","13","green","3"
"100","86","18","608.455338199","1","1","3","281","3","left","0","out","Female","Right-handed","1","no","left","s","502.192244672","528.289433383","13","red","1"
"100","86","18","608.140783374","1","1","3","282","1","right","1","in","Female","Right-handed","1","no","right","d","645.761099051","527.741011414","13","green","3"
"100","87","18","606.910041249","1","1","3","283","2","right","3","in","Female","Right-handed","1","no","right","s","708.426166846","335.551502435","13","green","1"
"100","87","18","604.621476205","1","1","3","284","0","right","1","out","Female","Right-handed","1","no","right","d","368.945269092","519.898577215","13","green","3"
"100","87","18","601.683582847","1","1","3","285","2","right","1","in","Female","Right-handed","1","no","right","s","426.573834753","359.612474127","13","red","3"
"100","87","18","600.621812456","1","1","3","286","2","left","2","in","Female","Right-handed","1","no","left","d","465.099035064","583.249653548","13","red","3"
"100","87","18","597.989688055","1","1","3","287","2","left","1","in","Female","Right-handed","1","no","left","s","483.911832991","327.777380448","13","green","2"
"98","86","18","607.090786072","0","0","3","288","0","left","1","out","Female","Right-handed","1","no","right","d","518.643300256","2042.50077853","13","red","0"
"98","86","18","607.095124019","1","1","3","289","1","left","3","in","Female","Right-handed","1","no","left","s","670.968304741","543.872635251","13","red","0"
"98","87","18","606.849460551","1","1","3","290","3","left","2","out","Female","Right-handed","1","no","left","d","592.599446383","583.758627625","13","green","0"
"98","87","18","609.983964434","1","1","3","291","0","left","1","in","Female","Right-handed","1","no","left","d","511.344798026","1191.33672884","13","green","2"
"98","87","18","612.203075772","1","1","3","292","1","right","0","out","Female","Right-handed","1","no","right","s","826.720786186","743.866734101","13","green","1"
"98","87","18","612.093219628","1","1","3","293","1","right","0","in","Female","Right-handed","1","no","right","s","735.398264999","471.430903483","13","red","1"
"98","87","18","613.487570688","1","1","3","294","3","left","2","out","Female","Right-handed","1","no","left","s","546.047080261","904.024230629","13","green","1"
"98","86","18","612.484144867","1","0","3","295","0","right","1","out","Female","Right-handed","1","no","right","s","558.714986383","503.698320448","13","red","3"
"98","86","18","611.637841914","1","1","3","296","0","right","1","in","Female","Right-handed","1","no","right","d","549.138448329","535.343551088","13","red","3"
"98","86","18","609.861085218","1","1","3","297","3","left","0","out","Female","Right-handed","1","no","left","s","508.922440626","415.858118427","13","red","1"
"98","87","18","608.969434747","1","1","3","298","1","left","1","in","Female","Right-handed","1","no","left","d","396.610110783","671.53147958","13","green","3"
"98","87","18","607.686842119","1","1","3","299","2","left","1","in","Female","Right-handed","1","no","left","s","574.193314577","423.139622784","13","red","2"
"98","87","18","605.561950986","1","1","3","300","2","right","1","out","Female","Right-handed","1","no","right","s","509.741225007","335.901402068","13","green","2"
"98","87","18","605.480882829","1","1","3","301","0","left","0","in","Female","Right-handed","1","no","left","s","621.472740699","575.383165757","13","red","1"
"98","87","18","604.492558273","1","1","3","302","0","right","2","out","Female","Right-handed","1","no","right","s","660.115643274","374.924351443","13","green","1"
"98","87","18","603.407013594","1","1","3","303","3","right","1","in","Female","Right-handed","1","no","right","s","477.806709798","535.780364378","13","green","2"
"98","87","18","603.213845093","1","1","3","304","1","left","1","in","Female","Right-handed","1","no","left","d","500.330175684","671.32718438","13","green","0"
"98","86","18","603.552345106","1","0","3","305","0","left","0","out","Female","Right-handed","1","no","left","s","597.807530827","670.904161816","13","green","1"
"98","86","18","602.283158296","1","0","3","306","0","right","1","in","Female","Right-handed","1","no","right","d","475.409368137","495.62657531","13","green","2"
"98","86","18","600.281965114","1","1","3","307","3","left","1","in","Female","Right-handed","1","no","left","s","461.085291801","367.256706704","13","green","2"
"98","85","18","598.518695205","1","0","3","308","1","left","0","in","Female","Right-handed","1","no","left","s","553.807090808","311.735556697","13","red","2"
"98","85","18","599.184949938","1","1","3","309","2","left","3","in","Female","Right-handed","1","no","left","s","685.390840455","639.567458631","13","red","1"
"100","100","18","1003.11093166","1","1","4","310","3","left","2","out","Female","Right-handed","1","no","left","s","741.688119804","1264.53374351","13","red","1"
"100","100","18","759.215012523","1","1","4","311","1","left","1","out","Female","Right-handed","1","no","left","d","574.311658263","456.326528518","13","red","3"
"100","100","18","664.957097473","1","1","4","312","0","left","1","out","Female","Right-handed","1","no","left","s","584.89876804","367.983766708","13","green","0"
"100","100","18","608.492659003","1","1","4","313","3","left","1","out","Female","Right-handed","1","no","left","d","477.62710962","400.571577564","13","red","2"
"100","100","18","596.6260503","1","1","4","314","2","right","3","out","Female","Right-handed","1","no","right","d","666.101139916","432.218091064","13","red","1"
"100","100","18","599.506970785","1","1","4","315","2","left","0","out","Female","Right-handed","1","no","left","d","523.880890443","703.942255979","13","green","2"
"100","100","18","595.934992799","1","1","4","316","0","right","0","in","Female","Right-handed","1","no","right","d","596.513768119","552.492481649","13","red","3"
"100","100","18","594.828613323","1","1","4","317","0","right","1","out","Female","Right-handed","1","no","right","d","486.163570222","688.00434376","13","green","0"
"100","100","18","565.816017507","1","1","4","318","1","left","2","in","Female","Right-handed","1","no","left","s","347.577337922","319.853164027","13","red","1"
"100","100","18","551.925618587","1","1","4","319","3","left","3","out","Female","Right-handed","1","no","left","d","397.5196574","456.30439921","13","red","2"
"100","100","18","551.877905","1","1","4","320","2","left","2","in","Female","Right-handed","1","no","left","d","678.846017541","423.955520731","13","red","1"
"100","100","18","557.141333367","1","1","4","321","3","right","3","in","Female","Right-handed","1","no","right","d","534.502637394","695.575453402","13","green","1"
"100","100","18","550.10160362","1","1","4","322","3","left","2","out","Female","Right-handed","1","no","left","s","507.166848885","424.082844431","13","red","1"
"100","100","18","572.299930098","1","1","4","323","0","right","1","in","Female","Right-handed","1","no","right","d","513.824563338","1207.93178528","13","red","3"
"100","100","18","567.574460042","1","1","4","324","3","right","0","out","Female","Right-handed","1","no","right","s","418.41100667","584.424751855","13","green","3"
"100","93","18","564.982190718","1","0","4","325","2","left","3","out","Female","Right-handed","1","no","left","s","596.02275406","456.173547653","13","red","0"
"100","88","18","572.793131214","1","0","4","326","2","right","1","in","Female","Right-handed","1","no","right","s","843.621483644","551.914874646","13","green","2"
"100","88","18","572.239663751","1","1","4","327","1","right","1","in","Female","Right-handed","1","no","right","s","573.351759456","552.309674324","13","green","2"
"100","89","18","578.798531525","1","1","4","328","1","left","1","in","Female","Right-handed","1","no","left","d","473.84139444","919.874908476","13","green","2"
"100","90","18","584.960345243","1","1","4","329","2","left","2","in","Female","Right-handed","1","no","left","s","988.58256012","415.487051629","13","red","0"
"100","85","18","585.463439551","1","0","4","330","0","right","3","in","Female","Right-handed","1","no","right","s","790.848216362","400.202435056","13","red","1"
"100","86","18","586.767083672","1","1","4","331","1","left","1","in","Female","Right-handed","1","no","left","d","404.658764474","823.628455983","13","red","2"
"100","82","18","599.766330129","1","0","4","332","1","left","3","in","Female","Right-handed","1","no","left","s","491.249462404","1280.25004193","13","green","2"
"100","79","18","594.708679425","1","0","4","333","2","right","1","in","Female","Right-handed","1","no","right","s","540.87940586","415.886020597","13","green","2"
"100","80","18","589.401511271","1","1","4","334","2","left","0","out","Female","Right-handed","1","no","left","d","524.454328155","399.604623035","13","green","3"
"100","80","18","580.447970951","1","1","4","335","3","right","1","in","Female","Right-handed","1","no","right","s","393.137413058","320.081512822","13","green","3"
"100","81","18","576.55262186","1","1","4","336","2","left","2","out","Female","Right-handed","1","no","left","s","598.769353924","351.777737083","13","green","1"
"100","82","18","575.136891301","1","1","4","337","3","right","2","out","Female","Right-handed","1","no","right","s","458.454469914","615.369862513","13","green","3"
"100","82","18","584.456093413","1","1","4","338","0","right","3","in","Female","Right-handed","1","no","right","s","954.968141817","735.819363272","13","red","1"
"100","80","18","581.762975659","1","0","4","339","1","right","0","out","Female","Right-handed","1","no","right","s","535.670679979","471.654441561","13","green","2"
"100","80","18","586.163992322","1","1","4","340","0","right","0","out","Female","Right-handed","1","no","right","d","932.186821389","504.202163094","13","red","1"
"100","81","18","587.312857016","1","1","4","341","3","right","1","out","Female","Right-handed","1","no","right","s","565.951911412","679.903413591","13","green","3"
"100","81","18","586.114835207","1","1","4","342","2","left","1","in","Female","Right-handed","1","no","left","s","688.206714673","407.349559995","13","green","0"
"100","82","18","584.819509085","1","1","4","343","1","right","3","in","Female","Right-handed","1","no","right","s","724.01931087","360.128183213","13","red","0"
"100","82","18","579.398705019","1","1","4","344","3","left","1","in","Female","Right-handed","1","no","left","s","430.555506559","359.627227","13","green","3"
"100","83","18","573.898631308","1","1","4","345","1","left","2","out","Female","Right-handed","1","no","left","s","419.358397608","343.433705242","13","green","0"
"100","83","18","575.346357253","1","1","4","346","0","right","0","out","Female","Right-handed","1","no","right","s","870.88511137","384.043871192","13","red","2"
"100","81","18","575.903592718","1","0","4","347","1","right","0","in","Female","Right-handed","1","no","right","s","689.563337444","503.479272378","13","red","3"
"100","82","18","573.859948193","1","1","4","348","3","left","1","out","Female","Right-handed","1","no","left","d","433.102301224","559.300611251","13","green","3"
"100","82","18","575.594440509","1","1","4","349","2","right","3","out","Female","Right-handed","1","no","right","d","678.756217454","607.723064222","13","red","1"
"100","82","18","574.919772264","1","1","4","350","1","left","1","out","Female","Right-handed","1","no","left","d","640.372131566","455.493953406","13","red","3"
"100","83","18","572.388516053","1","1","4","351","0","left","2","in","Female","Right-handed","1","no","left","s","577.056333841","360.157688956","13","green","1"
"100","83","18","573.08064001","1","1","4","352","1","right","1","out","Female","Right-handed","1","no","right","d","652.5284979","551.771194507","13","green","0"
"100","84","18","572.960385595","1","1","4","353","0","right","1","in","Female","Right-handed","1","no","right","d","592.331008258","543.247883204","13","red","2"
"100","84","18","569.53666682","1","1","4","354","1","right","1","out","Female","Right-handed","1","no","right","s","469.901094824","367.884986612","13","red","0"
"100","84","18","566.405607536","1","1","4","355","1","left","3","in","Female","Right-handed","1","no","left","s","459.648490381","391.367389158","13","red","1"
"100","85","18","565.402124696","1","1","4","356","1","right","3","out","Female","Right-handed","1","no","right","d","439.215762996","599.268065129","13","green","1"
"100","85","18","563.909600816","1","1","4","357","1","right","0","in","Female","Right-handed","1","no","right","s","523.635864487","463.886092435","13","green","1"
"100","85","18","562.347845056","1","1","4","358","0","right","1","out","Female","Right-handed","1","no","right","s","519.307500199","455.459636942","13","green","3"
"100","86","18","564.333781158","1","1","4","359","2","left","1","out","Female","Right-handed","1","no","left","s","964.091510137","359.197790149","13","red","0"
"100","86","18","564.370062092","1","1","4","360","3","right","0","in","Female","Right-handed","1","no","right","s","756.675433935","375.692783633","13","red","1"
"100","84","18","562.454197946","1","0","4","361","2","left","1","in","Female","Right-handed","1","no","left","s","554.208946207","375.281306799","13","green","0"
"100","84","18","560.65245356","1","1","4","362","3","right","2","in","Female","Right-handed","1","no","right","d","486.025342226","447.898148737","13","green","0"
"100","85","18","559.336528316","1","1","4","363","1","right","1","in","Female","Right-handed","1","no","right","s","635.576165386","343.608815419","13","green","3"
"100","85","18","557.380883608","1","1","4","364","2","right","1","out","Female","Right-handed","1","no","right","d","384.232451379","519.319687355","13","green","3"
"100","85","18","554.942715447","1","1","4","365","0","left","1","in","Female","Right-handed","1","no","left","s","449.746747716","391.940185443","13","green","3"
"100","85","18","555.024900423","1","1","4","366","2","left","1","in","Female","Right-handed","1","no","left","d","351.580176888","767.674341263","13","red","3"
"100","86","18","554.094694393","1","1","4","367","1","left","2","in","Female","Right-handed","1","no","left","s","491.033621474","511.112279939","13","green","1"
"100","86","18","556.426459383","1","1","4","368","3","left","1","out","Female","Right-handed","1","no","left","d","935.69062843","447.647029203","13","red","0"
"100","85","18","555.233661435","1","0","4","369","0","left","2","out","Female","Right-handed","1","no","left","s","634.28593054","335.43123446","13","green","1"
"100","85","18","555.212667247","1","1","4","370","0","right","1","out","Female","Right-handed","1","no","right","d","652.854343934","455.051687968","13","green","0"
"100","85","18","553.291192917","1","1","4","371","2","right","1","out","Female","Right-handed","1","no","right","s","528.716945951","343.445571685","13","red","0"
"100","85","18","559.486931163","1","1","4","372","0","right","1","in","Female","Right-handed","1","no","right","d","616.003273855","1271.24213087","13","red","2"
"100","85","18","559.263197887","1","1","4","373","2","left","0","in","Female","Right-handed","1","no","left","d","546.725712364","543.610290704","13","green","1"
"100","86","18","559.118827746","1","1","4","374","3","left","1","in","Female","Right-handed","1","no","left","s","532.400032458","567.358244949","13","red","2"
"100","86","18","558.715591368","1","1","4","375","2","left","1","in","Female","Right-handed","1","no","left","d","409.992569042","655.017884648","13","red","3"
"100","86","18","557.519161297","1","1","4","376","0","right","1","in","Female","Right-handed","1","no","right","s","453.695706627","503.413846596","13","green","0"
"100","86","18","555.428362083","1","1","4","377","0","right","1","in","Female","Right-handed","1","no","right","s","439.3235231","391.366106305","13","green","3"
"100","85","18","553.4355778","1","0","4","378","1","right","2","out","Female","Right-handed","1","no","right","s","444.896901481","390.955591611","13","green","3"
"100","84","18","553.366124263","1","0","4","379","3","left","0","out","Female","Right-handed","1","no","left","s","561.556517769","535.591142758","13","green","1"
"100","84","18","554.376969038","1","1","4","380","3","left","1","out","Female","Right-handed","1","no","left","d","779.215256269","471.056950257","13","red","0"
"100","84","18","552.374549988","1","1","4","381","3","left","3","out","Female","Right-handed","1","no","left","s","445.591569311","374.814025618","13","green","1"
"100","84","18","553.072535745","1","1","4","382","0","left","0","in","Female","Right-handed","1","no","left","s","783.237338106","423.417682345","13","green","1"
"100","85","18","555.565664326","1","1","4","383","3","left","3","in","Female","Right-handed","1","no","left","d","844.037129773","631.090971659","13","red","0"
"100","85","18","554.513744812","1","1","4","384","2","right","1","in","Female","Right-handed","1","no","right","d","537.646923371","415.696478263","13","green","3"
"100","85","18","552.911761133","1","1","4","385","1","left","1","in","Female","Right-handed","1","no","left","s","458.251136853","407.274833495","13","red","3"
"100","85","18","551.456756744","1","1","4","386","3","left","1","in","Female","Right-handed","1","no","left","s","530.773047274","350.97979915","13","green","2"
"100","85","18","550.310481341","1","1","4","387","3","right","1","out","Female","Right-handed","1","no","right","d","493.529422518","430.565127998","13","green","0"
"100","86","18","552.214493131","1","1","4","388","0","right","2","out","Female","Right-handed","1","no","right","d","538.27937257","863.175453018","13","red","3"
"100","86","18","550.779007754","1","1","4","389","1","left","1","out","Female","Right-handed","1","no","left","s","515.810107449","358.941218466","13","green","0"
"100","86","18","548.719102103","1","1","4","390","2","left","3","out","Female","Right-handed","1","no","left","d","392.427030212","375.426269798","13","red","2"
"100","86","18","549.254073762","1","1","4","391","0","right","1","in","Female","Right-handed","1","no","right","s","458.149791036","727.02376527","13","red","2"
"100","86","18","547.742089786","1","1","4","392","3","left","1","out","Female","Right-handed","1","no","left","d","424.799641569","422.719165938","13","green","2"
"100","86","18","546.683360855","1","1","4","393","1","right","1","out","Female","Right-handed","1","no","right","s","614.217534942","303.400184155","13","red","0"
"100","87","18","545.438999715","1","1","4","394","2","right","2","in","Female","Right-handed","1","no","right","s","418.755774866","463.069553054","13","green","3"
"100","87","18","545.836560959","1","1","4","395","0","right","3","out","Female","Right-handed","1","no","right","d","544.652613167","614.605920328","13","red","2"
"100","87","18","544.03694619","1","1","4","396","0","right","1","out","Female","Right-handed","1","no","right","s","379.214229979","399.325922048","13","red","2"
"100","87","18","543.795304765","1","1","4","397","2","right","1","in","Female","Right-handed","1","no","right","s","454.661057582","590.883943969","13","red","2"
"100","87","18","545.179347264","1","1","4","398","3","left","1","out","Female","Right-handed","1","no","left","s","863.383276083","470.56689834","13","red","0"
"98","87","18","545.361510036","0","1","4","399","2","left","0","in","Female","Right-handed","1","no","right","s","449.120712805","674.027280624","13","red","1"
"98","87","18","545.107455199","1","1","4","400","1","right","0","in","Female","Right-handed","1","no","right","s","669.773642839","374.711396948","13","red","1"
"98","88","18","543.142230401","1","1","4","401","2","left","1","in","Female","Right-handed","1","no","left","s","417.374777786","311.238769777","13","green","2"
"98","88","18","542.533305203","1","1","4","402","3","left","0","in","Female","Right-handed","1","no","left","s","502.114631738","470.909742253","13","red","2"
"98","88","18","542.896417529","1","1","4","403","0","right","3","out","Female","Right-handed","1","no","right","s","514.634046998","638.697680624","13","red","0"
"98","88","18","544.356939622","1","1","4","404","0","right","2","out","Female","Right-handed","1","no","right","s","476.215965366","887.076067411","13","red","0"
"98","87","18","543.029169207","1","0","4","405","1","left","1","out","Female","Right-handed","1","no","left","s","514.933273724","318.848685889","13","green","2"
"100","100","18","538.790110572","1","1","5","406","2","right","1","out","Female","Right-handed","1","no","right","s","670.308274082","407.271947061","13","green","0"
"100","50","18","533.056134356","1","0","5","407","0","right","1","in","Female","Right-handed","1","no","right","d","654.904993109","399.739323173","13","red","2"
"100","66","18","504.543884501","1","1","5","408","0","left","0","in","Female","Right-handed","1","no","left","s","575.514338027","319.524431557","13","green","3"
"100","75","18","507.097574531","1","1","5","409","3","right","1","in","Female","Right-handed","1","no","right","s","566.269739582","463.247549658","13","green","0"
"100","80","18","490.439561814","1","1","5","410","0","left","1","out","Female","Right-handed","1","no","left","s","527.831773645","319.783248243","13","green","0"
"100","83","18","480.016433416","1","1","5","411","0","left","1","out","Female","Right-handed","1","no","left","d","416.369978932","439.431603925","13","red","0"
"100","85","18","463.323856828","1","1","5","412","3","right","1","out","Female","Right-handed","1","no","right","s","455.039500816","271.297293777","13","green","3"
"100","87","18","455.816251539","1","1","5","413","1","right","0","out","Female","Right-handed","1","no","right","d","406.728015096","399.798013943","13","green","1"
"100","88","18","461.384375989","1","1","5","414","2","left","1","in","Female","Right-handed","1","no","left","d","604.444719545","407.41402363","13","red","0"
"100","90","18","483.496587757","1","1","5","415","0","right","3","out","Female","Right-handed","1","no","right","s","989.002054819","376.010932519","13","red","1"
"100","90","18","474.324667615","1","1","5","416","2","left","0","out","Female","Right-handed","1","no","left","d","429.470529052","335.740403338","13","green","2"
"100","91","18","467.449512305","1","1","5","417","2","right","1","out","Female","Right-handed","1","no","right","s","432.24374823","351.401859567","13","green","2"
"100","92","18","463.324743198","1","1","5","418","2","left","1","out","Female","Right-handed","1","no","left","s","467.756796985","359.89823084","13","red","3"
"100","92","18","469.743268876","1","1","5","419","0","left","3","out","Female","Right-handed","1","no","left","s","642.689294579","463.678910801","13","green","2"
"100","93","18","462.713207059","1","1","5","420","1","left","2","out","Female","Right-handed","1","no","left","s","361.17307139","367.411611856","13","green","1"
"100","93","18","470.599581162","1","1","5","421","0","right","1","out","Female","Right-handed","1","no","right","s","785.958922232","391.831463192","13","red","3"
"100","94","18","462.913864981","1","1","5","422","1","left","2","out","Female","Right-handed","1","no","left","s","344.368267597","335.516544543","13","red","1"
"100","94","18","461.179670984","1","1","5","423","3","right","1","in","Female","Right-handed","1","no","right","d","480.183525724","383.213220371","13","red","2"
"94","94","18","464.762166574","0","1","5","424","1","right","3","in","Female","Right-handed","1","no","left","s","511.68090693","546.81326745","13","green","0"
"95","90","18","467.967891336","1","0","5","425","1","left","3","in","Female","Right-handed","1","no","left","s","642.217523396","415.535800247","13","red","2"
"95","85","18","468.422249242","1","0","5","426","2","right","1","out","Female","Right-handed","1","no","right","s","532.040511386","422.978303334","13","red","3"
"95","81","18","476.200993824","1","0","5","427","0","right","1","out","Female","Right-handed","1","no","right","s","495.597710997","783.511549092","13","red","3"
"95","78","18","473.548421651","1","0","5","428","2","left","1","in","Female","Right-handed","1","no","left","s","383.136569577","447.247098095","13","green","3"
"95","79","18","477.202256312","1","1","5","429","0","right","1","out","Female","Right-handed","1","no","right","s","562.638929558","559.841977501","13","red","2"
"96","80","18","484.526488941","1","1","5","430","2","right","0","out","Female","Right-handed","1","no","right","d","897.309108262","423.307035806","13","green","1"
"96","80","18","483.777465906","1","1","5","431","3","left","3","out","Female","Right-handed","1","no","left","s","563.067404266","367.03637577","13","green","0"
"96","81","18","487.886039268","1","1","5","432","3","left","2","in","Female","Right-handed","1","no","left","d","701.621244392","487.796648984","13","green","1"
"96","82","18","487.220937633","1","1","5","433","3","left","0","out","Female","Right-handed","1","no","left","d","435.231846193","503.294540766","13","green","3"
"96","82","18","488.208319352","1","1","5","434","0","right","3","out","Female","Right-handed","1","no","right","d","624.919781262","406.790233727","13","green","0"
"96","83","18","487.883990258","1","1","5","435","0","left","0","in","Female","Right-handed","1","no","left","d","509.390683947","447.566209124","13","red","2"
"96","83","18","488.36084287","1","1","5","436","1","right","3","out","Female","Right-handed","1","no","right","s","678.218058347","327.114784079","13","red","1"
"96","84","18","489.528317416","1","1","5","437","3","left","1","in","Female","Right-handed","1","no","left","s","411.663171413","639.776885266","13","red","3"
"96","84","18","489.814162506","1","1","5","438","1","right","1","out","Female","Right-handed","1","no","right","d","534.412516594","463.509894205","13","red","0"
"97","85","18","489.042181875","1","1","5","439","1","right","1","in","Female","Right-handed","1","no","right","s","599.997690857","327.13595124","13","red","3"
"97","85","18","488.248169327","1","1","5","440","2","right","2","in","Female","Right-handed","1","no","right","d","466.740131695","455.763353675","13","green","3"
"97","86","18","485.428746249","1","1","5","441","1","left","1","out","Female","Right-handed","1","no","left","d","422.268561921","351.22931511","13","red","3"
"97","86","18","487.969028747","1","1","5","442","2","left","3","in","Female","Right-handed","1","no","left","s","823.944359865","334.8940375","13","green","1"
"97","86","18","486.918287641","1","1","5","443","3","right","3","in","Female","Right-handed","1","no","right","s","560.610088974","335.471644499","13","green","1"
"97","87","18","484.963624755","1","1","5","444","3","right","1","in","Female","Right-handed","1","no","right","s","534.152737764","287.22013241","13","red","3"
"97","85","18","490.64812653","1","0","5","445","3","right","0","in","Female","Right-handed","1","no","right","d","777.803470581","646.883920875","13","red","1"
"97","85","18","489.885032967","1","1","5","446","3","left","3","in","Female","Right-handed","1","no","left","s","615.402896117","303.31968479","13","red","1"
"97","83","18","493.139254113","1","0","5","447","3","right","1","in","Female","Right-handed","1","no","right","s","734.062809392","519.061832816","13","green","0"
"97","83","18","495.151638004","1","1","5","448","0","left","1","out","Female","Right-handed","1","no","left","d","696.470247145","462.873275719","13","red","2"
"97","84","18","497.712718115","1","1","5","449","0","left","0","in","Female","Right-handed","1","no","left","d","808.404775184","407.273550634","13","red","1"
"97","84","18","495.761467872","1","1","5","450","3","right","1","out","Female","Right-handed","1","no","right","s","484.898030398","334.914883948","13","red","3"
"97","84","18","492.627269769","1","1","5","451","1","left","2","in","Female","Right-handed","1","no","left","s","447.635162763","255.541547456","13","green","3"
"97","82","18","493.428008466","1","0","5","452","3","right","1","in","Female","Right-handed","1","no","right","s","413.223127241","647.300849861","13","green","0"
"97","83","18","499.862917892","1","1","5","453","3","left","1","out","Female","Right-handed","1","no","left","d","1005.76997643","598.83734542","13","green","0"
"97","83","18","502.117338176","1","1","5","454","3","left","1","in","Female","Right-handed","1","no","left","d","589.350607446","631.308416159","13","green","2"
"98","84","18","501.497089355","1","1","5","455","0","left","1","in","Female","Right-handed","1","no","left","s","599.148438585","343.06135559","13","green","2"
"98","84","18","502.225542394","1","1","5","456","1","right","1","in","Female","Right-handed","1","no","right","d","558.680990634","518.615398083","13","green","2"
"98","84","18","506.177943909","1","1","5","457","3","right","0","in","Female","Right-handed","1","no","right","d","824.261867321","591.238975034","13","red","1"
"98","84","18","506.870181827","1","1","5","458","0","left","1","out","Female","Right-handed","1","no","left","s","614.850304854","470.882802223","13","green","0"
"98","85","18","506.696414015","1","1","5","459","3","left","2","out","Female","Right-handed","1","no","left","s","604.487053872","390.486386146","13","green","1"
"98","85","18","505.796519937","1","1","5","460","2","right","1","out","Female","Right-handed","1","no","right","s","619.253074932","295.151404556","13","green","2"
"98","85","18","505.671989529","1","1","5","461","2","left","2","out","Female","Right-handed","1","no","left","d","542.815880635","454.829753464","13","red","1"
"98","84","18","503.783256367","1","0","5","462","2","left","3","in","Female","Right-handed","1","no","left","s","428.499405236","367.528993404","13","green","2"
"98","84","18","503.495689645","1","1","5","463","1","right","3","in","Female","Right-handed","1","no","right","s","463.122470963","511.086302056","13","green","1"
"98","83","18","502.388801955","1","0","5","464","1","right","1","in","Female","Right-handed","1","no","right","s","469.756452538","406.622179274","13","red","3"
"98","83","18","502.928175109","1","1","5","465","2","left","2","in","Female","Right-handed","1","no","left","s","615.230993091","454.271389339","13","red","1"
"98","83","18","502.993497532","1","1","5","466","1","right","1","in","Female","Right-handed","1","no","right","d","526.88245842","486.943227421","13","red","3"
"98","83","18","502.759335337","1","1","5","467","3","left","0","out","Female","Right-handed","1","no","left","d","498.376061605","478.574821275","13","green","2"
"98","84","18","504.924890905","1","1","5","468","1","right","0","in","Female","Right-handed","1","no","right","d","695.107210082","583.271462143","13","green","1"
"98","84","18","504.79904053","1","1","5","469","2","left","2","out","Female","Right-handed","1","no","left","d","514.792159298","478.9487745","13","red","0"
"98","84","18","503.660976935","1","1","5","470","2","right","1","out","Female","Right-handed","1","no","right","s","551.351379087","310.29843456","13","red","0"
"98","84","18","503.000800202","1","1","5","471","1","right","1","out","Female","Right-handed","1","no","right","s","545.060241428","375.118383778","13","red","2"
"98","85","18","501.174794346","1","1","5","472","0","right","1","out","Female","Right-handed","1","no","right","s","458.608092206","302.708723469","13","green","3"
"98","83","18","499.626273159","1","0","5","473","2","right","1","out","Female","Right-handed","1","no","right","s","520.461752058","271.288955199","13","red","0"
"98","84","18","501.769668322","1","1","5","474","3","left","1","in","Female","Right-handed","1","no","left","d","535.928534522","759.112544205","13","red","2"
"98","84","18","500.166137037","1","1","5","475","0","right","1","out","Female","Right-handed","1","no","right","s","380.359501829","398.685454984","13","green","3"
"98","84","18","498.829326199","1","1","5","476","2","left","3","in","Female","Right-handed","1","no","left","d","355.204572621","455.300562502","13","green","0"
"98","83","18","499.287334289","1","0","5","477","0","left","2","out","Female","Right-handed","1","no","left","s","496.767677869","566.844139437","13","red","1"
"98","83","18","500.077757915","1","1","5","478","0","left","0","in","Female","Right-handed","1","no","left","s","555.551457535","558.425060383","13","green","1"
"98","83","18","499.03687671","1","1","5","479","2","left","1","out","Female","Right-handed","1","no","left","s","351.050356363","495.054741172","13","green","3"
"98","84","18","497.480705542","1","1","5","480","1","left","1","out","Female","Right-handed","1","no","left","s","437.813278033","326.834800231","13","red","0"
"98","84","18","497.41423429","1","1","5","481","1","left","0","out","Female","Right-handed","1","no","left","s","354.385146809","630.472633904","13","red","3"
"97","84","18","496.044274843","0","1","5","482","1","left","1","out","Female","Right-handed","1","no","right","s","398.995586006","384.859127713","13","green","0"
"97","84","18","496.103804808","1","1","5","483","3","right","3","out","Female","Right-handed","1","no","right","s","610.59891207","390.77631215","13","green","2"
"97","84","18","495.505071162","1","1","5","484","3","left","2","in","Female","Right-handed","1","no","left","d","467.360393734","430.247299824","13","red","0"
"97","83","18","497.742293469","1","0","5","485","0","left","3","in","Female","Right-handed","1","no","left","s","813.918179931","535.04753151","13","green","1"
"97","83","18","497.528218896","1","1","5","486","0","left","2","out","Female","Right-handed","1","no","left","s","602.499906192","358.30459998","13","red","3"
"97","84","18","498.463962829","1","1","5","487","1","right","1","out","Female","Right-handed","1","no","right","d","646.221645224","502.296797629","13","green","2"
"97","84","18","498.335060369","1","1","5","488","1","right","0","out","Female","Right-handed","1","no","right","s","600.808136656","374.72198053","13","red","2"
"97","84","18","498.913718639","1","1","5","489","1","right","1","in","Female","Right-handed","1","no","right","d","575.527166609","518.357543544","13","red","0"
"97","84","18","499.327118123","1","1","5","490","2","right","1","in","Female","Right-handed","1","no","right","s","613.023835187","455.081514428","13","green","2"
"97","84","18","501.015367518","1","1","5","491","2","right","0","out","Female","Right-handed","1","no","right","d","898.506977308","390.526154755","13","green","1"
"97","85","18","501.701844395","1","1","5","492","1","left","2","in","Female","Right-handed","1","no","left","d","731.245652314","390.232059468","13","red","0"
"97","85","18","502.328972961","1","1","5","493","1","right","1","in","Female","Right-handed","1","no","right","d","482.860530519","630.917785773","13","red","2"
"96","85","18","501.58254459","0","1","5","494","2","right","3","in","Female","Right-handed","1","no","left","d","462.336399472","409.45729637","13","red","1"
"96","85","18","500.060499246","1","1","5","495","2","right","1","in","Female","Right-handed","1","no","right","s","371.043384028","358.153543398","13","green","2"
"96","84","18","502.359425089","1","0","5","496","0","left","1","in","Female","Right-handed","1","no","left","s","1059.76292135","358.762580432","13","red","0"
"96","84","18","503.190786104","1","1","5","497","0","left","2","in","Female","Right-handed","1","no","left","d","479.317596295","678.371680642","13","green","0"
"96","84","18","503.312357667","1","1","5","498","0","right","2","in","Female","Right-handed","1","no","right","s","605.996336799","422.997546211","13","red","1"
"96","85","18","504.943672314","1","1","5","499","2","left","0","out","Female","Right-handed","1","no","left","d","562.59178451","750.720084467","13","red","3"
"96","85","18","514.118842619","1","1","5","500","3","left","2","in","Female","Right-handed","1","no","left","s","603.139411112","2150.03029149","13","red","3"
"96","85","18","515.061836849","1","1","5","501","3","right","1","in","Female","Right-handed","1","no","right","d","394.558178748","814.734398598","13","green","2"
dis_reply=No
dis_loc=0
