"acc_1","acc_2","age","avg_rt","correct_1","correct_2","count_block_loop","count_trial_sequence","cue_position","detection","dis_position","dis_shape","gender","hand","high_loc","practice","response_keyboard_response_1","response_keyboard_response_2","response_time_keyboard_response_1","response_time_keyboard_response_2","subject_nr","tar_color","tar_position"
"0","100","20","1676.86188722","0","1","0","0","0","right","3","in","Female","Right-handed","1","yes","left","s","1279.16393793","2074.55983651","5","red","1"
"50","100","20","1415.73552796","1","1","0","1","3","left","1","in","Female","Right-handed","1","yes","left","s","971.660456584","1337.5578808","5","red","0"
"66","100","20","1210.39918376","1","1","0","2","2","left","1","in","Female","Right-handed","1","yes","left","d","925.210853205","674.242137542","5","red","2"
"75","75","20","1297.22665252","1","0","0","3","2","left","3","out","Female","Right-handed","1","yes","left","d","745.757439112","2369.66067851","5","red","2"
"80","60","20","1185.3286321","1","0","0","4","2","right","2","out","Female","Right-handed","1","yes","right","s","834.204819301","641.268281481","5","green","0"
"83","66","20","1107.66948809","1","1","0","5","0","right","0","out","Female","Right-handed","1","yes","right","s","708.859330491","729.888205628","5","red","2"
"85","71","20","1079.47605648","1","1","0","6","3","left","0","out","Female","Right-handed","1","yes","left","d","707.305472723","1113.32546088","5","red","3"
"87","75","20","1092.97050541","1","1","0","7","0","left","3","in","Female","Right-handed","1","yes","left","d","1300.89742101","1073.96587478","5","green","1"
"88","77","20","1040.26189621","1","1","0","8","0","left","1","in","Female","Right-handed","1","yes","left","d","603.650812081","633.535233286","5","red","2"
"90","70","20","1130.40069005","1","0","0","9","1","left","0","in","Female","Right-handed","1","yes","left","None","883.131935832","3000.16773325","5","red","2"
"90","72","20","1112.15414164","1","1","0","10","1","left","2","in","Female","Right-handed","1","yes","left","d","1161.8090304","697.568284755","5","red","0"
"91","75","20","1081.70198312","1","1","0","11","2","left","2","out","Female","Right-handed","1","yes","left","d","684.22916147","809.227317364","5","green","1"
"92","69","20","1101.78168043","1","0","0","12","1","right","0","out","Female","Right-handed","1","yes","right","d","1011.76024985","1673.7158464","5","green","1"
"92","64","20","1088.88746808","1","0","0","13","0","left","0","in","Female","Right-handed","1","yes","left","d","889.227740707","953.297674248","5","green","3"
"93","60","20","1075.37507999","1","0","0","14","1","right","1","in","Female","Right-handed","1","yes","right","s","1514.66302935","257.740264253","5","red","2"
"93","62","20","1070.8087092","1","1","0","15","3","right","3","in","Female","Right-handed","1","yes","right","s","1083.29992566","921.326369142","5","red","2"
"94","64","20","1062.8719359","1","1","0","16","1","left","2","out","Female","Right-handed","1","yes","left","s","861.799344846","1009.9677811","5","red","0"
"94","61","20","1045.32579592","1","0","0","17","1","right","1","out","Female","Right-handed","1","yes","right","d","692.468616562","801.614216085","5","green","3"
"94","57","20","1093.86510351","1","0","0","18","3","right","1","out","Female","Right-handed","1","yes","right","None","935.036558152","3000.10872194","5","red","0"
"95","60","20","1097.1932983","1","1","0","19","1","left","0","in","Female","Right-handed","1","yes","left","d","1039.45034807","1281.40765082","5","green","1"
"95","61","20","1086.61075222","1","1","0","20","1","right","3","in","Female","Right-handed","1","yes","right","d","652.995818535","1096.92384269","5","red","2"
"95","59","20","1065.43301769","1","0","0","21","1","right","0","out","Female","Right-handed","1","yes","right","s","575.755457103","665.645728124","5","green","2"
"100","100","20","772.893344099","1","1","1","22","0","left","1","in","Female","Right-handed","1","no","left","d","912.46280523","633.323882968","5","green","0"
"100","100","20","758.192791254","1","1","1","23","1","right","1","in","Female","Right-handed","1","no","right","d","653.007043515","833.977433304","5","green","2"
"100","100","20","729.956677996","1","1","1","24","2","left","1","in","Female","Right-handed","1","no","left","d","777.420859089","569.54804387","5","green","0"
"100","75","20","729.630672542","1","0","1","25","1","right","1","out","Female","Right-handed","1","no","right","d","704.144198","753.161114364","5","red","3"
"100","80","20","716.041777446","1","1","1","26","1","left","1","out","Female","Right-handed","1","no","left","s","497.765587807","825.606806313","5","red","2"
"100","83","20","732.170430883","1","1","1","27","0","left","0","out","Female","Right-handed","1","no","left","s","864.295138686","761.332257447","5","green","3"
"100","85","20","702.27271915","1","1","1","28","1","left","1","out","Female","Right-handed","1","no","left","s","444.782084676","600.990812833","5","green","3"
"100","87","20","680.940603505","1","1","1","29","2","left","1","out","Female","Right-handed","1","no","left","d","437.653902474","625.577685511","5","red","3"
"100","88","20","693.744397755","1","1","1","30","3","right","2","out","Female","Right-handed","1","no","right","d","1071.19779503","521.151708475","5","red","0"
"100","90","20","688.954075725","1","1","1","31","1","left","1","out","Female","Right-handed","1","no","left","s","681.858766678","609.823588235","5","red","0"
"100","90","20","677.760833081","1","1","1","32","0","right","2","in","Female","Right-handed","1","no","right","d","458.311391172","673.345422099","5","green","1"
"100","91","20","654.617199896","1","1","1","33","0","right","1","out","Female","Right-handed","1","no","right","s","511.048586199","289.025883521","5","red","0"
"100","84","20","669.260899047","1","0","1","34","0","left","1","in","Female","Right-handed","1","no","left","d","728.396245595","961.57433213","5","red","2"
"100","85","20","650.470244139","1","1","1","35","2","left","1","in","Female","Right-handed","1","no","left","s","435.182803591","377.200657076","5","red","2"
"93","80","20","653.919741188","0","0","1","36","2","right","3","in","Female","Right-handed","1","no","left","d","496.712364089","907.713035664","5","green","1"
"93","81","20","659.763608763","1","1","1","37","0","left","1","in","Female","Right-handed","1","no","left","d","421.404943994","1073.43830078","5","red","2"
"94","76","20","651.043068413","1","0","1","38","3","left","2","out","Female","Right-handed","1","no","left","d","469.988255463","553.040590166","5","green","3"
"88","77","20","666.045079015","0","1","1","39","3","right","3","in","Female","Right-handed","1","no","left","d","501.559309901","1340.59920861","5","red","0"
"89","73","20","666.866592259","1","0","1","40","0","left","2","in","Female","Right-handed","1","no","left","d","490.150562244","873.157099028","5","green","3"
"90","75","20","662.935457013","1","1","1","41","3","left","1","out","Female","Right-handed","1","no","left","s","542.593983537","633.893791175","5","green","3"
"90","76","20","658.049044329","1","1","1","42","3","right","1","in","Female","Right-handed","1","no","right","d","503.324517984","617.317063312","5","green","3"
"90","72","20","657.685760423","1","0","1","43","2","left","2","in","Female","Right-handed","1","no","left","d","651.074102178","649.039494609","5","red","1"
"91","69","20","670.83302087","1","0","1","44","2","left","2","in","Female","Right-handed","1","no","left","d","590.582691853","1329.56280953","5","green","3"
"91","66","20","675.220454573","1","0","1","45","1","right","2","in","Female","Right-handed","1","no","right","s","783.096208332","769.166651164","5","green","1"
"92","68","20","685.820100152","1","1","1","46","2","right","1","in","Female","Right-handed","1","no","right","d","1158.69810773","721.725080388","5","red","0"
"92","69","20","677.24604053","1","1","1","47","2","right","1","out","Female","Right-handed","1","no","right","s","652.398970378","273.390129587","5","green","2"
"92","70","20","672.195853618","1","1","1","48","2","left","0","out","Female","Right-handed","1","no","left","s","488.823128329","592.958859488","5","red","2"
"92","71","20","679.264284656","1","1","1","49","3","right","1","in","Female","Right-handed","1","no","right","s","1074.64482564","665.579019678","5","red","0"
"93","72","20","681.088163592","1","1","1","50","0","right","1","in","Female","Right-handed","1","no","right","d","655.066346037","809.247201614","5","green","3"
"93","73","20","684.543776241","1","1","1","51","2","left","1","out","Female","Right-handed","1","no","left","d","648.744117312","920.768968772","5","red","2"
"93","74","20","693.327348126","1","1","1","52","0","left","1","out","Female","Right-handed","1","no","left","d","992.279138922","921.389870451","5","green","3"
"93","71","20","722.718982096","1","0","1","53","0","left","2","in","Female","Right-handed","1","no","left","d","1514.91799672","1752.80127362","5","red","1"
"93","72","20","721.647773812","1","1","1","54","3","right","1","in","Female","Right-handed","1","no","right","d","653.304024378","721.434193081","5","red","0"
"94","73","20","718.451952054","1","1","1","55","2","left","3","out","Female","Right-handed","1","no","left","s","680.955636959","545.024031078","5","red","2"
"94","74","20","713.055626138","1","1","1","56","2","left","1","out","Female","Right-handed","1","no","left","d","497.553275352","561.607814638","5","red","3"
"94","75","20","710.575447108","1","1","1","57","1","left","1","in","Female","Right-handed","1","no","left","d","502.261993566","745.276368594","5","green","2"
"94","75","20","707.624470148","1","1","1","58","2","left","2","out","Female","Right-handed","1","no","left","d","513.959062824","688.819536335","5","green","1"
"94","76","20","706.080173456","1","1","1","59","3","right","1","out","Female","Right-handed","1","no","right","d","585.421125921","712.461265804","5","green","3"
"94","74","20","699.268897811","1","0","1","60","3","left","1","out","Female","Right-handed","1","no","left","d","511.897836015","368.983010514","5","red","2"
"95","75","20","701.091825617","1","1","1","61","1","right","2","out","Female","Right-handed","1","no","right","d","927.682593523","616.689426646","5","green","0"
"95","73","20","702.010204389","1","0","1","62","0","left","0","in","Female","Right-handed","1","no","left","d","924.285273533","553.205436998","5","green","1"
"95","73","20","700.864702109","1","1","1","63","1","right","0","in","Female","Right-handed","1","no","right","d","578.973498145","728.824719074","5","green","1"
"95","74","20","714.854863859","1","1","1","64","1","right","3","in","Female","Right-handed","1","no","right","d","1435.46054163","1169.42277311","5","red","2"
"95","75","20","713.188830295","1","1","1","65","0","right","0","out","Female","Right-handed","1","no","right","d","761.999983322","521.098790719","5","red","2"
"95","75","20","712.207962579","1","1","1","66","3","right","1","in","Female","Right-handed","1","no","right","d","729.570057658","608.529508543","5","red","0"
"95","76","20","714.707380561","1","1","1","67","2","left","0","out","Female","Right-handed","1","no","left","s","877.169547854","777.192831665","5","green","1"
"95","76","20","715.827271856","1","1","1","68","2","right","1","in","Female","Right-handed","1","no","right","d","837.827601004","696.856941817","5","red","3"
"95","75","20","725.701605936","1","0","1","69","1","right","3","in","Female","Right-handed","1","no","right","s","722.281197901","1657.3094175","5","red","0"
"95","75","20","726.002824872","1","1","1","70","3","left","1","out","Female","Right-handed","1","no","left","s","1207.9545972","272.968070389","5","red","0"
"94","74","20","736.332311967","0","0","1","71","3","right","3","out","Female","Right-handed","1","no","left","s","753.432758851","1731.52160038","5","red","1"
"94","72","20","735.944613024","1","0","1","72","0","left","3","out","Female","Right-handed","1","no","left","s","656.137850434","776.981481351","5","red","0"
"94","73","20","740.967376807","1","1","1","73","1","right","1","out","Female","Right-handed","1","no","right","s","1241.63915478","752.617504681","5","red","0"
"94","73","20","741.349946681","1","1","1","74","3","right","1","out","Female","Right-handed","1","no","right","s","545.272584175","977.214576054","5","green","3"
"94","74","20","745.727574137","1","1","1","75","3","right","1","in","Female","Right-handed","1","no","right","d","1066.74660989","888.737048779","5","green","2"
"94","74","20","742.010392522","1","1","1","76","3","left","3","in","Female","Right-handed","1","no","left","d","562.203379937","520.361790685","5","green","2"
"94","75","20","748.413260489","1","1","1","77","2","right","3","out","Female","Right-handed","1","no","right","s","720.088157774","1481.05383949","5","red","0"
"94","75","20","748.160656419","1","1","1","78","1","left","2","in","Female","Right-handed","1","no","left","s","851.515660772","616.513996269","5","green","3"
"94","75","20","749.264946369","1","1","1","79","2","left","2","in","Female","Right-handed","1","no","left","s","1207.20541006","417.213536937","5","red","0"
"94","76","20","753.485043333","1","1","1","80","2","left","3","out","Female","Right-handed","1","no","left","s","1091.73469538","904.766639109","5","green","1"
"95","76","20","752.340245034","1","1","1","81","0","right","1","out","Female","Right-handed","1","no","right","d","545.295034135","824.299256648","5","green","0"
"95","77","20","750.720020608","1","1","1","82","2","right","1","out","Female","Right-handed","1","no","right","s","858.056936941","448.956173194","5","green","2"
"95","77","20","750.345548296","1","1","1","83","3","right","0","out","Female","Right-handed","1","no","right","s","886.494298029","568.511176549","5","green","1"
"95","76","20","755.350255022","1","0","1","84","3","left","0","in","Female","Right-handed","1","no","left","d","1146.19412286","985.09002112","5","red","1"
"95","76","20","753.886846822","1","1","1","85","2","left","1","out","Female","Right-handed","1","no","left","d","610.610298885","712.773961641","5","green","3"
"95","75","20","755.231612263","1","0","1","86","1","right","3","in","Female","Right-handed","1","no","right","s","1170.38908342","512.204117582","5","green","1"
"95","75","20","751.285884483","1","1","1","87","0","left","1","in","Female","Right-handed","1","no","left","s","460.679220254","528.947937266","5","green","2"
"95","76","20","754.683508685","1","1","1","88","0","left","3","out","Female","Right-handed","1","no","left","d","597.412931049","1360.44048099","5","red","2"
"95","76","20","755.902296615","1","1","1","89","2","left","1","in","Female","Right-handed","1","no","left","d","994.029914891","681.092260987","5","red","0"
"95","76","20","753.869468622","1","1","1","90","2","right","0","in","Female","Right-handed","1","no","right","d","534.73970557","696.534624567","5","red","1"
"95","77","20","752.945610809","1","1","1","91","1","right","3","out","Female","Right-handed","1","no","right","d","770.212498468","608.186344907","5","red","1"
"95","77","20","756.485117399","1","1","1","92","0","left","3","in","Female","Right-handed","1","no","left","s","959.750112732","1048.75104472","5","red","1"
"95","77","20","764.05382926","1","1","1","93","3","left","1","in","Female","Right-handed","1","no","left","d","626.567407919","1976.29733494","5","green","2"
"95","78","20","761.798408186","1","1","1","94","0","right","1","out","Female","Right-handed","1","no","right","d","701.961741423","496.854440251","5","red","3"
"95","77","20","761.566452108","1","0","1","95","1","left","1","in","Female","Right-handed","1","no","left","d","520.587893829","968.679422949","5","red","2"
"96","76","20","773.013684425","1","0","1","96","2","right","1","in","Female","Right-handed","1","no","right","d","472.156279928","2768.06147183","5","red","0"
"96","76","20","771.052686016","1","1","1","97","3","right","2","out","Female","Right-handed","1","no","right","d","671.495545608","576.460065051","5","green","1"
"96","76","20","767.788444529","1","1","1","98","2","right","0","in","Female","Right-handed","1","no","right","s","719.145580279","320.266602867","5","red","3"
"96","76","20","766.129157532","1","1","1","99","3","right","2","out","Female","Right-handed","1","no","right","s","667.941717344","608.7864002","5","red","1"
"94","77","20","765.486916396","0","1","1","100","0","left","1","in","Female","Right-handed","1","no","right","d","443.504682098","987.279533398","5","red","0"
"95","76","20","761.457590346","1","0","1","101","0","right","1","in","Female","Right-handed","1","no","right","d","526.197496765","360.084168096","5","green","2"
"95","75","20","757.979085081","1","0","1","102","0","left","1","in","Female","Right-handed","1","no","left","s","614.586507061","344.810820621","5","green","3"
"95","75","20","753.941428342","1","1","1","103","1","right","0","in","Female","Right-handed","1","no","right","s","469.411932983","384.370532058","5","green","2"
"95","75","20","750.682892156","1","1","1","104","3","right","0","out","Female","Right-handed","1","no","right","d","446.954278414","520.011571349","5","green","3"
"95","76","20","747.944095513","1","1","1","105","1","left","1","out","Female","Right-handed","1","no","left","d","472.699568898","568.548379339","5","green","3"
"95","75","20","748.170539762","1","0","1","106","3","right","1","out","Female","Right-handed","1","no","right","d","774.208911607","760.174801784","5","red","2"
"95","74","20","748.60714982","1","0","1","107","3","left","3","out","Female","Right-handed","1","no","left","s","706.771805162","864.666204412","5","green","1"
"95","74","20","746.207735863","1","1","1","108","0","right","2","out","Female","Right-handed","1","no","right","s","383.402938893","696.313332133","5","green","0"
"95","75","20","743.876387793","1","1","1","109","1","right","0","out","Female","Right-handed","1","no","right","s","426.133546458","655.964665049","5","red","3"
"95","75","20","744.401811226","1","1","1","110","1","right","0","in","Female","Right-handed","1","no","right","d","764.70648605","816.571660587","5","green","1"
"95","75","20","744.033120244","1","1","1","111","1","left","2","in","Female","Right-handed","1","no","left","s","470.219810741","952.219434861","5","green","1"
"95","75","20","745.195598091","1","1","1","112","0","left","3","in","Female","Right-handed","1","no","left","d","706.861284281","992.775924409","5","red","1"
"95","75","20","744.578546182","1","0","1","113","1","right","1","in","Female","Right-handed","1","no","right","d","576.53896062","800.31468426","5","red","0"
"95","74","20","743.931109212","1","0","1","114","3","left","0","out","Female","Right-handed","1","no","left","s","592.964311625","775.769504362","5","green","2"
"95","74","20","744.826757022","1","1","1","115","1","left","1","out","Female","Right-handed","1","no","left","s","895.601283624","760.642723039","5","red","0"
"95","74","20","743.404649815","1","1","1","116","1","right","1","out","Female","Right-handed","1","no","right","s","523.174449638","696.278695054","5","green","3"
"95","73","20","747.574756487","1","0","1","117","0","right","0","out","Female","Right-handed","1","no","right","d","895.784731849","1391.6850489","5","green","1"
"100","100","20","694.76781292","1","1","2","118","0","right","2","out","Female","Right-handed","1","no","right","d","812.239460229","577.296165611","5","green","1"
"100","100","20","705.30437973","1","1","2","119","2","left","1","in","Female","Right-handed","1","no","left","s","710.860904554","720.820988528","5","red","0"
"100","100","20","677.999244826","1","1","2","120","0","left","1","in","Female","Right-handed","1","no","left","d","669.358951087","577.41899895","5","red","3"
"100","100","20","666.907455824","1","1","2","121","3","left","0","out","Female","Right-handed","1","no","left","s","690.079620377","577.184557253","5","green","1"
"100","100","20","632.253084143","1","1","2","122","1","right","2","in","Female","Right-handed","1","no","right","s","466.697733129","520.573461712","5","green","0"
"100","100","20","602.9338032","1","1","2","123","3","left","1","in","Female","Right-handed","1","no","left","s","447.358056935","465.316740036","5","red","0"
"100","100","20","590.211419954","1","1","2","124","1","left","1","in","Female","Right-handed","1","no","left","d","546.86781401","480.886426947","5","green","0"
"100","87","20","614.828986647","1","0","2","125","1","left","2","out","Female","Right-handed","1","no","left","d","637.570132065","936.733774935","5","green","1"
"100","88","20","606.864968922","1","1","2","126","3","left","1","out","Female","Right-handed","1","no","left","d","533.173339973","553.132314275","5","green","3"
"100","90","20","606.659250698","1","1","2","127","0","left","1","in","Female","Right-handed","1","no","left","s","448.722372923","760.893200422","5","green","3"
"100","90","20","669.4438819","1","1","2","128","0","left","1","in","Female","Right-handed","1","no","left","s","457.354381557","2137.22600629","5","red","2"
"100","91","20","654.823258434","1","1","2","129","3","right","2","in","Female","Right-handed","1","no","right","s","530.905573556","457.087227063","5","red","1"
"100","84","20","669.385545652","1","0","2","130","0","right","2","out","Female","Right-handed","1","no","right","s","1119.59028186","568.675702667","5","red","1"
"100","85","20","666.263869377","1","1","2","131","3","right","1","out","Female","Right-handed","1","no","right","d","490.140299404","761.223856221","5","green","2"
"100","86","20","661.3314129","1","1","2","132","0","left","1","out","Female","Right-handed","1","no","left","d","447.704427712","736.849616715","5","red","2"
"100","81","20","659.052205692","1","0","2","133","3","right","1","out","Female","Right-handed","1","no","right","d","416.327405048","833.40079011","5","red","3"
"100","82","20","659.725363068","1","1","2","134","2","right","1","out","Female","Right-handed","1","no","right","d","427.92569449","913.06606766","5","red","2"
"100","83","20","652.997341925","1","1","2","135","3","left","3","out","Female","Right-handed","1","no","left","d","580.557182286","496.684782713","5","red","0"
"100","84","20","646.827169458","1","1","2","136","1","left","3","out","Female","Right-handed","1","no","left","d","446.179754887","625.348375233","5","green","1"
"100","85","20","641.928173927","1","1","2","137","2","left","1","in","Female","Right-handed","1","no","left","d","448.824680589","648.869837074","5","red","2"
"100","85","20","634.457384376","1","1","2","138","0","right","1","out","Female","Right-handed","1","no","right","d","401.585480137","568.497706576","5","green","3"
"100","86","20","639.118151386","1","1","2","139","1","right","1","in","Female","Right-handed","1","no","right","d","521.00129376","952.987223409","5","red","2"
"100","86","20","637.056557913","1","1","2","140","0","right","2","in","Female","Right-handed","1","no","right","d","638.644843599","544.758159434","5","green","0"
"100","87","20","638.82092877","1","1","2","141","1","right","0","out","Female","Right-handed","1","no","right","d","862.376950179","496.425966776","5","green","3"
"100","84","20","627.864348377","1","0","2","142","0","right","0","out","Female","Right-handed","1","no","right","s","433.043643359","296.769194552","5","green","3"
"100","84","20","622.641773825","1","1","2","143","2","right","0","out","Female","Right-handed","1","no","right","d","367.573473901","616.581346138","5","red","3"
"100","85","20","622.864620034","1","1","2","144","0","right","1","out","Female","Right-handed","1","no","right","s","673.139523919","584.177718992","5","red","0"
"100","85","20","621.46970983","1","1","2","145","1","right","3","in","Female","Right-handed","1","no","right","d","582.707888207","584.906380471","5","red","0"
"100","82","20","632.414444042","1","0","2","146","1","left","1","in","Female","Right-handed","1","no","left","s","765.290184943","1112.44381898","5","red","2"
"100","83","20","630.632394989","1","1","2","147","2","right","1","out","Female","Right-handed","1","no","right","d","421.022011862","736.883933081","5","red","0"
"100","80","20","639.597549441","1","0","2","148","0","right","1","out","Female","Right-handed","1","no","right","d","392.601648597","1424.50271741","5","red","2"
"100","81","20","649.150501628","1","1","2","149","0","right","1","in","Female","Right-handed","1","no","right","d","697.341540181","1193.24249867","5","green","0"
"100","78","20","647.439988591","1","0","2","150","1","left","3","in","Female","Right-handed","1","no","left","d","496.702101253","688.705041557","5","red","1"
"100","76","20","684.626596461","1","0","2","151","2","right","1","in","Female","Right-handed","1","no","right","None","823.448723975","3000.12058834","5","red","2"
"100","77","20","680.057899815","1","1","2","152","3","right","0","in","Female","Right-handed","1","no","right","d","504.779916653","544.664511042","5","green","3"
"100","77","20","681.524395941","1","1","2","153","0","left","3","out","Female","Right-handed","1","no","left","d","929.399373839","536.304146892","5","red","1"
"100","75","20","689.227102747","1","0","2","154","1","right","1","out","Female","Right-handed","1","no","right","s","620.114007299","1312.93508819","5","red","2"
"100","76","20","692.079502254","1","1","2","155","1","left","1","in","Female","Right-handed","1","no","left","d","466.534810585","1128.70175745","5","green","3"
"100","76","20","694.916669294","1","1","2","156","0","left","3","out","Female","Right-handed","1","no","left","d","621.213413786","984.244619867","5","green","1"
"100","77","20","687.935625388","1","1","2","157","3","left","1","out","Female","Right-handed","1","no","left","d","414.606455452","416.743370686","5","red","2"
"100","78","20","690.628854284","1","1","2","158","2","left","2","in","Female","Right-handed","1","no","left","s","884.438202644","712.277817584","5","red","1"
"100","76","20","688.222016212","1","0","2","159","0","right","0","out","Female","Right-handed","1","no","right","d","681.923871551","497.159438954","5","green","2"
"100","76","20","684.696967118","1","1","2","160","3","left","1","in","Female","Right-handed","1","no","left","s","448.66721017","624.622600178","5","red","3"
"100","77","20","681.809923441","1","1","2","161","2","right","1","out","Female","Right-handed","1","no","right","s","443.184609849","672.149480797","5","green","3"
"100","77","20","678.933718959","1","1","2","162","2","right","1","in","Female","Right-handed","1","no","right","s","791.911665194","312.849778354","5","red","3"
"100","78","20","679.400036182","1","1","2","163","1","right","3","in","Female","Right-handed","1","no","right","d","800.353169903","600.4154525","5","green","2"
"100","76","20","685.594071115","1","0","2","164","3","left","1","in","Female","Right-handed","1","no","left","d","1189.08925654","751.950099519","5","green","0"
"100","77","20","683.511096907","1","1","2","165","3","right","1","out","Female","Right-handed","1","no","right","s","722.672147877","448.550470388","5","green","0"
"100","77","20","685.688310524","1","1","2","166","2","right","0","out","Female","Right-handed","1","no","right","s","972.183219874","608.205908444","5","green","1"
"100","76","20","685.881564929","1","0","2","167","1","left","1","in","Female","Right-handed","1","no","left","d","701.88028015","688.821781336","5","green","0"
"100","74","20","687.724934267","1","0","2","168","2","left","3","out","Female","Right-handed","1","no","left","s","791.37350764","768.413294736","5","green","0"
"100","73","20","691.999600563","1","0","2","169","0","left","1","in","Female","Right-handed","1","no","left","d","811.927405819","1008.08775752","5","green","3"
"100","73","20","686.681894959","1","1","2","170","1","left","2","out","Female","Right-handed","1","no","left","d","379.609537511","440.712869535","5","red","3"
"100","72","20","691.800326468","1","0","2","171","0","right","0","in","Female","Right-handed","1","no","right","s","518.00230016","1408.15209269","5","red","1"
"100","72","20","691.926875765","1","1","2","172","2","right","3","in","Female","Right-handed","1","no","right","d","540.817550482","856.70352522","5","red","2"
"100","73","20","691.302613308","1","1","2","173","0","right","3","out","Female","Right-handed","1","no","right","d","505.533273081","808.403083214","5","red","0"
"100","73","20","693.172642165","1","1","2","174","2","right","2","out","Female","Right-handed","1","no","right","s","747.949837812","847.838678455","5","green","1"
"100","72","20","697.376091552","1","0","2","175","3","left","2","in","Female","Right-handed","1","no","left","d","1281.41951722","592.525896027","5","green","0"
"100","72","20","695.270080435","1","1","2","176","1","right","1","out","Female","Right-handed","1","no","right","d","610.158734027","536.084137308","5","red","2"
"100","73","20","694.377940009","1","1","2","177","3","right","3","in","Female","Right-handed","1","no","right","d","779.831022377","503.652287363","5","red","1"
"100","73","20","690.632780494","1","1","2","178","3","left","3","in","Female","Right-handed","1","no","left","d","435.367855382","496.478563818","5","red","2"
"100","72","20","699.91260604","1","0","2","179","0","left","1","out","Female","Right-handed","1","no","left","d","804.029190076","1727.93473862","5","red","0"
"100","73","20","697.484565756","1","1","2","180","0","right","1","out","Female","Right-handed","1","no","right","s","469.452984336","624.439151958","5","green","2"
"100","73","20","695.641336754","1","1","2","181","0","right","3","out","Female","Right-handed","1","no","right","s","422.999211685","736.036607541","5","green","2"
"100","73","20","695.003687961","1","1","2","182","1","right","0","in","Female","Right-handed","1","no","right","s","428.661411668","879.72691872","5","green","1"
"100","74","20","693.114859483","1","1","2","183","3","left","3","out","Female","Right-handed","1","no","left","d","652.364012592","488.318004289","5","green","1"
"100","74","20","691.276514249","1","1","2","184","3","right","1","in","Female","Right-handed","1","no","right","s","627.995545929","511.895911735","5","red","2"
"100","75","20","688.105167844","1","1","2","185","1","left","1","in","Female","Right-handed","1","no","left","d","534.628417925","416.621499491","5","green","0"
"100","75","20","685.622230132","1","1","2","186","3","left","2","out","Female","Right-handed","1","no","left","s","513.272094125","520.292837246","5","red","3"
"100","75","20","686.174619801","1","1","2","187","2","left","0","out","Female","Right-handed","1","no","left","s","1032.81510279","415.763911115","5","green","1"
"100","76","20","683.404383007","1","1","2","188","3","left","1","in","Female","Right-handed","1","no","left","d","482.425531885","496.550082968","5","red","2"
"100","76","20","681.921314752","1","1","2","189","3","left","0","in","Female","Right-handed","1","no","left","d","593.174379082","560.072558263","5","green","2"
"100","76","20","679.630705054","1","1","2","190","3","left","1","out","Female","Right-handed","1","no","left","s","405.700557338","623.713056189","5","red","3"
"100","77","20","679.018283644","1","1","2","191","3","left","2","in","Female","Right-handed","1","no","left","d","844.248930258","424.374111222","5","green","1"
"100","77","20","677.969337207","1","1","2","192","3","right","0","in","Female","Right-handed","1","no","right","s","896.851746256","303.842855432","5","green","1"
"100","77","20","677.168628754","1","1","2","193","3","right","1","in","Female","Right-handed","1","no","right","s","737.605859569","496.62512997","5","red","0"
"100","77","20","681.161445591","1","1","2","194","2","left","3","out","Female","Right-handed","1","no","left","d","665.104684155","1304.12636632","5","red","1"
"100","78","20","682.060051515","1","1","2","195","2","right","1","in","Female","Right-handed","1","no","right","s","486.697117361","1015.80829789","5","green","2"
"100","78","20","681.747156287","1","1","2","196","1","right","1","out","Female","Right-handed","1","no","right","s","834.312899809","480.369757213","5","red","3"
"100","78","20","679.682604105","1","1","2","197","1","left","2","out","Female","Right-handed","1","no","left","s","681.134274477","352.031689079","5","green","1"
"98","77","20","679.823608744","0","0","2","198","2","right","3","in","Female","Right-handed","1","no","left","s","443.629760433","938.578199297","5","green","1"
"98","78","20","677.121858901","1","1","2","199","1","left","1","out","Female","Right-handed","1","no","left","d","484.164120735","432.396122443","5","red","3"
"98","78","20","674.641885891","1","1","2","200","1","right","1","in","Female","Right-handed","1","no","right","d","470.798698931","471.769499232","5","red","3"
"98","78","20","672.824829351","1","1","2","201","2","left","0","in","Female","Right-handed","1","no","left","s","427.435002563","616.583270417","5","green","2"
"98","78","20","671.833798551","1","1","2","202","0","left","0","out","Female","Right-handed","1","no","left","s","665.076140631","512.098282066","5","green","1"
"98","79","20","669.315639823","1","1","2","203","0","right","1","in","Female","Right-handed","1","no","right","s","486.732075151","423.812220859","5","red","0"
"98","79","20","668.665667647","1","1","2","204","1","left","0","in","Female","Right-handed","1","no","left","s","513.245154176","712.290966843","5","red","1"
"98","79","20","667.129575557","1","1","2","205","2","left","1","out","Female","Right-handed","1","no","left","s","595.024255577","471.954871737","5","green","3"
"98","79","20","668.055395929","1","1","2","206","2","right","2","out","Female","Right-handed","1","no","right","s","979.604213662","519.450963842","5","red","0"
"98","80","20","666.707377705","1","1","2","207","2","left","2","in","Female","Right-handed","1","no","left","d","613.281202393","480.186308989","5","green","3"
"98","80","20","665.099064614","1","1","2","208","2","left","1","out","Female","Right-handed","1","no","left","s","504.869075055","535.832697784","5","green","3"
"98","80","20","664.319153517","1","1","2","209","0","right","2","in","Female","Right-handed","1","no","right","d","475.479194341","711.215293166","5","green","3"
"98","80","20","663.655037637","1","1","2","210","1","right","1","in","Female","Right-handed","1","no","right","d","628.995210464","576.117542845","5","green","0"
"97","80","20","662.94847833","0","1","2","211","2","left","1","out","Female","Right-handed","1","no","right","s","566.721914944","627.755010668","5","red","0"
"97","81","20","664.425270793","1","1","2","212","1","right","0","in","Female","Right-handed","1","no","right","s","494.214645969","1112.27287859","5","green","2"
"97","81","20","664.231808425","1","1","2","213","2","left","1","out","Female","Right-handed","1","no","left","s","835.821536952","455.884230057","5","red","0"
"100","100","20","778.281654599","1","1","3","214","2","left","0","in","Female","Right-handed","1","no","left","d","651.842532148","904.720777049","5","red","1"
"100","100","20","709.859556273","1","1","3","215","0","right","3","in","Female","Right-handed","1","no","right","d","602.38110663","680.493809265","5","red","1"
"100","100","20","635.594909974","1","1","3","216","2","right","0","in","Female","Right-handed","1","no","right","d","405.028662182","569.102572572","5","red","3"
"100","75","20","636.378239769","1","0","3","217","3","left","1","in","Female","Right-handed","1","no","left","d","380.672703352","896.783754953","5","green","3"
"100","80","20","611.24467054","1","1","3","218","0","right","2","out","Female","Right-handed","1","no","right","d","645.301897406","376.118889842","5","green","1"
"100","83","20","625.092392265","1","1","3","219","1","right","1","in","Female","Right-handed","1","no","right","s","491.798709831","896.863291949","5","green","2"
"100","85","20","633.074688442","1","1","3","220","0","right","1","in","Female","Right-handed","1","no","right","s","409.39325462","952.543676391","5","green","3"
"100","87","20","610.64762194","1","1","3","221","1","left","1","out","Female","Right-handed","1","no","left","d","394.166410631","513.149902214","5","green","3"
"100","88","20","608.661660397","1","1","3","222","1","left","0","in","Female","Right-handed","1","no","left","s","576.764101621","608.78383449","5","green","1"
"100","90","20","602.18054833","1","1","3","223","3","left","3","out","Female","Right-handed","1","no","left","s","599.240678297","488.46040116","5","red","2"
"100","90","20","649.115008099","1","1","3","224","2","left","3","out","Female","Right-handed","1","no","left","s","803.918864571","1433.00034701","5","green","1"
"100","91","20","641.852848974","1","1","3","225","3","right","0","out","Female","Right-handed","1","no","right","d","731.515827541","392.422369652","5","green","1"
"100","92","20","650.638301631","1","1","3","226","0","right","0","out","Female","Right-handed","1","no","right","d","864.106238332","648.021228681","5","red","1"
"100","92","20","648.209052354","1","1","3","227","3","right","2","in","Female","Right-handed","1","no","right","d","832.472003302","400.785620226","5","red","1"
"100","93","20","647.548592933","1","1","3","228","1","right","2","out","Female","Right-handed","1","no","right","d","828.321006167","448.283315898","5","green","3"
"100","93","20","658.536718589","1","1","3","229","0","left","1","in","Female","Right-handed","1","no","left","d","942.849784769","703.867422097","5","red","2"
"100","94","20","645.274523551","1","1","3","230","0","right","2","in","Female","Right-handed","1","no","right","s","505.59068083","360.568125037","5","red","0"
"100","94","20","648.792055096","1","1","3","231","2","right","1","out","Female","Right-handed","1","no","right","s","744.987405575","672.192777143","5","green","0"
"100","94","20","643.237547861","1","1","3","232","2","left","1","out","Female","Right-handed","1","no","left","s","518.725188787","567.787646494","5","red","3"
"100","95","20","635.568357555","1","1","3","233","0","left","2","out","Female","Right-handed","1","no","left","s","403.330162542","576.377320926","5","green","3"
"100","95","20","638.49921668","1","1","3","234","1","right","1","in","Female","Right-handed","1","no","right","d","530.066265859","864.166532501","5","green","0"
"100","95","20","631.230023547","1","1","3","235","3","left","2","out","Female","Right-handed","1","no","left","s","396.520128314","560.633807196","5","red","3"
"100","95","20","633.624872757","1","1","3","236","1","left","0","in","Female","Right-handed","1","no","left","d","788.30299489","584.320115868","5","red","3"
"100","95","20","646.258846887","1","1","3","237","0","right","3","out","Female","Right-handed","1","no","right","s","793.892713576","1079.78779017","5","green","1"
"100","96","20","637.101530895","1","1","3","238","1","left","3","out","Female","Right-handed","1","no","left","s","418.250724972","416.401169194","5","green","1"
"100","96","20","642.524874676","1","1","3","239","0","right","1","out","Female","Right-handed","1","no","right","s","884.054308368","672.162630057","5","green","2"
"100","96","20","634.20324424","1","1","3","240","3","left","0","out","Female","Right-handed","1","no","left","s","434.788967192","400.892738595","5","red","3"
"100","96","20","627.566121768","1","1","3","241","2","right","1","out","Female","Right-handed","1","no","right","s","600.355799757","296.371830307","5","red","0"
"100","96","20","625.549357647","1","1","3","242","0","left","0","out","Female","Right-handed","1","no","left","d","682.106999062","456.052925452","5","green","2"
"100","96","20","620.08520721","1","1","3","243","1","right","1","out","Female","Right-handed","1","no","right","s","466.609857584","456.639831485","5","red","2"
"100","96","20","615.767405861","1","1","3","244","2","left","0","out","Female","Right-handed","1","no","left","s","452.145670719","520.321060048","5","red","2"
"100","93","20","609.100614415","1","0","3","245","2","left","1","in","Female","Right-handed","1","no","left","s","468.8917354","335.968423813","5","green","3"
"100","93","20","606.129583798","1","1","3","246","0","left","1","out","Female","Right-handed","1","no","left","d","373.565367539","648.547840538","5","red","3"
"100","94","20","609.966720862","1","1","3","247","0","right","1","in","Female","Right-handed","1","no","right","s","945.071689126","528.112798849","5","red","3"
"100","94","20","613.759175733","1","1","3","248","2","right","1","out","Female","Right-handed","1","no","right","d","541.613882542","943.791400125","5","red","2"
"100","94","20","609.968613178","1","1","3","249","1","right","1","in","Female","Right-handed","1","no","right","s","666.33558325","288.26226425","5","green","0"
"100","94","20","609.222826506","1","1","3","250","2","right","1","in","Female","Right-handed","1","no","right","d","444.997604267","719.751408415","5","green","2"
"100","94","20","604.809478858","1","1","3","251","1","right","1","in","Female","Right-handed","1","no","right","d","386.518030846","496.513200895","5","green","3"
"100","94","20","611.652223614","1","1","3","252","2","left","1","in","Female","Right-handed","1","no","left","s","415.229922841","1328.12312583","5","red","2"
"100","92","20","607.018329749","1","0","3","253","1","left","1","out","Female","Right-handed","1","no","left","s","380.792650267","471.800287745","5","red","3"
"100","92","20","610.124851801","1","1","3","254","0","right","2","in","Female","Right-handed","1","no","right","d","812.36197285","656.409494921","5","green","1"
"100","92","20","613.660560858","1","1","3","255","0","right","1","out","Female","Right-handed","1","no","right","d","837.205737185","680.043527263","5","green","0"
"100","93","20","618.623606087","1","1","3","256","0","left","1","out","Female","Right-handed","1","no","left","s","766.453734162","887.689277195","5","green","0"
"100","90","20","630.352518124","1","0","3","257","1","left","2","out","Female","Right-handed","1","no","left","s","421.237210739","1848.15426071","5","green","1"
"100","91","20","635.282524162","1","1","3","258","3","right","1","in","Female","Right-handed","1","no","right","s","496.684782713","1207.72079693","5","red","3"
"100","91","20","633.046375002","1","1","3","259","0","right","1","out","Female","Right-handed","1","no","right","d","440.337634532","624.501691123","5","red","0"
"100","91","20","635.522501469","1","1","3","260","0","left","1","in","Female","Right-handed","1","no","left","d","946.969993387","551.87864451","5","green","3"
"100","91","20","643.857149103","1","1","3","261","1","left","0","in","Female","Right-handed","1","no","left","d","639.635207433","1431.53596836","5","red","2"
"100","89","20","646.759095999","1","0","3","262","1","right","1","in","Female","Right-handed","1","no","right","s","540.049761934","1032.05533209","5","green","2"
"100","90","20","654.739667086","1","1","3","263","3","right","1","out","Female","Right-handed","1","no","right","d","603.784870396","1487.79043029","5","green","0"
"100","90","20","653.376241553","1","1","3","264","2","left","2","in","Female","Right-handed","1","no","left","d","706.237816888","464.172112919","5","green","0"
"100","90","20","653.009014052","1","1","3","265","0","left","3","in","Female","Right-handed","1","no","left","s","412.710716905","855.850106124","5","green","2"
"100","90","20","651.905071317","1","1","3","266","1","left","1","out","Female","Right-handed","1","no","left","d","421.51206236","767.488035778","5","red","2"
"100","90","20","647.315679376","1","1","3","267","3","right","2","out","Female","Right-handed","1","no","right","s","479.975600105","328.180212862","5","red","0"
"100","90","20","644.814779979","1","1","3","268","3","left","1","in","Female","Right-handed","1","no","left","d","403.760239583","615.772185531","5","red","3"
"100","91","20","644.48464164","1","1","3","269","0","right","1","in","Female","Right-handed","1","no","right","d","541.372705855","711.281360185","5","red","2"
"100","91","20","650.150823765","1","1","3","270","1","right","1","out","Female","Right-handed","1","no","right","s","1038.96158042","895.9524651","5","red","0"
"100","91","20","650.787066201","1","1","3","271","1","right","3","in","Female","Right-handed","1","no","right","s","686.49756931","687.60820078","5","red","0"
"100","91","20","650.51285596","1","1","3","272","2","left","2","in","Female","Right-handed","1","no","left","s","661.128155262","608.089168665","5","red","1"
"100","91","20","650.066751207","1","1","3","273","0","left","0","in","Female","Right-handed","1","no","left","s","775.777201492","471.715940046","5","red","3"
"98","91","20","646.889819173","0","1","3","274","3","left","0","out","Female","Right-handed","1","no","right","s","542.331960463","370.215833889","5","green","1"
"98","91","20","646.286866011","1","1","3","275","0","left","0","out","Female","Right-handed","1","no","left","d","643.105329429","575.908116814","5","green","1"
"98","92","20","651.729602755","1","1","3","276","3","left","3","out","Female","Right-handed","1","no","left","d","890.693081499","1087.66548024","5","red","1"
"98","90","20","650.49458509","1","0","3","277","2","left","3","in","Female","Right-handed","1","no","left","s","697.115116327","448.261828082","5","red","0"
"98","90","20","649.620960839","1","1","3","278","1","right","3","out","Female","Right-handed","1","no","right","d","691.735465094","495.682552471","5","green","1"
"98","90","20","647.678983452","1","1","3","279","2","left","2","out","Female","Right-handed","1","no","left","d","635.516923099","407.383983431","5","red","1"
"98","91","20","649.23574505","1","1","3","280","0","left","3","out","Female","Right-handed","1","no","left","s","807.942859087","696.021161973","5","red","0"
"98","91","20","647.924132614","1","1","3","281","2","left","1","out","Female","Right-handed","1","no","left","s","496.469904549","623.622294217","5","green","3"
"98","91","20","646.0224597","1","1","3","282","3","left","1","in","Female","Right-handed","1","no","left","s","458.251417713","575.165985363","5","green","3"
"98","91","20","643.127651099","1","1","3","283","2","left","1","in","Female","Right-handed","1","no","left","d","398.885391685","487.886323681","5","green","2"
"98","91","20","644.647015886","1","1","3","284","1","right","1","in","Female","Right-handed","1","no","right","d","686.506870007","815.498231906","5","green","3"
"98","91","20","643.355085204","1","1","3","285","3","left","1","in","Female","Right-handed","1","no","left","d","447.201869378","656.054144165","5","green","2"
"98","91","20","642.277077568","1","1","3","286","3","left","3","out","Female","Right-handed","1","no","left","d","689.645694773","439.675360787","5","red","0"
"98","91","20","640.001516629","1","1","3","287","3","left","1","in","Female","Right-handed","1","no","left","s","484.370339629","463.400796525","5","green","2"
"98","92","20","646.020909676","1","1","3","288","2","right","3","out","Female","Right-handed","1","no","right","s","687.078702493","1495.8332879","5","green","1"
"98","92","20","643.627020863","1","1","3","289","2","left","1","out","Female","Right-handed","1","no","left","s","480.563788988","447.606930749","5","green","3"
"98","92","20","641.679692571","1","1","3","290","3","left","0","in","Female","Right-handed","1","no","left","d","572.129788976","415.235695688","5","red","2"
"98","92","20","641.746541641","1","1","3","291","3","right","1","in","Female","Right-handed","1","no","right","s","693.906696692","599.881143513","5","red","2"
"98","92","20","642.837498999","1","1","3","292","3","right","2","in","Female","Right-handed","1","no","right","s","792.379265731","663.485080076","5","green","1"
"98","92","20","647.252618306","1","1","3","293","3","left","1","in","Female","Right-handed","1","no","left","s","1465.06081052","527.033276608","5","red","0"
"98","92","20","648.935773427","1","1","3","294","3","right","1","in","Female","Right-handed","1","no","right","s","679.596773105","887.579593116","5","red","2"
"98","92","20","648.602168262","1","1","3","295","2","left","0","in","Female","Right-handed","1","no","left","s","604.001031414","639.15926834","5","green","1"
"98","92","20","652.170419381","1","1","3","296","0","left","1","in","Female","Right-handed","1","no","left","d","1129.7816004","759.752421869","5","red","2"
"98","92","20","656.797256847","1","1","3","297","3","left","3","in","Female","Right-handed","1","no","left","s","1226.34752663","855.30200645","5","green","1"
"98","92","20","655.739807031","1","1","3","298","1","right","2","in","Female","Right-handed","1","no","right","s","757.863739022","375.964305851","5","red","1"
"98","91","20","654.143887729","1","0","3","299","0","right","1","out","Female","Right-handed","1","no","right","s","493.460648111","543.520846066","5","red","0"
"98","91","20","654.724485533","1","1","3","300","1","right","1","in","Female","Right-handed","1","no","right","d","722.165420266","687.146373079","5","green","0"
"98","92","20","655.463444238","1","1","3","301","2","right","2","in","Female","Right-handed","1","no","right","d","511.857426092","927.648277157","5","green","3"
"98","92","20","656.663855101","1","1","3","302","1","right","2","out","Female","Right-handed","1","no","right","d","645.291634566","879.308387368","5","red","0"
"98","92","20","656.672585259","1","1","3","303","3","right","1","out","Female","Right-handed","1","no","right","s","723.987073954","590.9120648","5","red","0"
"97","91","20","656.38001217","0","0","3","304","1","right","3","out","Female","Right-handed","1","no","left","d","577.529003742","682.56786462","5","green","2"
"97","91","20","654.431463682","1","1","3","305","2","right","3","out","Female","Right-handed","1","no","right","d","363.114912354","591.112190137","5","green","2"
"97","91","20","656.305619899","1","1","3","306","2","right","1","out","Female","Right-handed","1","no","right","s","785.73664404","871.719339611","5","red","0"
"97","91","20","658.242262704","1","1","3","307","2","right","1","out","Female","Right-handed","1","no","right","s","917.29724321","759.402843963","5","red","0"
"97","91","20","661.397124319","1","1","3","308","3","right","1","in","Female","Right-handed","1","no","right","d","893.030122068","1022.8781102","5","red","0"
"97","90","20","662.164788728","1","0","3","309","1","left","0","out","Female","Right-handed","1","no","left","d","454.683798766","1015.50201633","5","green","1"
"100","100","20","886.954842874","1","1","4","310","1","left","1","out","Female","Right-handed","1","no","left","d","797.915104526","975.994581222","5","green","3"
"100","100","20","655.021045233","1","1","4","311","2","left","1","in","Female","Right-handed","1","no","left","d","389.509968744","456.664526439","5","green","3"
"100","100","20","644.576977591","1","1","4","312","2","right","2","out","Female","Right-handed","1","no","right","s","927.194467305","320.183217311","5","red","1"
"100","100","20","636.37823977","1","1","4","313","2","left","2","out","Female","Right-handed","1","no","left","d","735.740268101","487.823784512","5","green","0"
"100","100","20","691.853744301","1","1","4","314","1","left","2","out","Female","Right-handed","1","no","left","s","923.261555476","904.249969372","5","red","3"
"100","100","20","659.80037391","1","1","4","315","3","right","1","in","Female","Right-handed","1","no","right","s","583.079274649","415.987769261","5","red","0"
"100","100","20","641.438213914","1","1","4","316","2","left","3","in","Female","Right-handed","1","no","left","s","566.758797013","495.771710874","5","red","1"
"100","100","20","624.733927915","1","1","4","317","1","right","2","in","Female","Right-handed","1","no","right","d","535.249640317","480.35821152","5","green","1"
"100","100","20","623.366792322","1","1","4","318","0","right","3","out","Female","Right-handed","1","no","right","s","560.864079616","663.995335541","5","green","2"
"100","100","20","627.23211909","1","1","4","319","2","right","0","in","Female","Right-handed","1","no","right","d","844.566116088","479.474003914","5","red","1"
"100","100","20","640.572784715","1","1","4","320","0","left","3","out","Female","Right-handed","1","no","left","d","1020.05647126","527.902410679","5","green","0"
"100","100","20","639.128453097","1","1","4","321","3","right","1","in","Female","Right-handed","1","no","right","d","534.673638555","711.807972042","5","green","2"
"100","100","20","628.598561653","1","1","4","322","1","left","3","out","Female","Right-handed","1","no","left","d","548.224432867","456.255295783","5","green","1"
"100","100","20","633.370695713","1","1","4","323","2","left","3","out","Female","Right-handed","1","no","left","s","606.875908823","783.940968158","5","green","0"
"100","100","20","620.644510483","1","1","4","324","1","left","1","in","Female","Right-handed","1","no","left","s","580.463213181","304.492621341","5","green","3"
"100","100","20","621.618575383","1","1","4","325","0","right","3","in","Female","Right-handed","1","no","right","d","592.072086173","680.387011609","5","green","1"
"100","100","20","612.100674212","1","1","4","326","2","left","1","in","Female","Right-handed","1","no","left","s","415.774815381","503.853695551","5","green","2"
"100","100","20","601.538778881","1","1","4","327","2","right","1","out","Female","Right-handed","1","no","right","d","444.46297457","399.510141928","5","green","2"
"100","100","20","608.592967654","1","1","4","328","3","right","3","in","Female","Right-handed","1","no","right","d","783.125393278","688.011337868","5","green","1"
"100","100","20","619.6932069","1","1","4","329","0","left","1","in","Female","Right-handed","1","no","left","s","1141.61753868","519.577966458","5","red","2"
"100","95","20","613.268457843","1","0","4","330","1","left","0","in","Female","Right-handed","1","no","left","d","417.316486029","552.230467412","5","green","1"
"100","95","20","602.498006765","1","1","4","331","0","right","2","in","Female","Right-handed","1","no","right","s","424.708294875","327.928773342","5","red","1"
"100","95","20","596.062196589","1","1","4","332","0","left","1","out","Female","Right-handed","1","no","left","d","493.399391798","415.549353668","5","green","3"
"100","95","20","592.480187645","1","1","4","333","0","right","1","out","Female","Right-handed","1","no","right","s","492.1777934","528.010170474","5","green","2"
"100","96","20","588.414808505","1","1","4","334","3","right","1","in","Female","Right-handed","1","no","right","d","397.754555255","583.936863022","5","red","2"
"100","92","20","602.104047017","1","0","4","335","1","right","1","in","Female","Right-handed","1","no","right","s","945.354558593","943.315461031","5","red","2"
"100","88","20","593.988635475","1","0","4","336","0","right","1","out","Female","Right-handed","1","no","right","s","462.034235545","303.941635244","5","red","0"
"100","85","20","597.169761355","1","0","4","337","0","left","0","in","Female","Right-handed","1","no","left","s","462.598691614","903.52162861","5","green","1"
"100","86","20","608.601154875","1","1","4","338","0","left","1","in","Female","Right-handed","1","no","left","d","585.193419214","1272.16692762","5","red","3"
"100","86","20","622.057393209","1","1","4","339","3","left","3","out","Female","Right-handed","1","no","left","s","688.777843559","1335.79876628","5","green","1"
"100","87","20","621.207371954","1","1","4","340","3","left","1","out","Female","Right-handed","1","no","left","s","464.243311355","727.170157206","5","green","3"
"100","84","20","624.448507775","1","0","4","341","3","left","1","out","Female","Right-handed","1","no","left","d","441.993799963","1007.85363654","5","red","3"
"100","84","20","628.161350041","1","1","4","342","1","left","1","in","Female","Right-handed","1","no","left","d","902.517794799","591.426810253","5","green","2"
"100","85","20","621.486397722","1","1","4","343","0","left","1","out","Female","Right-handed","1","no","left","s","410.217168061","392.208774341","5","red","3"
"100","85","20","625.037553281","1","1","4","344","2","right","1","out","Female","Right-handed","1","no","right","s","955.789298812","535.764385771","5","red","0"
"100","86","20","626.600004903","1","1","4","345","3","right","0","out","Female","Right-handed","1","no","right","d","691.317895886","671.253727494","5","red","2"
"100","86","20","625.434738225","1","1","4","346","3","right","0","in","Female","Right-handed","1","no","right","d","630.91788896","536.052386655","5","red","1"
"100","84","20","623.293199786","1","0","4","347","1","left","1","out","Female","Right-handed","1","no","left","d","424.643189996","663.46936511","5","green","2"
"100","84","20","626.763244739","1","1","4","348","0","right","3","out","Female","Right-handed","1","no","right","d","878.161835972","639.0880699","5","red","1"
"100","85","20","630.94943115","1","1","4","349","1","right","2","out","Female","Right-handed","1","no","right","d","868.678973948","719.742428431","5","green","1"
"100","85","20","629.568853808","1","1","4","350","1","left","0","out","Female","Right-handed","1","no","left","s","685.307721567","463.383798702","5","green","2"
"100","85","20","626.972671652","1","1","4","351","2","right","3","in","Female","Right-handed","1","no","right","d","561.005193638","480.053212814","5","green","2"
"100","86","20","629.106080435","1","1","4","352","1","right","1","out","Female","Right-handed","1","no","right","d","637.747166016","799.671332625","5","green","3"
"100","86","20","633.483685849","1","1","4","353","3","right","3","in","Female","Right-handed","1","no","right","d","580.268219262","1063.1732181","5","red","2"
"100","86","20","630.668680179","1","1","4","354","3","right","2","in","Female","Right-handed","1","no","right","s","693.767186244","319.849675085","5","green","1"
"100","86","20","628.510674843","1","1","4","355","2","right","1","in","Female","Right-handed","1","no","right","s","543.415010554","519.385858963","5","green","3"
"100","87","20","622.850558167","1","1","4","356","0","right","1","out","Female","Right-handed","1","no","right","s","406.045003827","318.925378266","5","red","0"
"100","87","20","623.606034704","1","1","4","357","0","left","0","in","Female","Right-handed","1","no","left","d","822.650788349","495.576075529","5","green","1"
"100","87","20","622.915460909","1","1","4","358","2","left","3","out","Female","Right-handed","1","no","left","d","684.289776353","495.246061153","5","green","1"
"100","88","20","623.605463165","1","1","4","359","0","left","1","in","Female","Right-handed","1","no","left","s","763.885459033","550.945688421","5","red","0"
"100","86","20","624.967540317","1","0","4","360","1","right","1","out","Female","Right-handed","1","no","right","d","754.477002585","631.665793255","5","green","2"
"100","86","20","621.441903778","1","1","4","361","2","left","2","out","Female","Right-handed","1","no","left","s","476.164238757","407.104641818","5","red","1"
"100","86","20","616.892060205","1","1","4","362","2","left","1","out","Female","Right-handed","1","no","left","s","400.762849553","359.837539279","5","red","2"
"100","87","20","615.810347487","1","1","4","363","3","right","2","in","Female","Right-handed","1","no","right","d","477.391610002","639.567536848","5","red","0"
"100","85","20","612.942079751","1","0","4","364","2","left","1","in","Female","Right-handed","1","no","left","s","437.153589141","478.95765489","5","green","3"
"100","85","20","610.552175259","1","1","4","365","3","left","1","in","Female","Right-handed","1","no","left","s","406.582840663","551.632015689","5","green","2"
"100","84","20","612.152850091","1","0","4","366","1","right","1","out","Female","Right-handed","1","no","right","d","908.340993043","495.24028831","5","red","0"
"98","84","20","617.64737352","0","1","4","367","3","left","1","in","Female","Right-handed","1","no","right","s","1170.86598466","690.804433289","5","red","0"
"98","84","20","615.421862912","1","1","4","368","1","left","3","out","Female","Right-handed","1","no","left","s","517.186725276","455.497770079","5","red","0"
"98","85","20","613.834043287","1","1","4","369","2","left","0","in","Female","Right-handed","1","no","left","d","425.12458123","615.180789507","5","green","3"
"98","85","20","613.307479885","1","1","4","370","3","left","1","out","Female","Right-handed","1","no","left","s","571.655774162","591.771577456","5","red","2"
"98","85","20","612.243122052","1","1","4","371","1","left","0","in","Female","Right-handed","1","no","left","s","623.375986113","471.258602342","5","red","1"
"98","85","20","611.475711656","1","1","4","372","0","right","2","out","Female","Right-handed","1","no","right","s","600.926990814","526.865543354","5","red","1"
"98","85","20","606.946718895","1","1","4","373","0","right","2","in","Female","Right-handed","1","no","right","s","347.627328142","295.613021746","5","green","3"
"98","86","20","608.628441313","1","1","4","374","1","right","1","out","Female","Right-handed","1","no","right","d","697.278680302","735.23867191","5","green","0"
"98","84","20","607.789879633","1","0","4","375","1","right","0","in","Female","Right-handed","1","no","right","s","770.798763071","335.767977766","5","green","3"
"98","83","20","606.934994334","1","0","4","376","3","left","2","out","Female","Right-handed","1","no","left","s","733.472180975","367.552948224","5","green","1"
"98","83","20","606.768703201","1","1","4","377","0","right","1","out","Female","Right-handed","1","no","right","s","416.19751601","775.05687857","5","red","0"
"98","82","20","609.237514201","1","0","4","378","0","left","1","in","Female","Right-handed","1","no","left","d","714.599143182","839.634181149","5","green","2"
"98","82","20","610.0238556","1","1","4","379","2","left","1","out","Female","Right-handed","1","no","left","d","721.28666479","607.276159492","5","red","0"
"98","83","20","610.528629825","1","1","4","380","1","right","3","out","Female","Right-handed","1","no","right","d","884.862186125","406.86346513","5","green","2"
"98","83","20","609.854955814","1","1","4","381","0","right","0","in","Female","Right-handed","1","no","right","d","540.472462559","583.57573942","5","red","3"
"98","83","20","609.762630669","1","1","4","382","1","left","2","in","Female","Right-handed","1","no","left","d","599.141577768","607.088862704","5","red","0"
"98","83","20","610.012362905","1","1","4","383","2","left","0","out","Female","Right-handed","1","no","left","d","585.722917491","670.762714854","5","red","1"
"98","84","20","607.429725753","1","1","4","384","3","left","1","in","Female","Right-handed","1","no","left","s","393.369116427","439.260036575","5","red","3"
"98","84","20","606.648440536","1","1","4","385","3","right","1","out","Female","Right-handed","1","no","right","d","449.022560926","647.081537605","5","green","3"
"98","83","20","609.322579323","1","0","4","386","3","right","3","out","Female","Right-handed","1","no","right","s","633.634333812","991.479920438","5","red","0"
"98","83","20","611.242507779","1","1","4","387","3","left","1","in","Female","Right-handed","1","no","left","d","823.038531183","695.115466544","5","red","0"
"98","83","20","615.153478099","1","1","4","388","2","right","1","in","Female","Right-handed","1","no","right","d","953.821720396","886.596605695","5","green","0"
"98","83","20","613.942942952","1","1","4","389","3","right","2","in","Female","Right-handed","1","no","right","s","429.344852513","607.276480208","5","green","3"
"98","83","20","618.022583913","1","1","4","390","0","left","1","out","Female","Right-handed","1","no","left","d","930.952910894","957.834810648","5","red","2"
"98","84","20","615.468350386","1","1","4","391","2","right","1","out","Female","Right-handed","1","no","right","s","474.676768721","342.474100766","5","red","2"
"98","84","20","614.10313359","1","1","4","392","2","left","0","in","Female","Right-handed","1","no","left","s","461.116994426","543.193718117","5","red","2"
"98","84","20","612.50517838","1","1","4","393","1","right","3","out","Female","Right-handed","1","no","right","s","648.976955439","310.772836576","5","green","1"
"98","84","20","611.227021855","1","1","4","394","2","right","1","in","Female","Right-handed","1","no","right","d","536.347443238","471.376304264","5","green","3"
"98","84","20","612.660567354","1","1","4","395","2","left","1","in","Female","Right-handed","1","no","left","s","990.007203229","479.016666206","5","red","0"
"98","85","20","616.034525631","1","1","4","396","3","right","0","in","Female","Right-handed","1","no","right","s","1437.69784025","374.692034689","5","red","1"
"98","85","20","619.372294962","1","1","4","397","0","right","1","out","Female","Right-handed","1","no","right","d","1332.23082661","487.285626961","5","green","3"
"98","85","20","617.585554716","1","1","4","398","2","right","2","out","Female","Right-handed","1","no","right","d","401.84974821","518.855077829","5","green","3"
"98","85","20","618.778044184","1","1","4","399","0","left","0","out","Female","Right-handed","1","no","left","s","411.401884386","1038.41732931","5","red","2"
"98","85","20","616.9300553","1","1","4","400","3","right","0","out","Female","Right-handed","1","no","right","s","374.003783138","527.218328403","5","red","3"
"98","85","20","617.525508032","1","1","4","401","3","left","1","out","Female","Right-handed","1","no","left","d","736.705936986","606.717476265","5","red","0"
"98","86","20","617.888050911","1","1","4","402","1","left","1","in","Female","Right-handed","1","no","left","s","728.334989286","574.149002292","5","red","0"
"98","85","20","617.782695221","1","0","4","403","0","left","2","in","Female","Right-handed","1","no","left","s","408.976326839","806.992905174","5","green","0"
"98","85","20","616.44874116","1","1","4","404","1","right","1","in","Female","Right-handed","1","no","right","s","615.559873076","366.554245833","5","red","0"
"98","85","20","614.691423865","1","1","4","405","1","right","1","in","Female","Right-handed","1","no","right","s","496.221672161","399.270889528","5","red","3"
"100","100","20","421.605069327","1","1","5","406","2","right","3","out","Female","Right-handed","1","no","right","s","443.638740413","399.571398241","5","green","2"
"100","100","20","409.564595903","1","1","5","407","3","left","1","out","Female","Right-handed","1","no","left","d","363.583475035","431.464769925","5","green","3"
"100","100","20","472.377198198","1","1","5","408","3","left","3","out","Female","Right-handed","1","no","left","d","715.979174136","480.025631438","5","red","0"
"100","100","20","481.424384052","1","1","5","409","2","right","2","in","Female","Right-handed","1","no","right","s","665.68293091","351.448952322","5","green","1"
"100","100","20","498.305477211","1","1","5","410","0","right","1","out","Female","Right-handed","1","no","right","s","740.369449326","391.290250369","5","green","3"
"100","83","20","518.732244488","1","0","5","411","3","left","1","out","Female","Right-handed","1","no","left","d","473.764979732","767.967182012","5","green","3"
"100","71","20","544.124864464","1","0","5","412","3","right","2","out","Female","Right-handed","1","no","right","d","369.440989649","1023.52017898","5","green","3"
"100","75","20","555.119255777","1","1","5","413","3","right","0","out","Female","Right-handed","1","no","right","d","489.158915552","775.001074391","5","red","3"
"100","77","20","592.61386066","1","1","5","414","2","right","1","out","Female","Right-handed","1","no","right","d","433.595912313","1351.54548714","5","green","2"
"100","80","20","570.438633683","1","1","5","415","2","left","1","out","Female","Right-handed","1","no","left","s","430.359590591","311.363591172","5","green","2"
"100","81","20","582.256512864","1","1","5","416","3","right","0","out","Female","Right-handed","1","no","right","d","680.925489873","719.945119475","5","green","2"
"100","83","20","568.239104447","1","1","5","417","1","left","2","out","Female","Right-handed","1","no","left","d","364.475059058","463.620164679","5","red","1"
"100","84","20","563.809242662","1","1","5","418","2","right","2","out","Female","Right-handed","1","no","right","d","646.226835652","375.074966825","5","red","0"
"100","85","20","585.094261415","1","1","5","419","2","left","1","out","Female","Right-handed","1","no","left","s","907.74927631","815.849734099","5","red","0"
"100","86","20","585.145376303","1","1","5","420","1","left","1","in","Female","Right-handed","1","no","left","s","660.346896744","511.375072721","5","red","2"
"100","81","20","588.912926156","1","0","5","421","3","right","0","out","Female","Right-handed","1","no","right","s","747.942140686","542.910207226","5","red","1"
"100","82","20","578.514349352","1","1","5","422","2","right","1","in","Female","Right-handed","1","no","right","d","432.658466231","391.615774752","5","green","3"
"100","83","20","614.999238839","1","1","5","423","1","right","1","out","Female","Right-handed","1","no","right","s","711.236139555","1759.24858068","5","green","2"
"100","84","20","608.168680338","1","1","5","424","0","right","1","in","Female","Right-handed","1","no","right","s","434.635345344","535.801909274","5","green","2"
"100","85","20","621.655421376","1","1","5","425","0","right","2","in","Female","Right-handed","1","no","right","s","860.447857409","895.359144797","5","green","1"
"100","85","20","620.194246806","1","1","5","426","3","left","1","out","Female","Right-handed","1","no","left","s","606.938447989","575.003062815","5","green","0"
"100","86","20","611.736769234","1","1","5","427","1","right","3","in","Female","Right-handed","1","no","right","d","436.59490591","431.664574546","5","green","0"
"100","86","20","613.712889976","1","1","5","428","0","right","1","in","Female","Right-handed","1","no","right","d","611.235690555","703.139402049","5","green","3"
"100","87","20","612.299745043","1","1","5","429","1","right","1","in","Female","Right-handed","1","no","right","s","568.76486107","590.829962097","5","red","0"
"100","88","20","608.767189451","1","1","5","430","3","right","1","in","Female","Right-handed","1","no","right","s","552.455608416","495.516102074","5","green","2"
"100","88","20","617.395582657","1","1","5","431","1","left","1","out","Female","Right-handed","1","no","left","d","1051.20482507","615.006000553","5","red","3"
"100","88","20","621.164546524","1","1","5","432","1","left","1","out","Female","Right-handed","1","no","left","s","654.660322526","783.654891558","5","green","2"
"100","89","20","616.919275268","1","1","5","433","2","left","0","in","Female","Right-handed","1","no","left","s","589.251409376","415.342493347","5","green","1"
"100","89","20","618.760424162","1","1","5","434","1","left","3","out","Female","Right-handed","1","no","left","s","445.773089941","894.852096473","5","green","1"
"100","90","20","610.836808266","1","1","5","435","0","left","1","out","Female","Right-handed","1","no","left","s","410.462514024","351.64138053","5","red","3"
"100","90","20","608.751990727","1","1","5","436","2","left","0","out","Female","Right-handed","1","no","left","d","629.136645195","463.2782839","5","green","1"
"100","87","20","616.457370257","1","0","5","437","1","left","3","in","Female","Right-handed","1","no","left","s","1047.78922441","662.859046981","5","red","2"
"100","87","20","619.604733415","1","1","5","438","3","left","1","out","Female","Right-handed","1","no","left","s","1161.25644073","279.384268226","5","red","0"
"100","88","20","614.937594212","1","1","5","439","0","left","1","in","Female","Right-handed","1","no","left","s","402.897840508","518.946160511","5","green","0"
"100","85","20","608.674219138","1","0","5","440","1","left","0","out","Female","Right-handed","1","no","left","s","495.656895379","295.782037854","5","green","1"
"100","86","20","609.67379713","1","1","5","441","2","right","3","out","Female","Right-handed","1","no","right","s","762.14205948","527.175994197","5","green","1"
"100","86","20","605.393661217","1","1","5","442","3","right","1","in","Female","Right-handed","1","no","right","s","631.629231899","270.988304855","5","red","2"
"100","86","20","609.001907132","1","1","5","443","1","left","0","in","Female","Right-handed","1","no","left","s","653.446741966","831.567270016","5","red","3"
"100","84","20","605.593535182","1","0","5","444","2","left","1","out","Female","Right-handed","1","no","left","s","473.091801727","479.059000412","5","green","2"
"100","85","20","611.947995636","1","1","5","445","1","right","2","in","Female","Right-handed","1","no","right","s","1120.79039244","598.753514223","5","red","3"
"100","85","20","611.650823124","1","1","5","446","1","right","1","out","Female","Right-handed","1","no","right","s","744.227955583","455.299889741","5","green","3"
"100","83","20","614.597159338","1","0","5","447","0","left","1","out","Female","Right-handed","1","no","left","s","447.875688813","1022.91819941","5","red","2"
"100","83","20","618.315344305","1","1","5","448","2","right","1","in","Female","Right-handed","1","no","right","s","909.522181522","639.436044243","5","green","0"
"100","84","20","616.695866432","1","1","5","449","1","left","2","out","Female","Right-handed","1","no","left","d","647.055239082","447.061396786","5","red","1"
"100","84","20","616.772466546","1","1","5","450","1","right","1","in","Female","Right-handed","1","no","right","d","705.644496586","534.641246472","5","green","3"
"100","84","20","615.088730738","1","1","5","451","0","right","0","out","Female","Right-handed","1","no","right","d","463.26609678","615.375141995","5","red","1"
"100","85","20","616.787428559","1","1","5","452","3","right","3","in","Female","Right-handed","1","no","right","s","678.90916298","710.94589368","5","red","1"
"100","83","20","619.760911562","1","0","5","453","1","left","1","in","Female","Right-handed","1","no","left","s","632.635310707","886.39391465","5","red","2"
"100","83","20","624.166378428","1","1","5","454","0","left","1","in","Female","Right-handed","1","no","left","d","1048.08877098","623.16880508","5","green","0"
"100","84","20","621.567533","1","1","5","455","3","left","1","out","Female","Right-handed","1","no","left","d","421.713149837","566.735064203","5","green","3"
"100","84","20","619.474601697","1","1","5","456","2","left","2","out","Female","Right-handed","1","no","left","d","446.309323212","583.346749852","5","green","3"
"100","84","20","618.821450999","1","1","5","457","0","right","0","out","Female","Right-handed","1","no","right","d","771.994383664","399.02714713","5","green","2"
"100","84","20","620.355374597","1","1","5","458","1","left","0","in","Female","Right-handed","1","no","left","s","841.700539378","558.538264032","5","green","1"
"100","85","20","619.129535091","1","1","5","459","1","left","2","in","Female","Right-handed","1","no","left","s","709.080622928","399.239459584","5","green","0"
"100","85","20","619.179246467","1","1","5","460","3","right","2","out","Female","Right-handed","1","no","right","s","908.85702135","334.870300179","5","red","1"
"100","85","20","615.863709195","1","1","5","461","2","left","0","in","Female","Right-handed","1","no","left","s","395.423287533","471.595030991","5","green","2"
"100","85","20","613.518218242","1","1","5","462","3","right","1","in","Female","Right-handed","1","no","right","d","509.206727547","455.134722193","5","red","3"
"100","84","20","620.072859181","1","0","5","463","1","right","1","out","Female","Right-handed","1","no","right","s","740.599721747","1246.77506361","5","red","0"
"100","84","20","621.253685095","1","1","5","464","2","left","3","out","Female","Right-handed","1","no","left","d","828.201700679","551.28147564","5","red","1"
"100","85","20","617.307377762","1","1","5","465","2","left","1","out","Female","Right-handed","1","no","left","s","345.993933381","422.956556766","5","red","3"
"100","85","20","619.277278457","1","1","5","466","2","right","1","out","Female","Right-handed","1","no","right","s","852.518532443","622.424107922","5","red","0"
"100","85","20","621.710419116","1","1","5","467","0","right","0","out","Female","Right-handed","1","no","right","d","997.2049803","543.059018371","5","red","1"
"100","85","20","619.91763635","1","1","5","468","0","left","0","in","Female","Right-handed","1","no","left","s","658.73851765","358.791691979","5","green","3"
"100","84","20","617.306775421","1","0","5","469","0","left","2","in","Female","Right-handed","1","no","left","s","587.306922349","318.338151523","5","green","0"
"100","84","20","615.870637227","1","1","5","470","0","right","1","in","Female","Right-handed","1","no","right","d","624.866021862","423.049563735","5","green","3"
"100","84","20","617.433973169","1","1","5","471","3","right","1","in","Female","Right-handed","1","no","right","d","543.580178099","894.521440671","5","green","2"
"100","85","20","615.750889184","1","1","5","472","2","right","0","out","Female","Right-handed","1","no","right","d","466.174007696","543.16068461","5","green","3"
"100","85","20","615.376809236","1","1","5","473","3","left","2","in","Female","Right-handed","1","no","left","s","773.865747971","406.761157468","5","green","0"
"100","85","20","615.695737149","1","1","5","474","2","left","1","in","Female","Right-handed","1","no","left","s","444.450466733","830.315203817","5","green","3"
"100","85","20","619.242967276","1","1","5","475","1","right","0","in","Female","Right-handed","1","no","right","s","1080.99463574","647.009056312","5","red","2"
"100","85","20","621.437854638","1","1","5","476","2","right","3","out","Female","Right-handed","1","no","right","d","1111.61220842","438.547731497","5","green","0"
"100","86","20","623.205413209","1","1","5","477","3","right","2","in","Female","Right-handed","1","no","right","s","770.186199944","727.217943546","5","red","1"
"100","86","20","623.870124615","1","1","5","478","1","left","1","in","Female","Right-handed","1","no","left","d","816.663705413","526.794986348","5","red","3"
"100","85","20","621.933147286","1","0","5","479","0","left","2","out","Female","Right-handed","1","no","left","s","498.524396367","462.543208148","5","red","3"
"100","85","20","618.960879132","1","1","5","480","3","left","1","in","Female","Right-handed","1","no","left","s","478.956372037","319.069699421","5","red","2"
"100","85","20","618.297978758","1","1","5","481","3","right","3","out","Female","Right-handed","1","no","right","s","618.508835341","518.652066072","5","red","2"
"98","85","20","618.576878705","0","1","5","482","3","left","0","in","Female","Right-handed","1","no","right","d","510.301002614","769.24554673","5","red","1"
"98","85","20","617.228957511","1","1","5","483","2","left","1","in","Female","Right-handed","1","no","left","d","587.877792692","439.000258495","5","red","3"
"98","86","20","616.726532002","1","1","5","484","2","left","2","in","Female","Right-handed","1","no","left","d","740.559311823","414.515372766","5","green","1"
"98","86","20","615.614093731","1","1","5","485","2","left","1","out","Female","Right-handed","1","no","left","d","409.177414316","646.285526258","5","red","2"
"98","86","20","613.703542714","1","1","5","486","0","right","1","out","Female","Right-handed","1","no","right","s","434.899934124","486.818988557","5","red","2"
"98","86","20","611.839852548","1","1","5","487","0","right","1","out","Female","Right-handed","1","no","right","d","483.364581534","438.397316782","5","red","0"
"98","86","20","612.106907331","1","1","5","488","3","right","1","out","Female","Right-handed","1","no","right","d","852.999602954","415.011196114","5","green","0"
"98","86","20","609.274623778","1","1","5","489","0","right","3","in","Female","Right-handed","1","no","right","s","437.696557394","310.6936203","5","green","0"
"98","87","20","609.322625924","1","1","5","490","0","right","3","in","Female","Right-handed","1","no","right","d","828.328382584","398.381229785","5","red","1"
"98","87","20","609.433249855","1","1","5","491","3","right","3","in","Female","Right-handed","1","no","right","s","814.783681832","422.88888618","5","red","1"
"98","86","20","607.738269195","1","0","5","492","1","right","1","in","Female","Right-handed","1","no","right","d","445.476429792","478.463435112","5","red","0"
"98","86","20","605.770665711","1","1","5","493","0","left","1","in","Female","Right-handed","1","no","left","d","463.103174228","406.075150914","5","red","2"
"98","86","20","604.045779982","1","1","5","494","0","left","3","out","Female","Right-handed","1","no","left","s","617.833412336","286.678259396","5","green","1"
"98","86","20","602.594523764","1","1","5","495","3","right","1","in","Female","Right-handed","1","no","right","s","612.428424727","334.437016005","5","red","0"
"98","86","20","602.950198953","1","1","5","496","2","right","1","out","Female","Right-handed","1","no","right","d","679.996703064","589.925228815","5","red","0"
"98","86","20","602.398099225","1","1","5","497","1","left","1","in","Female","Right-handed","1","no","left","d","473.668444916","630.645603051","5","red","0"
"98","87","20","600.821677754","1","1","5","498","0","right","1","in","Female","Right-handed","1","no","right","d","393.236340966","518.345463796","5","red","0"
"98","87","20","600.966242415","1","1","5","499","0","left","2","in","Female","Right-handed","1","no","left","d","478.942581347","749.878930587","5","red","1"
"98","87","20","600.647478716","1","1","5","500","0","left","3","in","Female","Right-handed","1","no","left","s","470.734876908","670.632505102","5","green","2"
"98","87","20","603.689458077","1","1","5","501","1","left","3","in","Female","Right-handed","1","no","left","s","651.134717064","1134.2202777","5","red","1"
dis_reply=No
dis_loc=0
