"acc_1","acc_2","age","avg_rt","correct_1","correct_2","count_block_loop","count_trial_sequence","cue_position","detection","dis_position","dis_shape","gender","hand","high_loc","practice","response_keyboard_response_1","response_keyboard_response_2","response_time_keyboard_response_1","response_time_keyboard_response_2","subject_nr","tar_color","tar_position"
"0","0","19","1870.64775465","0","0","0","0","2","left","1","out","Female","Right-handed","1","yes","right","None","741.151507513","3000.14400178","25","green","2"
"50","50","19","1443.11031659","1","1","0","1","3","left","0","out","Female","Right-handed","1","yes","left","s","1101.57385287","929.571904194","25","red","1"
"66","33","19","1160.27563886","1","0","0","2","2","left","3","in","Female","Right-handed","1","yes","left","s","524.082132971","665.130433862","25","green","2"
"75","50","19","1107.76212092","1","1","0","3","1","right","2","in","Female","Right-handed","1","yes","right","s","986.767872016","913.675262194","25","red","1"
"80","60","19","1070.58935214","1","1","0","4","0","left","0","in","Female","Right-handed","1","yes","left","s","1202.4020395","641.394514526","25","red","3"
"83","66","19","978.393372027","1","1","0","5","0","left","2","in","Female","Right-handed","1","yes","left","s","536.863974763","497.96296813","25","green","3"
"85","71","19","917.76504105","1","1","0","6","2","left","3","out","Female","Right-handed","1","yes","left","s","618.448841042","489.541269339","25","green","0"
"87","62","19","871.619205412","1","0","0","7","3","left","0","out","Female","Right-handed","1","yes","left","s","520.058742464","577.137969421","25","red","3"
"88","66","19","832.530918066","1","1","0","8","3","left","0","in","Female","Right-handed","1","yes","left","s","565.880493917","473.768744686","25","red","3"
"90","70","19","840.108280359","1","1","0","9","3","right","3","out","Female","Right-handed","1","yes","right","d","831.318430913","985.290651077","25","red","0"
"90","63","19","820.684472331","1","0","0","10","0","left","2","out","Female","Right-handed","1","yes","left","s","755.891003801","497.001780298","25","red","0"
"91","66","19","815.469522242","1","1","0","11","1","left","3","out","Female","Right-handed","1","yes","left","s","842.61503385","673.595108686","25","green","1"
"92","69","19","787.099164925","1","1","0","12","2","right","2","in","Female","Right-handed","1","yes","right","s","572.113942932","321.195811312","25","green","3"
"85","64","19","788.506181516","0","0","0","13","1","right","1","out","Female","Right-handed","1","yes","left","s","985.771084635","627.823709749","25","green","2"
"86","60","19","778.866771199","1","0","0","14","1","right","0","in","Female","Right-handed","1","yes","right","s","654.472698513","633.357355011","25","green","1"
"87","62","19","759.745977973","1","1","0","15","3","right","2","out","Female","Right-handed","1","yes","right","s","576.908977725","368.959181429","25","green","0"
"88","64","19","754.440638167","1","1","0","16","3","left","1","in","Female","Right-handed","1","yes","left","d","857.609179167","481.501223374","25","red","2"
"88","61","19","746.480214829","1","0","0","17","0","right","0","out","Female","Right-handed","1","yes","right","s","405.138907196","817.16712898","25","green","1"
"89","57","19","736.445218396","1","0","0","18","2","right","0","in","Female","Right-handed","1","yes","right","d","494.833414956","616.79715024","25","green","2"
"90","60","19","725.51190388","1","1","0","19","2","right","1","out","Female","Right-handed","1","yes","right","s","522.274253155","513.283603008","25","red","3"
"90","61","19","716.869468793","1","1","0","20","1","right","3","out","Female","Right-handed","1","yes","right","d","383.00111898","705.04041511","25","green","0"
"90","59","19","702.904412994","1","0","0","21","1","right","2","out","Female","Right-handed","1","yes","right","s","417.602598062","401.673884395","25","red","0"
"100","100","19","815.935737361","1","1","1","22","2","left","3","out","Female","Right-handed","1","no","left","d","1221.89134953","409.980125189","25","red","1"
"100","100","19","598.933713318","1","1","1","23","0","right","1","in","Female","Right-handed","1","no","right","s","370.499904266","393.363474285","25","green","0"
"66","100","19","568.663405833","0","1","1","24","1","left","1","in","Female","Right-handed","1","no","right","s","492.13714999","524.108431737","25","red","2"
"75","100","19","549.928849009","1","1","1","25","1","right","1","in","Female","Right-handed","1","no","right","d","465.817857953","521.632499117","25","red","0"
"80","100","19","518.021742665","1","1","1","26","3","left","1","in","Female","Right-handed","1","no","left","d","467.470831621","313.315802961","25","green","3"
"83","83","19","509.016948913","1","0","1","27","0","right","2","out","Female","Right-handed","1","no","right","d","414.975607894","513.010352413","25","red","0"
"85","71","19","506.526263327","1","0","1","28","0","right","1","in","Female","Right-handed","1","no","right","s","333.460016414","649.704283203","25","green","2"
"75","75","19","532.850145621","0","1","1","29","0","left","0","out","Female","Right-handed","1","no","right","d","518.123217417","916.111425948","25","green","1"
"77","77","19","532.455118465","1","1","1","30","3","left","3","out","Female","Right-handed","1","no","left","d","529.802756047","528.787046382","25","green","1"
"80","80","19","532.952562478","1","1","1","31","0","left","1","in","Female","Right-handed","1","no","left","d","481.359787326","593.499329863","25","green","3"
"81","81","19","523.646628902","1","1","1","32","3","left","3","out","Female","Right-handed","1","no","left","s","444.092832079","417.081754205","25","red","1"
"83","75","19","527.028102584","1","0","1","33","0","left","1","out","Female","Right-handed","1","no","left","d","559.879243763","568.569382399","25","red","0"
"84","69","19","535.35569365","1","0","1","34","3","left","1","in","Female","Right-handed","1","no","left","s","589.268435676","681.305137207","25","red","0"
"85","64","19","557.138937527","1","0","1","35","2","right","1","in","Female","Right-handed","1","no","right","s","583.792840129","1096.84937574","25","red","3"
"86","66","19","555.61879019","1","1","1","36","0","left","2","in","Female","Right-handed","1","no","left","d","451.412869141","617.260585815","25","green","3"
"87","68","19","563.052775209","1","1","1","37","3","right","1","in","Female","Right-handed","1","no","right","d","388.066517918","961.058583067","25","green","3"
"88","70","19","561.416061404","1","1","1","38","0","right","2","in","Female","Right-handed","1","no","right","s","389.672025521","680.7852555","25","red","1"
"88","66","19","555.689125136","1","0","1","39","0","left","1","in","Female","Right-handed","1","no","left","s","411.327776596","505.334640574","25","green","3"
"89","63","19","553.890974194","1","0","1","40","2","right","1","out","Female","Right-handed","1","no","right","d","403.146294584","639.902219904","25","green","0"
"90","65","19","546.472910507","1","1","1","41","1","right","1","out","Female","Right-handed","1","no","right","s","449.51518866","361.544212235","25","red","3"
"90","61","19","543.720683156","1","0","1","42","0","right","1","out","Female","Right-handed","1","no","right","s","584.083409423","393.26886287","25","red","2"
"90","63","19","544.954788718","1","1","1","43","0","left","1","in","Female","Right-handed","1","no","left","d","548.781805872","592.960205156","25","red","3"
"91","65","19","544.020244138","1","1","1","44","2","right","1","out","Female","Right-handed","1","no","right","s","413.531420771","633.38910596","25","green","3"
"91","62","19","535.772221843","1","0","1","45","1","right","1","in","Female","Right-handed","1","no","right","d","363.140739771","328.994678348","25","green","3"
"88","60","19","534.507060096","0","0","1","46","0","left","0","in","Female","Right-handed","1","no","right","s","476.652308182","531.634048179","25","green","2"
"88","61","19","526.302559262","1","1","1","47","1","right","1","out","Female","Right-handed","1","no","right","s","377.078444409","265.301632416","25","red","2"
"85","59","19","526.991490401","0","0","1","48","1","left","1","in","Female","Right-handed","1","no","right","s","589.931998446","499.875401577","25","red","2"
"82","60","19","531.598064915","0","1","1","49","2","right","2","in","Female","Right-handed","1","no","left","s","676.560134214","635.391019356","25","green","1"
"82","62","19","538.822414463","1","1","1","50","3","left","1","out","Female","Right-handed","1","no","left","s","977.160163014","505.048240597","25","green","0"
"80","63","19","533.216726101","0","1","1","51","2","left","2","out","Female","Right-handed","1","no","right","s","449.735200289","291.568326921","25","green","0"
"80","64","19","532.398310808","1","1","1","52","2","left","2","in","Female","Right-handed","1","no","left","d","566.250280226","449.441423828","25","red","1"
"81","65","19","542.431114872","1","1","1","53","0","right","2","out","Female","Right-handed","1","no","right","s","489.887001899","1217.00907981","25","red","1"
"81","66","19","538.176429948","1","1","1","54","1","left","1","out","Female","Right-handed","1","no","left","d","530.541045799","273.511978928","25","green","0"
"82","67","19","533.368870626","1","1","1","55","1","left","3","in","Female","Right-handed","1","no","left","d","452.172005477","297.266820546","25","red","1"
"80","68","19","535.465430203","0","1","1","56","3","left","1","out","Female","Right-handed","1","no","right","s","329.825013783","883.671897876","25","green","2"
"80","69","19","542.032497471","1","1","1","57","2","right","0","out","Female","Right-handed","1","no","right","s","622.388524501","921.371179182","25","green","1"
"81","70","19","542.044445972","1","1","1","58","3","right","1","out","Female","Right-handed","1","no","right","s","675.947886108","409.00129794","25","green","2"
"78","68","19","542.442807315","0","0","1","59","2","left","3","in","Female","Right-handed","1","no","right","s","494.664717992","619.699636019","25","red","2"
"79","66","19","546.053119741","1","0","1","60","3","right","0","out","Female","Right-handed","1","no","right","s","781.286952573","585.203031286","25","red","1"
"80","65","19","549.048016736","1","0","1","61","3","left","0","out","Female","Right-handed","1","no","left","d","778.815189269","552.882809812","25","red","3"
"80","65","19","545.874556278","1","1","1","62","1","right","3","out","Female","Right-handed","1","no","right","s","524.33581985","313.536456023","25","green","2"
"80","66","19","547.994549558","1","1","1","63","2","left","1","out","Female","Right-handed","1","no","left","s","637.019939275","632.808608805","25","green","2"
"81","67","19","547.64760259","1","1","1","64","2","right","1","out","Female","Right-handed","1","no","right","d","417.598749462","648.552910391","25","green","2"
"81","68","19","551.342451425","1","1","1","65","2","right","0","in","Female","Right-handed","1","no","right","d","955.182733128","465.25916953","25","red","1"
"82","66","19","552.809540309","1","0","1","66","0","right","1","out","Female","Right-handed","1","no","right","s","537.910473227","696.812429182","25","green","2"
"82","65","19","552.301423713","1","0","1","67","1","right","0","out","Female","Right-handed","1","no","right","s","538.397641834","520.474711972","25","red","3"
"82","65","19","552.553737458","1","1","1","68","1","right","1","in","Female","Right-handed","1","no","right","s","519.099158215","609.221181283","25","red","0"
"83","66","19","550.16133518","1","1","1","69","3","right","2","in","Female","Right-handed","1","no","right","s","426.666692324","448.770163857","25","green","3"
"83","67","19","551.44181022","1","1","1","70","1","left","0","out","Female","Right-handed","1","no","left","s","720.383179437","505.426044823","25","red","1"
"84","66","19","550.772394762","1","0","1","71","2","right","1","in","Female","Right-handed","1","no","right","d","669.003087539","366.938987183","25","red","2"
"84","66","19","551.004007594","1","1","1","72","2","left","0","in","Female","Right-handed","1","no","left","s","572.587962157","552.581336151","25","red","3"
"84","67","19","556.121727367","1","1","1","73","2","right","1","out","Female","Right-handed","1","no","right","d","625.161761466","1009.08911016","25","red","2"
"84","67","19","553.992807148","1","1","1","74","2","right","1","out","Female","Right-handed","1","no","right","s","461.791260279","424.786651259","25","green","0"
"85","68","19","554.704762556","1","1","1","75","1","right","3","in","Female","Right-handed","1","no","right","s","664.358148144","520.518650155","25","green","1"
"85","69","19","555.792068543","1","1","1","76","0","left","3","in","Female","Right-handed","1","no","left","d","572.125488732","656.887694968","25","green","2"
"85","69","19","554.486771102","1","1","1","77","1","left","2","out","Female","Right-handed","1","no","left","s","508.721087794","456.669735925","25","red","3"
"85","68","19","553.752832526","1","0","1","78","2","left","1","out","Female","Right-handed","1","no","left","s","568.240327106","457.064217418","25","red","0"
"86","68","19","554.005904261","1","1","1","79","0","left","1","in","Female","Right-handed","1","no","left","d","416.007032675","720.854953645","25","green","0"
"86","69","19","566.446110363","1","1","1","80","1","right","2","out","Female","Right-handed","1","no","right","s","1695.54431551","880.411813021","25","green","1"
"86","68","19","566.931602682","1","0","1","81","3","left","0","out","Female","Right-handed","1","no","left","s","774.063451226","417.087847821","25","green","2"
"86","67","19","567.53336769","1","0","1","82","0","left","3","out","Female","Right-handed","1","no","left","s","758.64660135","448.631934977","25","red","1"
"87","66","19","570.407523384","1","0","1","83","1","right","0","out","Female","Right-handed","1","no","right","s","843.166987223","648.295054196","25","red","1"
"87","66","19","569.992511673","1","1","1","84","1","right","1","in","Female","Right-handed","1","no","right","d","527.861778816","560.661792415","25","red","0"
"87","65","19","568.249537687","1","0","1","85","2","left","2","in","Female","Right-handed","1","no","left","d","484.394087652","432.490265448","25","red","3"
"87","64","19","566.954981076","1","0","1","86","3","left","1","out","Female","Right-handed","1","no","left","s","519.111024731","449.095691268","25","red","2"
"86","63","19","566.99463201","0","0","1","87","3","right","2","in","Female","Right-handed","1","no","left","d","511.495607625","627.648277736","25","green","1"
"86","64","19","568.998556339","1","1","1","88","1","right","2","in","Female","Right-handed","1","no","right","s","874.196965571","528.318158624","25","green","0"
"86","64","19","574.864625969","1","1","1","89","0","right","1","out","Female","Right-handed","1","no","right","s","574.898084263","1360.88449806","25","red","3"
"86","65","19","574.170496686","1","1","1","90","3","left","1","in","Female","Right-handed","1","no","left","d","549.510153408","504.429257442","25","green","0"
"87","64","19","572.069390806","1","0","1","91","0","left","0","out","Female","Right-handed","1","no","left","s","477.10580154","377.080368709","25","green","3"
"87","64","19","571.846912434","1","1","1","92","0","right","1","in","Female","Right-handed","1","no","right","s","607.707398645","504.83945405","25","red","2"
"87","65","19","572.298615594","1","1","1","93","3","right","1","in","Female","Right-handed","1","no","right","s","552.429316454","656.309763545","25","green","3"
"87","65","19","572.70528075","1","1","1","94","3","left","2","out","Female","Right-handed","1","no","left","s","594.902465253","609.067878719","25","green","1"
"87","64","19","571.292507385","1","0","1","95","1","left","1","in","Female","Right-handed","1","no","left","s","519.766890303","416.553213148","25","red","3"
"88","64","19","572.491751435","1","0","1","96","3","left","1","out","Female","Right-handed","1","no","left","s","466.246976845","856.224645343","25","green","2"
"88","63","19","571.778454315","1","0","1","97","2","right","1","out","Female","Right-handed","1","no","right","s","443.739723036","592.822617709","25","red","3"
"87","63","19","572.889427487","0","1","1","98","1","left","1","in","Female","Right-handed","1","no","right","s","495.487356227","819.159420876","25","red","2"
"87","64","19","573.967109585","1","1","1","99","0","right","1","in","Female","Right-handed","1","no","right","d","576.976648941","736.920613326","25","red","0"
"87","64","19","574.360583438","1","1","1","100","0","right","3","in","Female","Right-handed","1","no","right","s","537.534272584","672.568815372","25","green","1"
"87","65","19","575.140748511","1","1","1","101","2","right","3","out","Female","Right-handed","1","no","right","s","569.260526803","704.287051674","25","green","1"
"87","65","19","575.821975915","1","1","1","102","3","left","3","out","Female","Right-handed","1","no","left","s","579.923072902","680.717263569","25","red","0"
"87","65","19","574.394236434","1","1","1","103","1","right","0","in","Female","Right-handed","1","no","right","s","565.355160026","352.139516879","25","green","2"
"87","66","19","573.498834181","1","1","1","104","2","left","1","out","Female","Right-handed","1","no","left","d","472.149446267","528.002252714","25","red","3"
"88","65","19","572.173997127","1","0","1","105","3","left","1","out","Female","Right-handed","1","no","left","d","475.673480933","448.751562291","25","green","3"
"88","64","19","570.269607065","1","0","1","106","3","left","1","out","Female","Right-handed","1","no","left","s","508.184528821","312.417154878","25","red","0"
"88","65","19","571.848352245","1","1","1","107","3","right","3","out","Female","Right-handed","1","no","right","d","612.033224963","800.050160086","25","green","2"
"88","64","19","571.798840656","1","0","1","108","1","left","3","in","Female","Right-handed","1","no","left","s","494.554391461","640.527296676","25","green","0"
"88","64","19","574.228919884","1","1","1","109","2","left","0","in","Female","Right-handed","1","no","left","d","579.117753367","992.173872047","25","green","2"
"88","65","19","573.240125072","1","1","1","110","3","left","2","in","Female","Right-handed","1","no","left","s","547.720875159","424.731487994","25","green","0"
"88","65","19","573.708036586","1","1","1","111","0","right","3","in","Female","Right-handed","1","no","right","s","830.300476232","400.403846419","25","red","0"
"87","65","19","579.688336501","0","1","1","112","0","right","0","out","Female","Right-handed","1","no","left","s","968.932497802","1266.89815995","25","green","1"
"88","65","19","588.105440371","1","0","1","113","2","right","3","in","Female","Right-handed","1","no","right","s","595.561858707","2112.56192638","25","red","0"
"88","64","19","587.298975013","1","0","1","114","1","left","1","in","Female","Right-handed","1","no","left","d","474.187921362","552.020402711","25","green","3"
"88","64","19","589.638363578","1","1","1","115","1","right","2","in","Female","Right-handed","1","no","right","s","669.66376386","944.739236508","25","red","1"
"88","65","19","591.902996444","1","1","1","116","2","right","1","out","Female","Right-handed","1","no","right","d","529.140476142","1080.41649548","25","red","0"
"88","64","19","590.059374743","1","0","1","117","3","left","0","in","Female","Right-handed","1","no","left","s","478.010863956","351.819762368","25","red","1"
"100","100","19","709.158898107","1","1","2","118","0","right","1","in","Female","Right-handed","1","no","right","d","921.693499426","496.624296789","25","red","2"
"100","100","19","790.442370904","1","1","2","119","1","right","2","out","Female","Right-handed","1","no","right","d","1222.21142476","521.240262641","25","red","1"
"100","100","19","719.63671141","1","1","2","120","2","right","3","in","Female","Right-handed","1","no","right","d","642.97115763","513.079627212","25","green","2"
"100","100","19","659.103366018","1","1","2","121","2","right","2","in","Female","Right-handed","1","no","right","s","577.479853381","377.5268063","25","red","0"
"100","100","19","632.721630447","1","1","2","122","3","right","3","out","Female","Right-handed","1","no","right","s","453.086368676","601.303007649","25","green","0"
"100","83","19","641.981212204","1","0","2","123","1","right","0","out","Female","Right-handed","1","no","right","s","527.710721269","848.847520716","25","red","1"
"100","85","19","632.6139567","1","1","2","124","0","left","1","in","Female","Right-handed","1","no","left","s","535.368793692","617.452053661","25","green","0"
"100","87","19","613.665973438","1","1","2","125","0","right","3","in","Female","Right-handed","1","no","right","d","480.977493067","481.082688132","25","green","0"
"100","88","19","611.943584657","1","1","2","126","3","left","2","out","Female","Right-handed","1","no","left","d","459.693131885","736.635816931","25","red","1"
"100","90","19","605.225965734","1","1","2","127","1","left","1","in","Female","Right-handed","1","no","left","s","640.266874748","449.267916115","25","green","2"
"100","81","19","590.066189213","1","0","2","128","1","right","0","out","Female","Right-handed","1","no","right","s","483.917823412","393.019024592","25","red","2"
"100","83","19","581.896175251","1","1","2","129","3","left","1","in","Female","Right-handed","1","no","left","s","591.559635499","392.492407835","25","green","0"
"100","76","19","584.875838616","1","0","2","130","2","right","1","in","Female","Right-handed","1","no","right","d","496.051176116","745.212421869","25","red","3"
"100","78","19","577.218950378","1","1","2","131","3","right","1","out","Female","Right-handed","1","no","right","s","546.711579828","408.647226747","25","red","3"
"100","73","19","570.796887894","1","0","2","132","1","right","1","in","Female","Right-handed","1","no","right","s","536.462758221","425.313268016","25","green","0"
"100","75","19","569.7817916","1","1","2","133","0","right","1","in","Female","Right-handed","1","no","right","d","516.034389806","593.076304587","25","green","3"
"100","76","19","568.447538367","1","1","2","134","2","left","3","out","Female","Right-handed","1","no","left","d","445.565562984","648.633410273","25","red","0"
"100","77","19","564.155011556","1","1","2","135","0","left","1","in","Female","Right-handed","1","no","left","s","437.10377461","545.260336938","25","red","3"
"100","73","19","561.557773486","1","0","2","136","1","left","0","out","Female","Right-handed","1","no","left","s","412.772284436","616.842692006","25","green","3"
"100","75","19","554.751593721","1","1","2","137","3","right","1","in","Female","Right-handed","1","no","right","s","466.488797207","384.379559188","25","green","0"
"100","76","19","548.41210356","1","1","2","138","3","right","1","out","Female","Right-handed","1","no","right","s","450.049823333","393.194777322","25","red","0"
"100","77","19","541.091406668","1","1","2","139","1","right","1","out","Female","Right-handed","1","no","right","s","381.871234185","392.842309712","25","green","0"
"100","73","19","548.169871512","1","0","2","140","2","right","0","in","Female","Right-handed","1","no","right","d","807.363141381","600.429054748","25","red","2"
"100","75","19","555.306646019","1","1","2","141","3","right","3","in","Female","Right-handed","1","no","right","d","821.969540256","616.935379121","25","red","1"
"100","76","19","555.737079047","1","1","2","142","1","left","1","out","Female","Right-handed","1","no","left","d","627.58445512","504.550488339","25","red","2"
"100","73","19","554.949187256","1","0","2","143","0","left","1","out","Female","Right-handed","1","no","left","s","477.299514403","593.204270535","25","green","3"
"100","74","19","558.481144812","1","1","2","144","3","right","2","out","Female","Right-handed","1","no","right","d","611.902051849","688.722030701","25","green","0"
"100","75","19","561.353944785","1","1","2","145","3","left","3","in","Female","Right-handed","1","no","left","d","549.386677494","728.452410619","25","red","2"
"100","75","19","560.293349797","1","1","2","146","0","left","2","out","Female","Right-handed","1","no","left","s","484.117309175","577.076071105","25","red","1"
"100","76","19","561.636690884","1","1","2","147","3","left","2","out","Female","Right-handed","1","no","left","s","672.667275387","528.519889404","25","green","1"
"100","77","19","562.947017597","1","1","2","148","1","left","1","in","Female","Right-handed","1","no","left","d","612.221164926","592.292473068","25","green","3"
"100","78","19","561.460722672","1","1","2","149","2","left","1","in","Female","Right-handed","1","no","left","d","605.863598563","424.90756144","25","red","2"
"100","78","19","564.140377643","1","1","2","150","2","left","1","out","Female","Right-handed","1","no","left","s","755.183823565","544.594849868","25","green","0"
"100","79","19","561.699914514","1","1","2","151","3","right","2","in","Female","Right-handed","1","no","right","s","377.141304874","585.187957602","25","green","3"
"100","80","19","557.804280275","1","1","2","152","2","right","1","out","Female","Right-handed","1","no","right","d","433.796865123","416.908567208","25","green","3"
"100","80","19","559.625792967","1","1","2","153","0","left","3","out","Female","Right-handed","1","no","left","s","726.433819957","520.323654425","25","green","1"
"100","81","19","558.366540293","1","1","2","154","3","right","0","in","Female","Right-handed","1","no","right","d","569.088622673","456.978265353","25","red","1"
"100","81","19","562.715429812","1","1","2","155","0","left","2","in","Female","Right-handed","1","no","left","d","574.667809701","872.580874318","25","red","1"
"100","82","19","568.521825875","1","1","2","156","2","right","1","out","Female","Right-handed","1","no","right","d","810.213671061","768.116081471","25","green","0"
"100","82","19","565.880630221","1","1","2","157","3","right","1","out","Female","Right-handed","1","no","right","d","412.782868086","512.965131364","25","red","2"
"100","82","19","565.945020544","1","1","2","158","1","right","3","in","Female","Right-handed","1","no","right","s","616.609530994","520.43173594","25","red","0"
"100","83","19","566.852456301","1","1","2","159","2","left","1","out","Female","Right-handed","1","no","left","d","471.022127205","737.092517456","25","green","3"
"100","83","19","574.75753951","1","1","2","160","0","left","0","in","Female","Right-handed","1","no","left","d","1108.80793787","704.734130699","25","red","2"
"100","84","19","578.556036358","1","1","2","161","2","left","3","in","Female","Right-handed","1","no","left","s","683.4532974","800.329504297","25","green","1"
"97","84","19","584.950645091","0","1","2","162","2","left","1","in","Female","Right-handed","1","no","right","d","832.807839085","899.819019588","25","green","0"
"97","84","19","586.299749795","1","1","2","163","0","left","1","in","Female","Right-handed","1","no","left","d","645.460239633","648.558683291","25","green","2"
"97","85","19","585.242660264","1","1","2","164","0","left","2","in","Female","Right-handed","1","no","left","d","593.060589471","480.172494249","25","red","0"
"97","85","19","583.605140703","1","1","2","165","2","left","1","out","Female","Right-handed","1","no","left","s","460.556501135","552.726941515","25","red","2"
"97","85","19","584.427433676","1","1","2","166","2","right","1","in","Female","Right-handed","1","no","right","d","679.383723694","568.411269085","25","green","3"
"98","86","19","586.217682585","1","1","2","167","3","left","0","in","Female","Right-handed","1","no","left","d","651.017617928","696.862140264","25","red","3"
"98","86","19","584.391960861","1","1","2","168","0","right","0","out","Female","Right-handed","1","no","right","s","617.555645142","368.656104184","25","green","3"
"98","86","19","583.734719486","1","1","2","169","3","left","1","out","Female","Right-handed","1","no","left","d","572.163333298","528.267485392","25","red","3"
"98","86","19","583.226681428","1","1","2","170","1","right","1","in","Female","Right-handed","1","no","right","s","512.782002151","600.835402757","25","green","3"
"98","85","19","584.129144213","1","0","2","171","0","left","1","out","Female","Right-handed","1","no","left","s","527.575699555","736.343644053","25","red","0"
"98","85","19","585.6473434","1","1","2","172","2","left","2","out","Female","Right-handed","1","no","left","d","911.203498891","424.05670014","25","red","1"
"98","85","19","586.440705514","1","1","2","173","1","right","1","out","Female","Right-handed","1","no","right","s","563.624252209","696.526991354","25","red","0"
"98","85","19","587.23611609","1","1","2","174","0","left","1","out","Female","Right-handed","1","no","left","s","703.251457577","560.306759072","25","green","2"
"98","86","19","587.962842387","1","1","2","175","2","left","3","out","Female","Right-handed","1","no","left","s","666.976478961","591.796003678","25","green","1"
"98","86","19","587.353338649","1","1","2","176","2","right","1","in","Female","Right-handed","1","no","right","s","639.495871895","464.508371827","25","red","0"
"98","86","19","588.458222539","1","1","2","177","1","right","1","out","Female","Right-handed","1","no","right","d","635.145350394","672.14739368","25","red","2"
"98","85","19","587.790851959","1","0","2","178","0","right","1","in","Female","Right-handed","1","no","right","d","470.744707293","624.752527007","25","red","0"
"98","85","19","587.783212339","1","1","2","179","1","right","2","out","Female","Right-handed","1","no","right","s","542.303970761","632.330420264","25","red","0"
"98","85","19","586.558334077","1","1","2","180","2","right","1","out","Female","Right-handed","1","no","right","s","469.102637991","552.129125659","25","red","2"
"98","85","19","586.598364241","1","1","2","181","0","left","3","out","Female","Right-handed","1","no","left","d","641.673858738","536.566670419","25","green","2"
"98","86","19","589.776793786","1","1","2","182","3","left","1","in","Female","Right-handed","1","no","left","d","602.133984516","984.258584864","25","red","2"
"98","84","19","592.549274786","1","0","2","183","2","right","0","in","Female","Right-handed","1","no","right","d","1057.76203273","487.759046856","25","green","1"
"98","83","19","593.091763609","1","0","2","184","1","left","1","in","Female","Right-handed","1","no","left","d","633.431761277","624.360290531","25","red","3"
"98","83","19","598.581646604","1","1","2","185","3","left","1","out","Female","Right-handed","1","no","left","d","1436.82026108","495.987353501","25","green","0"
"98","84","19","600.131115943","1","1","2","186","2","left","0","out","Female","Right-handed","1","no","left","s","714.499311581","696.490750371","25","green","3"
"98","82","19","601.337466363","1","0","2","187","0","right","1","in","Female","Right-handed","1","no","right","s","881.000007376","488.151283332","25","green","2"
"98","83","19","603.280210052","1","1","2","188","3","right","3","in","Female","Right-handed","1","no","right","s","886.770341534","591.774194945","25","red","1"
"98","83","19","604.677459174","1","1","2","189","1","right","2","out","Female","Right-handed","1","no","right","s","559.433447605","848.330846176","25","green","1"
"98","83","19","605.591784603","1","1","2","190","0","right","2","out","Female","Right-handed","1","no","right","d","694.992362133","647.854068788","25","green","3"
"98","83","19","608.56970823","1","1","2","191","1","right","3","out","Female","Right-handed","1","no","right","s","819.568013901","832.34825211","25","green","1"
"98","84","19","609.511284469","1","1","2","192","1","right","1","in","Female","Right-handed","1","no","right","s","934.192789841","424.183062504","25","green","3"
"98","84","19","608.948466622","1","1","2","193","0","left","1","in","Female","Right-handed","1","no","left","d","589.632128369","543.842127865","25","green","3"
"98","84","19","609.200651251","1","1","2","194","3","right","0","in","Female","Right-handed","1","no","right","d","800.402948412","456.330417698","25","green","2"
"98","84","19","608.318857293","1","1","2","195","0","right","3","out","Female","Right-handed","1","no","right","s","624.828216139","456.013228921","25","green","1"
"98","84","19","610.879848687","1","1","2","196","2","left","0","out","Female","Right-handed","1","no","left","s","853.634216876","767.640137946","25","red","1"
"98","85","19","609.758401734","1","1","2","197","0","right","0","out","Female","Right-handed","1","no","right","s","722.095485689","320.23269918","25","green","1"
"98","85","19","613.437023564","1","1","2","198","1","left","3","out","Female","Right-handed","1","no","left","d","1127.65453171","687.799008152","25","red","2"
"98","84","19","610.942733561","1","0","2","199","2","left","1","in","Female","Right-handed","1","no","left","s","457.375633295","360.434853306","25","green","2"
"98","83","19","610.611723714","1","0","2","200","3","left","1","in","Female","Right-handed","1","no","left","s","567.102103677","599.835728927","25","green","3"
"98","83","19","609.830972469","1","1","2","201","1","left","2","out","Female","Right-handed","1","no","left","d","570.635759844","519.421478459","25","green","3"
"98","83","19","609.076904063","1","1","2","202","1","left","1","in","Female","Right-handed","1","no","left","s","635.155613327","456.314702582","25","green","0"
"98","83","19","607.173938689","1","1","2","203","3","left","0","in","Female","Right-handed","1","no","left","s","602.899855902","287.943907939","25","red","1"
"98","83","19","606.022642692","1","1","2","204","2","right","2","out","Female","Right-handed","1","no","right","s","654.509260212","359.513113623","25","green","1"
"98","84","19","607.825067036","1","1","2","205","1","left","1","in","Female","Right-handed","1","no","left","s","857.12778346","672.144186513","25","green","2"
"98","84","19","606.149879623","1","1","2","206","3","right","1","in","Female","Right-handed","1","no","right","s","557.683296788","359.783477768","25","red","3"
"98","84","19","604.485095994","1","1","2","207","2","left","2","out","Female","Right-handed","1","no","left","s","464.316903981","448.321801966","25","red","3"
"98","84","19","604.496580803","1","1","2","208","0","left","0","in","Female","Right-handed","1","no","left","d","579.072211601","631.988215587","25","red","1"
"98","83","19","602.802354551","1","0","2","209","3","left","1","out","Female","Right-handed","1","no","left","d","481.611870622","415.643660698","25","red","2"
"98","83","19","601.89235555","1","1","2","210","0","right","1","out","Female","Right-handed","1","no","right","s","628.207928308","408.13696654","25","red","0"
"98","84","19","600.471525823","1","1","2","211","1","right","0","out","Female","Right-handed","1","no","right","s","512.883348616","423.785373845","25","red","1"
"98","83","19","599.523786398","1","0","2","212","1","right","3","in","Female","Right-handed","1","no","right","s","557.504657608","463.367903382","25","red","1"
"98","83","19","601.263825093","1","1","2","213","3","left","1","in","Female","Right-handed","1","no","left","d","821.058063506","712.076938644","25","red","2"
"100","100","19","516.541763563","1","1","3","214","2","left","1","in","Female","Right-handed","1","no","left","s","648.030142235","385.053384892","25","red","0"
"100","100","19","533.834485187","1","1","3","215","3","right","2","out","Female","Right-handed","1","no","right","d","677.630686427","424.623727196","25","green","1"
"100","66","19","513.991959206","1","0","3","216","2","right","3","out","Female","Right-handed","1","no","right","d","556.329551763","392.284262722","25","green","1"
"100","75","19","506.297071183","1","1","3","217","3","right","1","in","Female","Right-handed","1","no","right","s","549.718298521","416.706515712","25","red","3"
"100","80","19","549.3373192","1","1","3","218","2","right","1","in","Female","Right-handed","1","no","right","d","530.5218028","912.474819733","25","red","3"
"100","83","19","543.713493758","1","1","3","219","0","left","0","out","Female","Right-handed","1","no","left","s","655.088474501","376.100258594","25","red","1"
"100","85","19","568.640100423","1","1","3","220","0","right","1","in","Female","Right-handed","1","no","right","s","779.64969402","656.749786804","25","green","2"
"100","87","19","560.237323915","1","1","3","221","3","left","2","in","Female","Right-handed","1","no","left","s","618.386301294","384.44947542","25","red","1"
"100","88","19","567.536211495","1","1","3","222","0","left","1","out","Female","Right-handed","1","no","left","d","618.91291805","632.941706219","25","red","2"
"100","90","19","565.891510534","1","1","3","223","1","right","1","out","Female","Right-handed","1","no","right","d","621.655045499","480.523358276","25","green","2"
"100","90","19","575.920106214","1","1","3","224","2","right","1","out","Female","Right-handed","1","no","right","s","1024.0778033","328.334322744","25","red","0"
"100","91","19","589.865610098","1","1","3","225","2","right","1","in","Female","Right-handed","1","no","right","d","565.759904452","920.772401177","25","green","3"
"100","92","19","596.319958881","1","1","3","226","1","right","1","out","Female","Right-handed","1","no","right","s","635.275561359","712.268727207","25","red","2"
"100","92","19","590.483287478","1","1","3","227","1","left","1","in","Female","Right-handed","1","no","left","s","460.969263478","568.243854989","25","green","2"
"100","93","19","581.325631002","1","1","3","228","1","right","2","out","Female","Right-handed","1","no","right","d","473.615442122","432.621438562","25","red","0"
"100","93","19","576.009808478","1","1","3","229","1","left","1","in","Female","Right-handed","1","no","left","s","544.232119325","448.3128219","25","red","2"
"100","94","19","571.2098238","1","1","3","230","1","left","3","in","Female","Right-handed","1","no","left","s","588.920458099","399.899679828","25","green","0"
"100","94","19","587.285052576","1","1","3","231","3","left","1","in","Female","Right-handed","1","no","left","d","1168.57509116","552.552792368","25","green","0"
"100","94","19","582.01598543","1","1","3","232","3","left","3","out","Female","Right-handed","1","no","left","d","526.229972447","448.115581153","25","green","1"
"100","95","19","577.035275946","1","1","3","233","2","left","1","in","Female","Right-handed","1","no","left","s","563.885315571","400.918275943","25","red","0"
"100","95","19","582.430458663","1","1","3","234","3","left","3","out","Female","Right-handed","1","no","left","d","676.255453386","704.412772605","25","green","2"
"100","95","19","580.70172922","1","1","3","235","1","right","1","in","Female","Right-handed","1","no","right","d","592.777396659","496.019425167","25","green","0"
"100","91","19","583.720086252","1","0","3","236","3","left","1","out","Female","Right-handed","1","no","left","s","531.56669768","768.681184227","25","green","2"
"100","91","19","579.386427068","1","1","3","237","3","right","1","in","Female","Right-handed","1","no","right","d","599.206803555","360.217728127","25","green","2"
"100","88","19","615.619485077","1","0","3","238","1","right","1","out","Female","Right-handed","1","no","right","d","1026.699662","1943.72609258","25","red","3"
"100","88","19","616.049424016","1","1","3","239","0","right","2","in","Female","Right-handed","1","no","right","s","485.331863168","768.263931851","25","red","0"
"100","88","19","613.304355752","1","1","3","240","2","right","2","out","Female","Right-handed","1","no","right","d","619.976414497","463.888747239","25","green","1"
"100","85","19","612.292358298","1","0","3","241","3","right","0","in","Female","Right-handed","1","no","right","s","441.531909544","728.404944553","25","red","3"
"96","86","19","621.646303205","0","1","3","242","0","right","3","in","Female","Right-handed","1","no","left","d","844.111177072","923.002344118","25","green","1"
"96","86","19","631.764333977","1","1","3","243","2","right","1","out","Female","Right-handed","1","no","right","d","1058.77261093","791.601841812","25","red","0"
"96","87","19","629.510519025","1","1","3","244","1","right","3","out","Female","Right-handed","1","no","right","d","643.402200822","480.389940144","25","green","1"
"96","87","19","628.882235087","1","1","3","245","1","left","2","in","Female","Right-handed","1","no","left","d","682.841049295","535.969816714","25","green","3"
"96","87","19","629.689041581","1","1","3","246","0","left","1","in","Female","Right-handed","1","no","left","s","590.553868051","720.459830719","25","red","3"
"97","88","19","627.43602462","1","1","3","247","2","left","1","out","Female","Right-handed","1","no","left","d","450.04244685","656.130482932","25","red","2"
"97","88","19","619.83253184","1","1","3","248","2","left","1","in","Female","Right-handed","1","no","left","s","370.857182626","351.770372003","25","red","2"
"97","88","19","621.668212699","1","1","3","249","0","right","1","out","Female","Right-handed","1","no","right","d","699.460586648","672.373498926","25","red","2"
"97","86","19","621.53152191","1","0","3","250","1","right","1","in","Female","Right-handed","1","no","right","s","617.111452567","616.109854436","25","green","0"
"97","86","19","623.575783819","1","1","3","251","2","right","0","in","Female","Right-handed","1","no","right","s","918.787485764","479.639463159","25","red","1"
"97","87","19","622.606311673","1","1","3","252","2","left","3","out","Female","Right-handed","1","no","left","s","563.270181016","608.262559184","25","red","2"
"97","87","19","625.638246199","1","1","3","253","0","left","2","out","Female","Right-handed","1","no","left","s","727.839841797","759.927543692","25","green","3"
"97","87","19","623.220623877","1","1","3","254","1","right","1","out","Female","Right-handed","1","no","right","d","452.498815754","600.53264623","25","green","0"
"97","88","19","622.799129642","1","1","3","255","2","right","0","out","Female","Right-handed","1","no","right","s","859.05913919","351.976592815","25","red","1"
"97","88","19","620.562863557","1","1","3","256","0","left","3","in","Female","Right-handed","1","no","left","s","557.656035872","495.623340091","25","red","1"
"97","88","19","622.272406848","1","1","3","257","3","left","2","in","Female","Right-handed","1","no","left","d","559.275655008","832.289881678","25","red","3"
"97","88","19","619.029762257","1","1","3","258","3","left","1","out","Female","Right-handed","1","no","left","d","464.807921188","487.89887932","25","red","3"
"97","89","19","617.084571631","1","1","3","259","3","left","1","out","Female","Right-handed","1","no","left","s","635.502308038","423.599678898","25","green","0"
"97","89","19","614.247411846","1","1","3","260","2","right","3","out","Female","Right-handed","1","no","right","d","543.22314471","424.252978736","25","red","0"
"97","89","19","613.730417442","1","1","3","261","1","left","1","in","Female","Right-handed","1","no","left","d","578.820449023","600.042911889","25","green","3"
"97","89","19","609.521103722","1","1","3","262","0","left","3","in","Female","Right-handed","1","no","left","s","502.506561061","312.441529344","25","green","0"
"98","90","19","612.173208164","1","1","3","263","3","left","1","in","Female","Right-handed","1","no","left","d","612.268951709","871.983699897","25","red","0"
"98","90","19","610.634054511","1","1","3","264","1","left","1","in","Female","Right-handed","1","no","left","d","563.56363676","503.789106987","25","red","0"
"98","90","19","607.792545834","1","1","3","265","2","left","3","in","Female","Right-handed","1","no","left","s","501.412917248","424.338289368","25","green","1"
"98","90","19","606.597371052","1","1","3","266","1","left","0","in","Female","Right-handed","1","no","left","d","600.922958406","487.973606302","25","green","3"
"98","90","19","608.578408673","1","1","3","267","1","right","0","in","Female","Right-handed","1","no","right","d","723.61472051","703.532084655","25","green","2"
"98","90","19","608.661303293","1","1","3","268","3","left","0","out","Female","Right-handed","1","no","left","d","650.203639044","576.071586524","25","red","1"
"98","89","19","607.483627185","1","0","3","269","1","left","1","out","Female","Right-handed","1","no","left","d","541.683704739","543.739177817","25","red","3"
"98","89","19","606.657099407","1","1","3","270","0","right","1","in","Female","Right-handed","1","no","right","s","569.362193984","551.380893689","25","green","0"
"98","89","19","605.819842857","1","1","3","271","2","left","1","out","Female","Right-handed","1","no","left","d","476.103882692","640.088556284","25","green","2"
"96","89","19","603.94478068","0","1","3","272","0","right","2","out","Female","Right-handed","1","no","left","d","483.62597125","506.756377531","25","green","1"
"96","90","19","605.059882611","1","1","3","273","0","left","0","out","Female","Right-handed","1","no","left","s","798.461009033","543.240784127","25","green","3"
"96","88","19","605.321074785","1","0","3","274","1","right","0","in","Female","Right-handed","1","no","right","s","514.007139795","727.978070678","25","green","1"
"96","88","19","603.058191648","1","1","3","275","0","right","1","in","Female","Right-handed","1","no","right","s","538.47685885","391.567781702","25","red","0"
"96","88","19","602.472312594","1","1","3","276","2","right","2","in","Female","Right-handed","1","no","right","d","620.16243016","512.133192346","25","red","3"
"96","89","19","601.969732485","1","1","3","277","1","right","2","in","Female","Right-handed","1","no","right","s","548.819650438","591.794720811","25","red","1"
"96","89","19","602.282666293","1","1","3","278","3","right","0","out","Female","Right-handed","1","no","right","s","733.220825929","511.400034061","25","green","2"
"96","89","19","601.670558661","1","1","3","279","3","right","1","in","Female","Right-handed","1","no","right","s","715.812646307","407.95447876","25","red","2"
"97","89","19","601.349600121","1","1","3","280","3","right","1","in","Female","Right-handed","1","no","right","d","600.784408809","559.548264169","25","red","2"
"97","89","19","600.178195365","1","1","3","281","0","left","1","out","Female","Right-handed","1","no","left","d","532.09972877","511.288424662","25","red","3"
"97","89","19","599.043960833","1","1","3","282","2","right","1","in","Female","Right-handed","1","no","right","s","515.940740542","527.891284749","25","red","2"
"97","88","19","598.956798046","1","0","3","283","0","left","1","out","Female","Right-handed","1","no","left","d","530.403779069","655.481352411","25","red","3"
"97","88","19","602.395671243","1","1","3","284","0","left","3","out","Female","Right-handed","1","no","left","d","974.112071871","712.12151826","25","red","2"
"97","88","19","606.198420075","1","1","3","285","1","right","0","out","Female","Right-handed","1","no","right","d","624.76663854","1127.62053574","25","red","1"
"97","89","19","605.931867278","1","1","3","286","1","left","1","in","Female","Right-handed","1","no","left","s","470.234447086","703.245684677","25","green","3"
"97","89","19","603.754897354","1","1","3","287","1","right","3","out","Female","Right-handed","1","no","right","d","441.880528554","447.791657326","25","red","2"
"97","89","19","602.770132427","1","1","3","288","3","left","1","out","Female","Right-handed","1","no","left","s","572.350631827","487.444423812","25","green","3"
"97","88","19","601.039317364","1","0","3","289","2","left","2","out","Female","Right-handed","1","no","left","s","462.189269654","480.267105664","25","green","1"
"97","88","19","600.698446331","1","1","3","290","0","right","1","in","Female","Right-handed","1","no","right","d","621.833043245","527.751452285","25","red","2"
"97","88","19","600.566886845","1","1","3","291","2","right","1","out","Female","Right-handed","1","no","right","s","565.449130008","615.424482933","25","green","3"
"97","88","19","599.996087257","1","1","3","292","2","right","0","in","Female","Right-handed","1","no","right","s","670.988644385","439.958794324","25","green","3"
"97","87","19","600.234419825","1","0","3","293","1","left","3","in","Female","Right-handed","1","no","left","d","686.544364575","551.581020887","25","red","1"
"97","86","19","606.078803402","1","0","3","294","2","right","0","out","Female","Right-handed","1","no","right","s","636.093068126","1511.1659109","25","green","2"
"97","86","19","607.465028762","1","1","3","295","2","right","2","out","Female","Right-handed","1","no","right","s","959.726646776","479.771919139","25","green","0"
"97","86","19","613.113190017","1","1","3","296","3","left","2","out","Female","Right-handed","1","no","left","s","1465.27167748","687.253148395","25","green","0"
"97","86","19","612.682681928","1","1","3","297","3","left","1","out","Female","Right-handed","1","no","left","s","521.895486779","632.005534287","25","red","3"
"97","87","19","615.174010767","1","1","3","298","0","left","0","in","Female","Right-handed","1","no","left","s","897.409475317","751.481791151","25","red","2"
"97","86","19","619.31799811","1","0","3","299","3","left","1","out","Female","Right-handed","1","no","left","s","784.142934436","1158.97091004","25","green","0"
"97","86","19","618.207874081","1","1","3","300","2","left","1","out","Female","Right-handed","1","no","left","s","565.773695269","479.700720041","25","red","3"
"97","86","19","617.82055346","1","1","3","301","1","left","2","in","Female","Right-handed","1","no","left","s","601.140404302","567.106914427","25","green","1"
"97","86","19","619.574448414","1","1","3","302","3","right","3","out","Female","Right-handed","1","no","right","d","659.899865844","887.934543013","25","red","1"
"97","85","19","621.578985761","1","0","3","303","0","right","1","out","Female","Right-handed","1","no","right","s","624.59184796","975.373771214","25","green","3"
"97","85","19","626.099612755","1","1","3","304","0","right","2","out","Female","Right-handed","1","no","right","d","1099.04756773","966.864516774","25","red","1"
"97","85","19","625.534551008","1","1","3","305","0","right","1","in","Female","Right-handed","1","no","right","d","564.563952025","583.663912031","25","green","0"
"97","86","19","628.084662757","1","1","3","306","0","left","0","in","Female","Right-handed","1","no","left","s","662.268679099","1063.12120813","25","green","1"
"97","86","19","626.709958025","1","1","3","307","3","right","0","in","Female","Right-handed","1","no","right","s","661.86136894","335.863467069","25","green","1"
"97","86","19","632.901343183","1","1","3","308","3","left","3","in","Female","Right-handed","1","no","left","s","1430.48803134","999.29506478","25","green","0"
"97","86","19","632.14164009","1","1","3","309","0","left","1","out","Female","Right-handed","1","no","left","s","568.896192676","551.043499763","25","green","0"
"100","0","19","546.779732118","1","0","4","310","1","left","1","out","Female","Right-handed","1","no","left","s","669.772486808","423.786977428","25","red","3"
"100","50","19","621.594510229","1","1","4","311","0","left","0","in","Female","Right-handed","1","no","left","s","792.436346563","600.382230117","25","red","1"
"100","66","19","684.242581102","1","1","4","312","0","right","3","in","Female","Right-handed","1","no","right","s","1123.0843193","495.9931264","25","red","1"
"100","75","19","665.192652894","1","1","4","313","3","right","2","in","Female","Right-handed","1","no","right","d","623.571006829","592.514729714","25","green","1"
"100","80","19","635.822158763","1","1","4","314","2","right","1","in","Female","Right-handed","1","no","right","d","516.248307819","520.432056657","25","green","2"
"100","83","19","651.988961788","1","1","4","315","3","right","0","out","Female","Right-handed","1","no","right","d","897.786317393","567.859636429","25","green","1"
"100","71","19","670.128688476","1","0","4","316","0","right","1","in","Female","Right-handed","1","no","right","s","574.422461455","983.511635761","25","green","0"
"100","75","19","651.872408008","1","1","4","317","2","left","1","in","Female","Right-handed","1","no","left","s","504.042793866","544.114095593","25","red","2"
"100","77","19","646.579629867","1","1","4","318","2","right","0","in","Female","Right-handed","1","no","right","d","640.729027456","567.745782014","25","red","1"
"100","80","19","643.504685831","1","1","4","319","1","right","1","out","Female","Right-handed","1","no","right","s","591.33192667","640.328452347","25","red","0"
"100","81","19","646.543751715","1","1","4","320","1","left","3","in","Female","Right-handed","1","no","left","d","841.902080714","511.9667404","25","red","1"
"100","83","19","652.668961287","1","1","4","321","0","left","0","in","Female","Right-handed","1","no","left","d","912.579694081","527.512839089","25","red","3"
"100","84","19","643.279008618","1","1","4","322","2","left","1","in","Female","Right-handed","1","no","left","s","581.05071268","480.148440499","25","red","2"
"100","85","19","625.530975067","1","1","4","323","3","left","2","out","Female","Right-handed","1","no","left","s","453.94364431","335.669433489","25","red","3"
"100","86","19","629.068026249","1","1","4","324","0","left","2","out","Female","Right-handed","1","no","left","s","525.57378616","831.599699425","25","red","1"
"100","87","19","627.063541106","1","1","4","325","3","right","0","in","Female","Right-handed","1","no","right","d","626.107554898","567.884973046","25","red","2"
"100","88","19","627.653522396","1","1","4","326","2","right","3","in","Female","Right-handed","1","no","right","d","770.61318139","503.573264674","25","red","2"
"100","88","19","622.655930926","1","1","4","327","0","right","3","in","Female","Right-handed","1","no","right","s","579.1395621","496.254189762","25","green","0"
"100","89","19","621.111456078","1","1","4","328","0","right","1","out","Female","Right-handed","1","no","right","s","690.777824496","495.843993153","25","red","2"
"100","85","19","620.557657319","1","0","4","329","0","right","1","in","Female","Right-handed","1","no","right","d","572.588282873","647.482678895","25","red","3"
"100","85","19","613.681021349","1","1","4","330","3","right","1","out","Female","Right-handed","1","no","right","d","496.139693915","456.156909985","25","red","2"
"100","86","19","621.07286458","1","1","4","331","1","left","1","in","Female","Right-handed","1","no","left","d","904.723739479","647.879405404","25","green","0"
"100","86","19","623.970117797","1","1","4","332","3","left","0","in","Female","Right-handed","1","no","left","s","599.285379136","776.133997987","25","green","1"
"100","83","19","619.468125361","1","0","4","333","3","left","1","out","Female","Right-handed","1","no","left","s","527.856326634","503.988272033","25","red","2"
"100","84","19","621.151257354","1","1","4","334","1","right","1","out","Female","Right-handed","1","no","right","d","771.511188041","551.58166232","25","red","2"
"100","84","19","615.878685568","1","1","4","335","0","left","2","out","Female","Right-handed","1","no","left","d","480.137215416","487.991566435","25","green","0"
"100","85","19","620.671603494","1","1","4","336","0","right","2","out","Female","Right-handed","1","no","right","s","570.79740104","919.777538096","25","red","3"
"100","85","19","622.176576605","1","1","4","337","3","right","1","in","Female","Right-handed","1","no","right","s","910.284966374","415.336734854","25","green","0"
"100","82","19","623.806158496","1","0","4","338","2","right","0","in","Female","Right-handed","1","no","right","s","747.010680186","591.85822271","25","green","1"
"100","83","19","629.584289203","1","1","4","339","0","right","3","in","Female","Right-handed","1","no","right","s","586.659084925","1007.64107444","25","red","2"
"100","80","19","631.760915413","1","0","4","340","2","left","1","out","Female","Right-handed","1","no","left","s","954.183059297","439.936344157","25","red","0"
"100","81","19","630.417671111","1","1","4","341","2","right","3","out","Female","Right-handed","1","no","right","d","553.800380177","623.753815326","25","green","0"
"100","78","19","627.903339808","1","0","4","342","2","left","1","in","Female","Right-handed","1","no","left","s","599.4694705","495.420005728","25","green","2"
"100","79","19","633.448480991","1","1","4","343","2","left","1","in","Female","Right-handed","1","no","left","d","808.988533418","823.887746603","25","red","0"
"100","77","19","640.868103945","1","0","4","344","3","left","3","out","Female","Right-handed","1","no","left","d","1114.52888166","671.741687105","25","red","0"
"100","77","19","637.36316401","1","1","4","345","3","right","2","out","Female","Right-handed","1","no","right","d","582.205613376","447.174919187","25","red","0"
"100","78","19","640.549564814","1","1","4","346","0","left","1","in","Female","Right-handed","1","no","left","d","686.741284605","823.778702938","25","green","2"
"100","78","19","637.372297167","1","1","4","347","3","left","1","in","Female","Right-handed","1","no","left","s","584.206243904","455.420544532","25","green","3"
"100","76","19","639.221494681","1","0","4","348","2","left","1","in","Female","Right-handed","1","no","left","d","987.980822426","431.001177993","25","red","0"
"100","77","19","643.255108134","1","1","4","349","1","right","3","out","Female","Right-handed","1","no","right","s","1017.57976304","583.552302633","25","green","1"
"100","78","19","639.887545162","1","1","4","350","1","left","2","in","Female","Right-handed","1","no","left","d","515.145042506","495.225009998","25","red","1"
"100","76","19","638.373073411","1","0","4","351","2","right","2","in","Female","Right-handed","1","no","right","s","536.84793893","615.711524344","25","green","3"
"100","76","19","640.432610676","1","1","4","352","0","right","2","in","Female","Right-handed","1","no","right","s","718.343421475","735.522930119","25","red","1"
"100","77","19","638.453488081","1","1","4","353","3","left","1","in","Female","Right-handed","1","no","left","d","595.976224632","510.726208356","25","red","3"
"100","77","19","639.144701406","1","1","4","354","0","right","1","out","Female","Right-handed","1","no","right","s","635.481140738","703.635034703","25","green","3"
"100","78","19","637.224173039","1","1","4","355","1","left","1","out","Female","Right-handed","1","no","left","s","726.25101146","375.349781608","25","green","2"
"100","78","19","642.716164002","1","1","4","356","2","left","2","in","Female","Right-handed","1","no","left","s","702.744725254","1087.95077128","25","red","1"
"100","79","19","643.158335891","1","1","4","357","2","right","1","in","Female","Right-handed","1","no","right","d","472.50351746","855.377311926","25","green","3"
"100","79","19","640.453548207","1","1","4","358","3","right","1","in","Female","Right-handed","1","no","right","s","558.170144679","463.077334087","25","green","0"
"100","80","19","638.427468484","1","1","4","359","1","left","1","out","Female","Right-handed","1","no","left","s","670.625272409","407.673851682","25","green","3"
"100","80","19","641.022398304","1","1","4","360","2","right","2","in","Female","Right-handed","1","no","right","s","1222.21815981","319.319618847","25","green","0"
"100","80","19","641.269876014","1","1","4","361","1","left","0","out","Female","Right-handed","1","no","left","s","803.895873563","503.886604852","25","red","3"
"100","79","19","640.218546378","1","0","4","362","3","left","3","out","Female","Right-handed","1","no","left","s","507.492422267","663.606388291","25","green","1"
"100","77","19","639.316407167","1","0","4","363","2","right","1","in","Female","Right-handed","1","no","right","d","671.894989668","511.111068349","25","red","0"
"100","78","19","637.541366254","1","1","4","364","3","right","1","out","Female","Right-handed","1","no","right","s","531.676062061","551.702251784","25","red","3"
"100","78","19","639.234135601","1","1","4","365","1","left","1","out","Female","Right-handed","1","no","left","d","609.298473998","855.374425476","25","green","2"
"100","78","19","642.490816911","1","1","4","366","1","left","2","in","Female","Right-handed","1","no","left","d","682.855802262","966.874138275","25","red","0"
"100","79","19","643.362932385","1","1","4","367","0","right","1","out","Female","Right-handed","1","no","right","d","554.644506428","831.502522277","25","green","3"
"100","79","19","651.868305281","1","1","4","368","3","left","1","in","Female","Right-handed","1","no","left","d","827.097158226","1463.26270832","25","green","0"
"100","80","19","650.974681985","1","1","4","369","1","right","1","out","Female","Right-handed","1","no","right","d","508.731030011","687.770785085","25","red","0"
"100","80","19","650.840345737","1","1","4","370","1","left","1","out","Female","Right-handed","1","no","left","d","590.236358557","695.32398316","25","green","3"
"100","80","19","650.583142551","1","1","4","371","0","right","1","out","Female","Right-handed","1","no","right","s","510.946540702","758.840955646","25","green","0"
"100","79","19","647.256395473","1","0","4","372","1","right","0","in","Female","Right-handed","1","no","right","s","370.586818481","511.409334843","25","red","1"
"100","78","19","645.364448081","1","0","4","373","3","left","3","out","Female","Right-handed","1","no","left","d","573.164610712","479.178914034","25","red","1"
"100","78","19","643.063097228","1","1","4","374","0","left","1","out","Female","Right-handed","1","no","left","d","488.705481721","502.847803588","25","green","0"
"100","78","19","641.650942075","1","1","4","375","1","left","3","out","Female","Right-handed","1","no","left","s","516.388781716","583.332932437","25","green","0"
"100","77","19","640.359578616","1","0","4","376","2","right","1","out","Female","Right-handed","1","no","right","d","527.098473164","583.160707591","25","green","3"
"100","77","19","638.754417424","1","1","4","377","3","right","0","out","Female","Right-handed","1","no","right","d","519.747326586","542.66990847","25","green","3"
"98","78","19","637.703811777","0","1","4","378","0","left","0","out","Female","Right-handed","1","no","right","d","578.224878184","554.300377451","25","green","2"
"98","78","19","636.199802631","1","1","4","379","2","left","1","out","Female","Right-handed","1","no","left","s","529.93585346","534.910489583","25","red","3"
"98","77","19","634.619149214","1","0","4","380","1","right","1","out","Female","Right-handed","1","no","right","d","592.504787498","455.442032548","25","red","0"
"98","76","19","636.736679648","1","0","4","381","0","left","1","out","Female","Right-handed","1","no","left","s","591.174775506","982.987905454","25","red","3"
"98","76","19","637.674590077","1","1","4","382","2","left","0","out","Female","Right-handed","1","no","left","s","587.665173089","822.743108841","25","green","2"
"98","77","19","636.810940363","1","1","4","383","2","left","1","out","Female","Right-handed","1","no","left","s","524.218437552","623.310584901","25","green","3"
"98","77","19","639.143979437","1","1","4","384","1","left","0","in","Female","Right-handed","1","no","left","s","592.748852876","1030.828889","25","green","2"
"98","76","19","638.03085085","1","0","4","385","0","left","1","out","Female","Right-handed","1","no","left","s","574.540485187","534.551928357","25","green","2"
"98","75","19","637.227240945","1","0","4","386","2","left","0","in","Female","Right-handed","1","no","left","s","585.172563203","567.133213193","25","green","3"
"98","74","19","638.8747753","1","0","4","387","1","right","2","out","Female","Right-handed","1","no","right","s","700.685724292","830.784116956","25","red","3"
"98","74","19","637.335755873","1","1","4","388","3","right","3","out","Female","Right-handed","1","no","right","d","611.219887511","423.364593586","25","red","2"
"98","75","19","635.754846349","1","1","4","389","1","right","0","out","Female","Right-handed","1","no","right","s","614.902035492","406.823952531","25","green","1"
"98","75","19","636.177576966","1","1","4","390","3","right","2","in","Female","Right-handed","1","no","right","s","637.396460635","702.595592006","25","green","1"
"98","75","19","634.361270516","1","1","4","391","0","right","1","in","Female","Right-handed","1","no","right","s","639.150460052","335.330435979","25","red","2"
"97","75","19","632.88439647","0","1","4","392","3","left","1","out","Female","Right-handed","1","no","right","d","501.85069549","521.710753982","25","red","2"
"97","76","19","632.878358951","1","1","4","393","1","right","1","out","Female","Right-handed","1","no","right","s","738.422529448","526.331960346","25","red","2"
"97","76","19","633.72099488","1","1","4","394","0","right","1","out","Female","Right-handed","1","no","right","s","521.966044444","887.038781379","25","green","0"
"97","76","19","634.841631717","1","1","4","395","2","right","2","in","Female","Right-handed","1","no","right","s","909.640325887","550.551199689","25","red","1"
"97","77","19","634.898179225","1","1","4","396","1","left","3","in","Female","Right-handed","1","no","left","s","608.241391885","671.28113798","25","green","2"
"97","77","19","634.108001467","1","1","4","397","3","right","1","out","Female","Right-handed","1","no","right","d","675.930888125","454.794184894","25","green","2"
"97","77","19","633.770048886","1","1","4","398","2","right","3","in","Female","Right-handed","1","no","right","s","833.44221664","374.618226905","25","green","1"
"97","77","19","632.018774539","1","1","4","399","0","left","3","in","Female","Right-handed","1","no","left","s","521.235451892","431.075263541","25","green","1"
"96","78","19","630.790086868","0","1","4","400","3","left","1","in","Female","Right-handed","1","no","right","d","541.698778423","498.717614433","25","green","0"
"96","78","19","631.132508676","1","1","4","401","3","left","1","in","Female","Right-handed","1","no","left","d","542.283765611","782.302020804","25","red","3"
"96","78","19","633.855665936","1","1","4","402","1","right","1","in","Female","Right-handed","1","no","right","d","953.911733001","814.860534756","25","red","3"
"96","78","19","633.831196818","1","1","4","403","1","left","2","in","Female","Right-handed","1","no","left","s","640.482075627","622.629061996","25","green","1"
"96","78","19","635.455657267","1","1","4","404","0","right","0","out","Female","Right-handed","1","no","right","d","673.143218911","903.166660092","25","green","1"
"96","79","19","634.771013917","1","1","4","405","2","left","3","out","Female","Right-handed","1","no","left","s","620.838821597","518.620969674","25","red","1"
"100","100","19","475.055620287","1","1","5","406","1","left","1","out","Female","Right-handed","1","no","left","s","525.935554553","424.17568602","25","green","0"
"100","100","19","480.881518606","1","1","5","407","2","left","3","out","Female","Right-handed","1","no","left","s","509.644751776","463.770082075","25","green","1"
"100","100","19","467.886854583","1","1","5","408","2","left","1","out","Female","Right-handed","1","no","left","s","484.390239052","399.404814021","25","green","3"
"100","100","19","459.553459779","1","1","5","409","0","right","2","in","Female","Right-handed","1","no","right","d","445.08961946","424.016931274","25","red","0"
"80","100","19","486.879577629","0","1","5","410","2","right","0","out","Female","Right-handed","1","no","left","d","661.753608142","530.614489914","25","red","1"
"83","100","19","531.763029729","1","1","5","411","3","left","1","in","Female","Right-handed","1","no","left","s","720.039371177","792.321209281","25","green","2"
"85","100","19","538.911429925","1","1","5","412","0","left","1","in","Female","Right-handed","1","no","left","d","676.839157708","486.764504491","25","red","3"
"87","100","19","524.854438735","1","1","5","413","0","left","1","in","Female","Right-handed","1","no","left","s","453.514525418","399.396475388","25","red","0"
"88","100","19","518.26720138","1","1","5","414","1","left","0","in","Female","Right-handed","1","no","left","s","466.945818448","464.192786633","25","green","1"
"90","100","19","512.562118808","1","1","5","415","0","left","0","out","Female","Right-handed","1","no","left","s","546.76706381","375.665687519","25","green","1"
"90","100","19","523.362124068","1","1","5","416","2","left","3","in","Female","Right-handed","1","no","left","s","631.391041165","631.333312166","25","red","1"
"91","100","19","521.448728471","1","1","5","417","1","right","0","out","Female","Right-handed","1","no","right","s","520.94071328","479.862040522","25","green","3"
"92","100","19","527.811278278","1","1","5","418","3","right","2","out","Female","Right-handed","1","no","right","d","664.637171638","543.686580284","25","green","1"
"92","100","19","530.435862189","1","1","5","419","1","right","1","out","Female","Right-handed","1","no","right","s","466.045887498","663.065018568","25","red","3"
"93","100","19","525.624470082","1","1","5","420","2","right","1","out","Female","Right-handed","1","no","right","s","516.774603859","399.755357331","25","green","0"
"93","100","19","531.058281594","1","1","5","421","1","left","1","out","Female","Right-handed","1","no","left","d","625.551111492","599.579797031","25","red","2"
"94","100","19","530.533376898","1","1","5","422","2","right","1","in","Female","Right-handed","1","no","right","d","493.127843754","551.141959778","25","green","0"
"94","100","19","534.01391725","1","1","5","423","3","right","3","in","Female","Right-handed","1","no","right","s","514.705019248","671.661187223","25","green","1"
"94","100","19","535.216098801","1","1","5","424","2","left","0","out","Female","Right-handed","1","no","left","d","586.333557514","527.377175942","25","red","2"
"95","100","19","534.52801893","1","1","5","425","2","left","1","in","Female","Right-handed","1","no","left","d","506.902303612","536.006699129","25","green","2"
"95","95","19","539.574145087","1","0","5","426","0","right","0","out","Female","Right-handed","1","no","right","s","497.478044539","783.515291931","25","red","1"
"95","90","19","540.237841143","1","0","5","427","0","left","0","out","Female","Right-handed","1","no","left","d","525.157175218","583.193741407","25","green","3"
"95","91","19","540.50387181","1","1","5","428","1","right","2","out","Female","Right-handed","1","no","right","s","524.820102007","567.892990963","25","green","1"
"95","91","19","543.104593133","1","1","5","429","0","left","1","in","Female","Right-handed","1","no","left","d","758.384896555","447.457470566","25","green","2"
"92","92","19","543.322412931","0","1","5","430","0","right","3","in","Female","Right-handed","1","no","left","s","679.0488955","418.051280669","25","green","1"
"92","92","19","548.467682406","1","1","5","431","0","left","3","out","Female","Right-handed","1","no","left","s","906.614043477","447.584795079","25","green","1"
"92","92","19","546.164021461","1","1","5","432","3","right","1","out","Female","Right-handed","1","no","right","s","485.331863169","487.205810616","25","red","3"
"92","92","19","547.262519507","1","1","5","433","2","left","1","out","Female","Right-handed","1","no","left","s","522.917610776","630.926322724","25","green","3"
"93","93","19","543.736307956","1","1","5","434","3","left","1","in","Female","Right-handed","1","no","left","d","482.458562606","407.546206451","25","red","3"
"93","93","19","553.182241576","1","1","5","435","2","left","0","out","Female","Right-handed","1","no","left","d","790.987027973","863.241605162","25","red","1"
"93","93","19","555.893408142","1","1","5","436","3","right","2","in","Female","Right-handed","1","no","right","s","667.721503763","606.735306446","25","green","1"
"93","93","19","575.295467239","1","1","5","437","0","right","2","in","Female","Right-handed","1","no","right","d","1482.22860876","871.28998976","25","red","1"
"93","93","19","578.920230779","1","1","5","438","1","right","1","in","Female","Right-handed","1","no","right","s","710.882269083","678.943059002","25","red","3"
"94","94","19","578.612101104","1","1","5","439","3","left","2","in","Female","Right-handed","1","no","left","s","561.446265367","575.441378287","25","green","3"
"94","94","19","584.654074323","1","1","5","440","0","right","3","in","Female","Right-handed","1","no","right","d","1069.09680095","511.065526583","25","red","2"
"94","94","19","586.906272837","1","1","5","441","1","left","1","in","Female","Right-handed","1","no","left","d","572.720097421","758.746344231","25","red","2"
"94","94","19","589.405182325","1","1","5","442","1","left","1","in","Female","Right-handed","1","no","left","s","583.35281687","775.379030968","25","red","0"
"94","94","19","590.325104233","1","1","5","443","3","left","1","in","Female","Right-handed","1","no","left","s","601.823210072","646.90121959","25","green","2"
"94","94","19","588.40423174","1","1","5","444","1","left","1","in","Female","Right-handed","1","no","left","d","528.502570705","502.319583248","25","red","0"
"95","95","19","586.424079792","1","1","5","445","1","left","1","in","Female","Right-handed","1","no","left","s","523.177391272","495.218916382","25","green","2"
"95","92","19","585.360092492","1","0","5","446","3","right","1","in","Female","Right-handed","1","no","right","s","534.733453987","550.867747033","25","green","2"
"95","92","19","584.029032677","1","1","5","447","1","right","0","in","Female","Right-handed","1","no","right","s","523.391309285","535.519851239","25","green","1"
"95","93","19","584.03066272","1","1","5","448","1","right","2","out","Female","Right-handed","1","no","right","d","689.121322943","479.076926136","25","red","3"
"95","93","19","600.124793039","1","1","5","449","2","left","3","in","Female","Right-handed","1","no","left","s","857.687113316","1726.65768019","25","red","0"
"95","93","19","607.125672075","1","1","5","450","1","right","1","out","Female","Right-handed","1","no","right","s","519.094668182","1311.23403112","25","red","0"
"95","91","19","605.759069334","1","0","5","451","3","right","1","in","Female","Right-handed","1","no","right","s","505.788133933","582.735758015","25","green","3"
"95","91","19","604.375176424","1","1","5","452","2","right","2","out","Female","Right-handed","1","no","right","s","554.248742069","527.183463079","25","red","3"
"95","91","19","608.022957112","1","1","5","453","3","left","0","out","Female","Right-handed","1","no","left","d","735.825686646","823.111612285","25","red","1"
"95","91","19","607.462508566","1","1","5","454","0","left","1","in","Female","Right-handed","1","no","left","s","634.571588289","526.550368391","25","red","3"
"96","90","19","610.217436274","1","0","5","455","2","left","2","out","Female","Right-handed","1","no","left","d","979.237124108","511.180663865","25","red","0"
"96","90","19","609.041557943","1","1","5","456","0","left","2","in","Female","Right-handed","1","no","left","s","501.774364925","598.720917814","25","green","3"
"96","90","19","607.816772277","1","1","5","457","0","left","1","out","Female","Right-handed","1","no","left","d","500.27276952","590.432637154","25","red","0"
"96","90","19","613.481605608","1","1","5","458","3","right","2","out","Female","Right-handed","1","no","right","d","873.061628593","943.044248957","25","green","0"
"96","90","19","614.679520492","1","1","5","459","1","right","0","in","Female","Right-handed","1","no","right","d","741.723666035","614.614352648","25","red","2"
"96","90","19","618.478676439","1","1","5","460","1","right","3","out","Female","Right-handed","1","no","right","d","648.049705951","999.216489199","25","red","0"
"96","91","19","617.028504358","1","1","5","461","2","left","2","out","Female","Right-handed","1","no","left","s","523.78450791","550.753571902","25","green","1"
"96","91","19","616.132971356","1","1","5","462","1","left","3","in","Female","Right-handed","1","no","left","d","581.510941089","550.455305407","25","red","1"
"96","91","19","615.062623301","1","1","5","463","3","right","1","out","Female","Right-handed","1","no","right","d","485.048670357","623.056898023","25","green","0"
"96","91","19","618.648003371","1","1","5","464","1","left","1","in","Female","Right-handed","1","no","left","s","614.742639312","1038.45745549","25","red","2"
"96","91","19","616.530581242","1","1","5","465","1","right","2","in","Female","Right-handed","1","no","right","s","480.042924718","503.162426631","25","green","1"
"96","91","19","618.520855077","1","1","5","466","1","right","1","out","Female","Right-handed","1","no","right","s","820.929135409","654.945434871","25","green","3"
"96","91","19","617.713497227","1","1","5","467","3","left","1","out","Female","Right-handed","1","no","left","s","546.470400899","590.45893592","25","red","2"
"95","92","19","620.886091669","0","1","5","468","2","left","1","in","Female","Right-handed","1","no","right","d","976.998842534","658.175051644","25","green","0"
"95","92","19","624.022896604","1","1","5","469","1","right","2","in","Female","Right-handed","1","no","right","s","796.645432016","846.637782924","25","red","0"
"95","92","19","626.495905768","1","1","5","470","3","left","0","out","Female","Right-handed","1","no","left","s","595.20425963","974.332724934","25","red","2"
"95","90","19","625.834977322","1","0","5","471","2","left","1","out","Female","Right-handed","1","no","left","s","462.873999725","702.875256934","25","green","0"
"95","91","19","624.366592374","1","1","5","472","2","left","0","out","Female","Right-handed","1","no","left","d","544.406589188","510.499782394","25","red","3"
"95","91","19","627.068143744","1","1","5","473","0","right","1","out","Female","Right-handed","1","no","right","d","825.016348531","791.127822588","25","green","2"
"95","89","19","626.291925145","1","0","5","474","1","right","1","out","Female","Right-handed","1","no","right","s","516.492052481","630.526068331","25","green","3"
"95","90","19","626.99897082","1","1","5","475","3","right","1","in","Female","Right-handed","1","no","right","d","441.255131066","910.315113741","25","red","3"
"95","90","19","630.709985785","1","1","5","476","3","right","3","out","Female","Right-handed","1","no","right","d","861.980867968","918.981198627","25","red","1"
"95","90","19","632.1441507","1","1","5","477","0","left","2","in","Female","Right-handed","1","no","left","d","997.426248799","470.513470581","25","green","1"
"95","90","19","633.408981607","1","1","5","478","0","left","1","in","Female","Right-handed","1","no","left","s","929.883640788","519.069972998","25","green","3"
"95","90","19","631.324388442","1","1","5","479","2","right","2","in","Female","Right-handed","1","no","right","s","615.721787277","342.576387492","25","red","1"
"96","89","19","629.203494828","1","0","5","480","1","right","3","out","Female","Right-handed","1","no","right","s","546.237239887","398.277494959","25","red","1"
"96","89","19","630.721007092","1","1","5","481","0","left","1","out","Female","Right-handed","1","no","left","d","545.962706425","943.106147273","25","green","2"
"96","89","19","629.711181444","1","1","5","482","2","right","1","in","Female","Right-handed","1","no","right","s","499.495031619","606.433832786","25","red","2"
"96","89","19","629.2738548","1","1","5","483","2","right","1","out","Female","Right-handed","1","no","right","s","552.119824876","639.07958167","25","green","2"
"96","88","19","628.893791036","1","0","5","484","1","left","3","out","Female","Right-handed","1","no","left","d","695.692165886","502.805468989","25","red","2"
"96","88","19","629.055674648","1","1","5","485","2","right","3","in","Female","Right-handed","1","no","right","s","509.313772183","774.37518782","25","green","2"
"96","87","19","629.079127401","1","0","5","486","3","right","3","out","Female","Right-handed","1","no","right","s","574.848373181","687.062321982","25","green","2"
"96","87","19","633.133170154","1","1","5","487","3","right","3","in","Female","Right-handed","1","no","right","s","956.52140447","966.499861931","25","red","0"
"96","87","19","631.012686311","1","1","5","488","0","right","1","in","Female","Right-handed","1","no","right","s","476.056416626","438.209605657","25","green","0"
"96","88","19","631.611026068","1","1","5","489","3","right","0","out","Female","Right-handed","1","no","right","d","467.849277281","894.697174518","25","red","3"
"96","87","19","630.937730804","1","0","5","490","0","right","3","out","Female","Right-handed","1","no","right","d","526.470189226","622.291668069","25","green","0"
"96","87","19","631.757707946","1","1","5","491","2","left","1","in","Female","Right-handed","1","no","left","d","723.905931238","679.005598751","25","green","2"
"96","87","19","634.525242888","1","1","5","492","3","right","1","out","Female","Right-handed","1","no","right","d","1058.60231038","686.46418541","25","red","0"
"96","87","19","635.452449353","1","1","5","493","2","right","1","in","Female","Right-handed","1","no","right","d","506.107567726","926.131255859","25","green","3"
"95","87","19","638.696955883","0","1","5","494","3","right","0","in","Female","Right-handed","1","no","left","d","710.808183535","1137.61887764","25","green","1"
"95","86","19","640.419393337","1","0","5","495","2","left","1","in","Female","Right-handed","1","no","left","s","541.278960314","1046.1536932","25","red","3"
"95","86","19","643.424094139","1","1","5","496","0","left","1","out","Female","Right-handed","1","no","left","d","573.8227213","1253.87161135","25","red","3"
"95","86","19","643.48427117","1","1","5","497","3","left","1","out","Female","Right-handed","1","no","left","d","739.499495994","558.421265824","25","green","0"
"95","87","19","644.431528874","1","1","5","498","0","left","0","out","Female","Right-handed","1","no","left","d","825.125392196","638.033083206","25","green","2"
"95","87","19","644.678975554","1","1","5","499","3","left","1","out","Female","Right-handed","1","no","left","s","657.674092219","677.708941292","25","red","0"
"95","87","19","647.627717097","1","1","5","500","0","right","1","in","Female","Right-handed","1","no","right","d","1115.31912751","734.299716775","25","red","2"
"95","87","19","646.781356749","1","1","5","501","0","right","1","in","Female","Right-handed","1","no","right","d","446.919308009","685.834939322","25","red","0"
dis_reply=No
dis_loc=2
