"acc_1","acc_2","age","avg_rt","correct_1","correct_2","count_block_loop","count_trial_sequence","cue_position","detection","dis_position","dis_shape","gender","hand","high_loc","practice","response_keyboard_response_1","response_keyboard_response_2","response_time_keyboard_response_1","response_time_keyboard_response_2","subject_nr","tar_color","tar_position"
"100","0","18","1450.73251679","1","0","0","0","1","left","3","out","Female","Right-handed","3","yes","left","s","1949.98122163","951.483811954","7","green","0"
"100","0","18","1367.38221183","1","0","0","1","3","right","3","out","Female","Right-handed","3","yes","right","s","1110.52522027","1457.53859348","7","red","0"
"100","0","18","1687.37889341","1","0","0","2","1","left","1","out","Female","Right-handed","3","yes","left","s","2180.96030435","2473.78420879","7","red","3"
"100","25","18","1584.75567593","1","1","0","3","1","right","0","in","Female","Right-handed","3","yes","right","s","1512.46829246","1041.30375449","7","red","1"
"100","40","18","1495.29427839","1","1","0","4","0","right","1","in","Female","Right-handed","3","yes","right","s","1200.9757055","1073.92167094","7","red","3"
"100","50","18","1543.39214657","1","1","0","5","2","right","0","out","Female","Right-handed","3","yes","right","d","2462.4469483","1105.31602666","7","red","1"
"100","57","18","1481.25127402","1","1","0","6","0","right","0","in","Female","Right-handed","3","yes","right","d","1062.98531502","1153.8267624","7","red","3"
"100","62","18","1429.46757628","1","1","0","7","2","left","1","out","Female","Right-handed","3","yes","left","s","772.509428472","1361.45395579","7","red","2"
"100","66","18","1496.14069662","1","1","0","8","2","right","2","out","Female","Right-handed","3","yes","right","s","1513.10717398","2545.94414469","7","green","0"
"100","70","18","1440.37519536","1","1","0","9","3","left","2","in","Female","Right-handed","3","yes","left","s","835.38698035","1041.58438769","7","red","3"
"100","72","18","1379.11979375","1","1","0","10","1","left","1","in","Female","Right-handed","3","yes","left","d","947.115555769","586.015999619","7","red","2"
"100","66","18","1329.82825141","1","0","0","11","3","right","3","out","Female","Right-handed","3","yes","right","s","861.656172052","713.586399266","7","red","2"
"100","69","18","1321.16757374","1","1","0","12","0","left","1","in","Female","Right-handed","3","yes","left","d","1393.35152692","1041.12735648","7","green","0"
"100","71","18","1302.92671102","1","1","0","13","2","left","2","out","Female","Right-handed","3","yes","left","d","1081.806662","1049.78432938","7","green","1"
"100","66","18","1321.45640184","1","0","0","14","0","right","1","in","Female","Right-handed","3","yes","right","d","1536.3599597","1625.38418685","7","red","2"
"100","68","18","1300.29214517","1","1","0","15","3","right","0","out","Female","Right-handed","3","yes","right","s","963.820447352","1001.83614292","7","red","1"
"100","70","18","1309.62141912","1","1","0","16","0","right","1","out","Female","Right-handed","3","yes","right","d","1828.44138888","1089.3382156","7","red","0"
"100","72","18","1336.85755176","1","1","0","17","0","left","0","in","Female","Right-handed","3","yes","left","s","1381.79360855","2217.95000495","7","red","1"
"100","73","18","1369.64245271","1","1","0","18","0","left","2","in","Female","Right-handed","3","yes","left","d","1494.33040759","2425.21093193","7","green","0"
"100","75","18","1358.05150277","1","1","0","19","1","right","0","in","Female","Right-handed","3","yes","right","d","1105.81603483","1169.83087279","7","red","2"
"100","76","18","1348.09047016","1","1","0","20","1","left","3","in","Female","Right-handed","3","yes","left","d","1200.33650326","1097.40313264","7","green","0"
"100","72","18","1346.56255967","1","0","0","21","2","right","0","in","Female","Right-handed","3","yes","right","d","1810.9962671","817.956611863","7","red","2"
"100","100","18","1068.89208258","1","1","1","22","3","right","2","out","Female","Right-handed","3","no","right","d","1248.38860417","889.395560993","7","red","0"
"100","100","18","1082.37530505","1","1","1","23","0","left","3","out","Female","Right-handed","3","no","left","s","1141.87884407","1049.83821095","7","red","1"
"66","66","18","1378.15211217","0","0","1","24","0","left","3","out","Female","Right-handed","3","no","None","d","3000.22578945","939.185663396","7","red","2"
"75","50","18","1409.83159122","1","0","1","25","1","left","3","in","Female","Right-handed","3","no","left","d","2119.88169146","889.85836523","7","red","2"
"80","60","18","1306.54664332","1","1","1","26","1","right","0","in","Female","Right-handed","3","no","right","s","737.486405327","1049.32729817","7","green","3"
"83","66","18","1283.53967624","1","1","1","27","2","right","3","out","Female","Right-handed","3","no","right","d","774.983170024","1562.02651166","7","red","2"
"85","71","18","1266.81502579","1","1","1","28","1","right","3","out","Female","Right-handed","3","no","right","s","715.47866883","1617.45557737","7","red","2"
"87","75","18","1226.84409286","1","1","1","29","2","left","3","in","Female","Right-handed","3","no","left","d","1149.07524145","745.019883263","7","green","1"
"88","77","18","1184.43951457","1","1","1","30","3","left","3","out","Female","Right-handed","3","no","left","s","744.729628357","945.676148007","7","red","2"
"90","80","18","1178.66902249","1","1","1","31","1","right","3","out","Female","Right-handed","3","no","right","s","1404.28243054","849.186757066","7","red","0"
"90","81","18","1151.58886936","1","1","1","32","0","right","3","in","Female","Right-handed","3","no","right","s","783.866253103","977.70842307","7","green","2"
"91","83","18","1158.82557465","1","1","1","33","3","left","0","in","Female","Right-handed","3","no","left","d","859.368450219","1617.49021552","7","red","3"
"92","84","18","1125.2566992","1","1","1","34","1","left","3","out","Female","Right-handed","3","no","left","s","970.898497701","473.961889693","7","red","1"
"92","85","18","1142.59335911","1","1","1","35","3","right","3","in","Female","Right-handed","3","no","right","d","1694.48024968","1041.45962619","7","green","1"
"93","86","18","1147.05183867","1","1","1","36","1","left","3","in","Female","Right-handed","3","no","left","d","777.929337521","1641.01176767","7","red","1"
"93","87","18","1153.51831645","1","1","1","37","1","right","1","in","Female","Right-handed","3","no","right","d","1011.5001881","1489.53077809","7","green","3"
"94","82","18","1211.81370302","1","0","1","38","0","left","3","in","Female","Right-handed","3","no","left","None","1288.99831267","3000.08146381","7","red","0"
"94","83","18","1190.93554948","1","1","1","39","2","left","1","out","Female","Right-handed","3","no","left","s","494.569025985","1177.44485237","7","green","3"
"94","84","18","1193.41627427","1","1","1","40","3","left","1","out","Female","Right-handed","3","no","left","s","1243.16241221","1232.97622893","7","green","0"
"95","85","18","1175.40590786","1","1","1","41","3","right","3","in","Female","Right-handed","3","no","right","s","816.74716296","849.670729058","7","green","2"
"95","85","18","1179.56252194","1","1","1","42","3","right","3","out","Female","Right-handed","3","no","right","d","1164.25412988","1361.1354772","7","green","1"
"95","81","18","1222.67045216","1","0","1","43","0","right","0","out","Female","Right-handed","3","no","right","None","1255.79667916","3000.0772944","7","red","3"
"95","82","18","1208.45265241","1","1","1","44","1","left","1","in","Female","Right-handed","3","no","left","s","798.172773193","993.149342725","7","green","2"
"95","83","18","1220.50389401","1","1","1","45","2","left","0","out","Female","Right-handed","3","no","left","d","1753.73202064","1241.6328811","7","green","2"
"96","84","18","1196.47091085","1","1","1","46","1","left","1","in","Female","Right-handed","3","no","left","s","806.170979704","433.18764996","7","red","3"
"96","84","18","1191.25362785","1","1","1","47","0","right","0","out","Female","Right-handed","3","no","right","s","928.891075513","1192.75203026","7","red","2"
"96","85","18","1178.07417157","1","1","1","48","0","left","3","out","Female","Right-handed","3","no","left","d","605.314262677","1065.50235427","7","red","2"
"96","85","18","1172.05460453","1","1","1","49","2","right","3","in","Female","Right-handed","3","no","right","d","674.054963696","1344.99762504","7","red","2"
"96","86","18","1157.32998818","1","1","1","50","2","right","3","in","Female","Right-handed","3","no","right","d","616.609829089","873.471631512","7","green","2"
"96","83","18","1155.17521828","1","0","1","51","3","right","3","in","Female","Right-handed","3","no","right","d","816.144202487","1369.22958009","7","green","2"
"96","80","18","1158.20699916","1","0","1","52","2","right","2","in","Female","Right-handed","3","no","right","d","809.715296818","1688.60555449","7","red","3"
"96","81","18","1152.59585007","1","1","1","53","0","right","3","in","Female","Right-handed","3","no","right","s","1036.19398521","921.106470953","7","red","0"
"96","81","18","1145.85866989","1","1","1","54","2","left","2","out","Female","Right-handed","3","no","left","d","771.848417022","1088.68939165","7","green","3"
"97","79","18","1140.44937403","1","0","1","55","1","left","0","in","Female","Right-handed","3","no","left","d","906.480510104","1017.4047106","7","red","1"
"97","80","18","1142.56257193","1","1","1","56","0","right","1","out","Female","Right-handed","3","no","right","s","683.917857539","1744.90474347","7","green","0"
"97","80","18","1132.01902383","1","1","1","57","0","left","2","out","Female","Right-handed","3","no","left","d","636.493412818","889.496268221","7","green","1"
"97","81","18","1124.58558495","1","1","1","58","3","right","1","out","Female","Right-handed","3","no","right","d","600.88859696","1113.07497332","7","green","3"
"97","78","18","1159.65087188","1","0","1","59","1","right","0","in","Female","Right-handed","3","no","right","d","2440.68264106","2473.45033546","7","green","2"
"97","76","18","1159.19760484","1","0","1","60","3","left","0","in","Female","Right-handed","3","no","left","d","1130.98450295","1152.96241215","7","red","1"
"97","77","18","1152.40493029","1","1","1","61","1","left","3","out","Female","Right-handed","3","no","left","d","1150.55634329","624.424902395","7","green","0"
"97","78","18","1151.25152746","1","1","1","62","1","left","3","out","Female","Right-handed","3","no","left","d","1033.09996411","1177.13086391","7","red","1"
"97","76","18","1167.25548857","1","0","1","63","0","right","3","out","Female","Right-handed","3","no","right","None","646.755607613","3000.08018091","7","green","0"
"97","76","18","1160.27543733","1","1","1","64","0","left","1","in","Female","Right-handed","3","no","left","d","781.090069144","953.13650095","7","red","2"
"97","77","18","1154.3401863","1","1","1","65","1","right","2","out","Female","Right-handed","3","no","right","s","821.592335218","976.656449482","7","red","3"
"97","77","18","1159.55093129","1","1","1","66","1","left","2","out","Female","Right-handed","3","no","left","d","728.369835426","2049.277586","7","green","1"
"97","78","18","1156.62178887","1","1","1","67","2","right","3","out","Female","Right-handed","3","no","right","d","1280.82178381","768.798976507","7","green","0"
"97","78","18","1149.5397073","1","1","1","68","0","right","3","in","Female","Right-handed","3","no","right","s","887.327855587","760.200054588","7","red","1"
"97","79","18","1144.68459474","1","1","1","69","1","left","2","in","Female","Right-handed","3","no","left","d","1104.02351033","728.965098529","7","green","0"
"97","79","18","1135.42448669","1","1","1","70","1","left","2","out","Female","Right-handed","3","no","left","s","877.559254499","504.31934583","7","green","3"
"98","80","18","1142.12793731","1","1","1","71","2","right","3","in","Female","Right-handed","3","no","right","d","916.039357926","2025.154677","7","red","1"
"98","80","18","1139.71574854","1","1","1","72","2","right","2","in","Female","Right-handed","3","no","right","d","949.64157528","1088.57104462","7","red","1"
"98","80","18","1137.51466786","1","1","1","73","2","left","0","in","Female","Right-handed","3","no","left","d","1073.28407232","977.235034952","7","green","3"
"98","81","18","1132.7911151","1","1","1","74","0","left","3","in","Female","Right-handed","3","no","left","s","781.60643423","992.726308224","7","green","1"
"98","81","18","1126.81021628","1","1","1","75","1","left","3","out","Female","Right-handed","3","no","left","d","723.276102333","896.369055426","7","red","0"
"98","80","18","1117.78538625","1","0","1","76","2","right","3","out","Female","Right-handed","3","no","right","d","531.965404182","728.923725179","7","green","2"
"98","80","18","1114.25428566","1","1","1","77","2","right","3","out","Female","Right-handed","3","no","right","d","807.4833809","1032.60412534","7","red","0"
"98","80","18","1111.64884746","1","1","1","78","1","right","3","in","Female","Right-handed","3","no","right","d","978.281876964","953.206739428","7","red","0"
"98","81","18","1111.57230005","1","1","1","79","2","right","3","out","Female","Right-handed","3","no","right","s","1237.692791","976.725405064","7","green","1"
"98","81","18","1108.51520435","1","1","1","80","3","left","2","in","Female","Right-handed","3","no","left","d","661.295614518","1201.11169233","7","green","3"
"98","80","18","1120.66973086","1","0","1","81","3","right","3","out","Female","Right-handed","3","no","right","d","2770.76821975","904.805370454","7","green","0"
"98","80","18","1115.15507391","1","1","1","82","2","right","3","in","Female","Right-handed","3","no","right","s","704.329673128","864.221640571","7","red","0"
"98","80","18","1106.10973235","1","1","1","83","2","left","1","in","Female","Right-handed","3","no","left","s","691.861541032","416.826253415","7","red","2"
"98","80","18","1102.51224519","1","1","1","84","0","left","3","in","Female","Right-handed","3","no","left","d","918.438050139","840.498032521","7","green","2"
"98","79","18","1112.33194431","1","0","1","85","1","right","0","in","Female","Right-handed","3","no","right","d","1925.09627322","1536.84970473","7","red","3"
"98","80","18","1111.5881256","1","1","1","86","3","left","1","out","Female","Right-handed","3","no","left","d","831.425722488","1296.54173304","7","green","3"
"98","78","18","1111.36011496","1","0","1","87","0","right","3","out","Female","Right-handed","3","no","right","d","808.064852888","1385.01399478","7","red","0"
"98","79","18","1113.21453359","1","1","1","88","0","right","2","out","Female","Right-handed","3","no","right","d","1654.68100986","816.531315941","7","red","3"
"98","79","18","1109.78059427","1","1","1","89","3","left","3","in","Female","Right-handed","3","no","left","d","1015.17471902","744.23860044","7","red","2"
"98","79","18","1104.83854583","1","1","1","90","0","right","2","out","Female","Right-handed","3","no","right","s","688.718128487","848.840375515","7","green","3"
"98","80","18","1105.41606953","1","1","1","91","3","left","3","in","Female","Right-handed","3","no","left","s","986.301251236","1304.22915833","7","green","1"
"98","80","18","1108.71090236","1","1","1","92","1","right","3","in","Female","Right-handed","3","no","right","d","605.92075111","2072.77764966","7","green","2"
"98","80","18","1112.92240909","1","1","1","93","3","right","3","in","Female","Right-handed","3","no","right","s","1247.41520788","1576.46356627","7","red","1"
"98","80","18","1109.2101061","1","1","1","94","0","right","1","in","Female","Right-handed","3","no","right","s","1034.91237349","648.936207745","7","green","3"
"98","81","18","1101.09356105","1","1","1","95","2","right","1","in","Female","Right-handed","3","no","right","s","456.57449817","560.597046329","7","green","3"
"98","81","18","1101.29487686","1","1","1","96","1","left","3","out","Female","Right-handed","3","no","left","d","816.173388339","1416.21110544","7","red","2"
"98","81","18","1102.05611969","1","1","1","97","0","left","2","in","Female","Right-handed","3","no","left","d","1021.55615759","1296.74250605","7","green","0"
"98","81","18","1102.58269888","1","1","1","98","2","left","1","out","Female","Right-handed","3","no","left","s","1237.15686177","1048.04857296","7","green","0"
"98","80","18","1102.27802529","1","0","1","99","2","left","3","in","Female","Right-handed","3","no","left","d","980.894812583","1176.74150539","7","red","0"
"98","81","18","1101.84924956","1","1","1","100","0","right","0","out","Female","Right-handed","3","no","right","d","832.405853976","1304.403632","7","green","1"
"98","81","18","1103.45613214","1","1","1","101","0","right","1","in","Female","Right-handed","3","no","right","d","1131.98291569","1328.81679591","7","red","3"
"98","81","18","1103.38836662","1","1","1","102","1","left","3","out","Female","Right-handed","3","no","left","d","547.490353434","1648.44389693","7","green","1"
"98","81","18","1105.92615648","1","1","1","103","3","left","3","in","Female","Right-handed","3","no","left","s","1183.08124988","1439.89301942","7","green","0"
"98","81","18","1109.12577351","1","1","1","104","3","right","1","out","Female","Right-handed","3","no","right","d","886.463505336","1856.52523502","7","green","2"
"98","80","18","1110.79691329","1","0","1","105","0","left","3","out","Female","Right-handed","3","no","left","d","1275.13150471","1223.8715258","7","red","1"
"98","81","18","1113.35831758","1","1","1","106","3","right","3","in","Female","Right-handed","3","no","right","s","1520.57169633","1136.46085936","7","red","0"
"98","81","18","1117.31899944","1","1","1","107","1","left","1","out","Female","Right-handed","3","no","left","s","1244.08032332","1663.87359126","7","red","0"
"98","81","18","1114.17818897","1","1","1","108","0","left","0","in","Female","Right-handed","3","no","left","d","831.642531677","856.494445547","7","red","3"
"98","81","18","1111.74723206","1","1","1","109","2","left","3","in","Female","Right-handed","3","no","left","d","952.187158931","848.320803198","7","green","1"
"98","82","18","1112.58367333","1","1","1","110","3","right","3","out","Female","Right-handed","3","no","right","d","1187.68459651","1184.69641421","7","red","0"
"98","81","18","1112.65258027","1","0","1","111","2","left","0","out","Female","Right-handed","3","no","left","d","845.337752478","1392.23284281","7","red","3"
"98","81","18","1108.63788667","1","1","1","112","3","right","2","in","Female","Right-handed","3","no","right","d","742.857885103","751.773040545","7","green","3"
"98","81","18","1104.38029971","1","1","1","113","3","right","0","out","Female","Right-handed","3","no","right","d","737.4684448","696.411326804","7","red","3"
"98","81","18","1101.96267634","1","1","1","114","3","left","0","out","Female","Right-handed","3","no","left","d","655.035409494","1104.04724388","7","red","2"
"98","81","18","1101.58668782","1","1","1","115","2","right","2","out","Female","Right-handed","3","no","right","d","1036.70169076","1096.53782021","7","green","0"
"98","82","18","1104.51397613","1","1","1","116","3","left","2","out","Female","Right-handed","3","no","left","s","1399.22493922","1360.13321578","7","green","1"
"98","82","18","1099.0682597","1","1","1","117","2","left","0","in","Female","Right-handed","3","no","left","d","626.700436729","536.749959669","7","green","1"
"100","0","18","997.618626861","1","0","2","118","0","right","3","in","Female","Right-handed","3","no","right","s","922.627983975","1072.60926975","7","green","1"
"100","50","18","820.151564379","1","1","2","119","1","right","1","in","Female","Right-handed","3","no","right","s","540.103125484","745.265878308","7","green","3"
"100","66","18","749.248357388","1","1","2","120","0","right","1","out","Female","Right-handed","3","no","right","d","781.95217433","432.931712483","7","red","3"
"100","75","18","819.17067117","1","1","2","121","1","left","3","out","Female","Right-handed","3","no","left","s","1272.47751647","785.397708558","7","red","1"
"100","60","18","857.136438089","1","0","2","122","0","right","3","out","Female","Right-handed","3","no","right","d","889.053669576","1128.94534196","7","red","2"
"100","66","18","850.712225676","1","1","2","123","3","right","2","out","Female","Right-handed","3","no","right","s","811.60820783","825.574119397","7","red","1"
"100","71","18","822.348487053","1","1","2","124","2","right","3","in","Female","Right-handed","3","no","right","d","847.146633892","457.185476735","7","red","1"
"100","75","18","804.032835367","1","1","2","125","3","left","3","in","Female","Right-handed","3","no","left","d","814.768939454","536.877607683","7","red","2"
"100","77","18","831.344383404","1","1","2","126","3","left","1","out","Female","Right-handed","3","no","left","s","1314.46633668","785.207198707","7","red","0"
"100","80","18","828.199675492","1","1","2","127","2","left","3","out","Female","Right-handed","3","no","left","d","1238.90063628","360.893972287","7","green","0"
"100","72","18","858.685250523","1","0","2","128","0","right","0","in","Female","Right-handed","3","no","right","d","957.479419965","1369.6025817","7","red","1"
"100","75","18","864.633356201","1","1","2","129","0","right","1","out","Female","Right-handed","3","no","right","s","731.035049004","1129.08998832","7","red","0"
"100","76","18","849.559795681","1","1","2","130","0","right","3","out","Female","Right-handed","3","no","right","d","464.609267179","872.744871711","7","green","0"
"100","78","18","847.149497497","1","1","2","131","0","left","0","out","Female","Right-handed","3","no","left","s","822.24083845","809.390403756","7","red","2"
"100","73","18","831.424674789","1","0","2","132","2","left","1","out","Female","Right-handed","3","no","left","d","557.958773537","664.595540209","7","red","2"
"100","75","18","842.304087559","1","1","2","133","1","left","3","in","Female","Right-handed","3","no","left","d","1082.48659615","928.503962059","7","red","0"
"100","76","18","849.607904955","1","1","2","134","2","left","3","in","Female","Right-handed","3","no","left","s","579.951115302","1352.98685129","7","red","2"
"100","77","18","845.995619057","1","1","2","135","0","left","3","in","Female","Right-handed","3","no","left","d","576.60725047","992.566267119","7","red","2"
"100","78","18","853.52981112","1","1","2","136","2","left","3","in","Female","Right-handed","3","no","left","d","961.121878514","1017.16865799","7","red","0"
"100","80","18","867.812117838","1","1","2","137","1","left","3","in","Female","Right-handed","3","no","left","d","1325.75997875","952.591912184","7","green","0"
"100","80","18","860.646343081","1","1","2","138","1","left","2","out","Female","Right-handed","3","no","left","d","617.329853692","817.33184218","7","red","3"
"100","77","18","865.789622076","1","0","2","139","1","right","0","in","Female","Right-handed","3","no","right","d","914.855566913","1032.74139507","7","green","3"
"100","78","18","860.189976892","1","1","2","140","3","left","0","out","Female","Right-handed","3","no","left","d","529.450289279","944.545276401","7","red","3"
"100","79","18","851.956600049","1","1","2","141","0","left","0","in","Female","Right-handed","3","no","left","d","564.100952262","761.076913062","7","red","3"
"100","80","18","864.441887921","1","1","2","142","0","left","3","in","Female","Right-handed","3","no","left","s","831.666265229","1496.51132844","7","green","2"
"100","80","18","887.125886033","1","1","2","143","1","left","1","out","Female","Right-handed","3","no","left","d","659.242662405","2249.20901528","7","green","2"
"100","81","18","885.516111416","1","1","2","144","1","right","2","out","Female","Right-handed","3","no","right","s","798.646161307","888.677781451","7","red","3"
"100","78","18","899.23715535","1","0","2","145","2","right","0","out","Female","Right-handed","3","no","right","d","779.290809438","1760.11987367","7","green","3"
"100","79","18","903.392748644","1","1","2","146","3","right","1","out","Female","Right-handed","3","no","right","d","534.75313419","1504.74558756","7","red","3"
"100","80","18","911.541818035","1","1","2","147","1","right","3","in","Female","Right-handed","3","no","right","d","1071.42996887","1224.29969188","7","green","0"
"100","80","18","910.100600768","1","1","2","148","2","right","3","out","Female","Right-handed","3","no","right","d","684.858540022","1048.86962551","7","red","2"
"100","81","18","913.40918842","1","1","2","149","2","right","3","in","Female","Right-handed","3","no","right","s","567.428139461","1464.52267179","7","red","2"
"100","81","18","918.718280005","1","1","2","150","3","left","0","in","Female","Right-handed","3","no","left","s","600.050546051","1577.16787542","7","green","3"
"100","82","18","932.950705925","1","1","2","151","3","right","3","out","Female","Right-handed","3","no","right","s","1084.64923576","1720.59228679","7","green","0"
"100","82","18","933.483467131","1","1","2","152","2","left","1","out","Female","Right-handed","3","no","left","d","975.090676595","928.104019662","7","red","0"
"100","80","18","937.294213458","1","0","2","153","2","left","3","out","Female","Right-handed","3","no","left","d","900.622171819","1240.71849796","7","green","1"
"100","81","18","936.684655999","1","1","2","154","3","right","3","out","Female","Right-handed","3","no","right","d","629.323314781","1200.15786018","7","green","2"
"100","78","18","939.8352976","1","0","2","155","1","right","3","in","Female","Right-handed","3","no","right","s","1151.91749448","960.900579193","7","green","0"
"100","79","18","942.988348085","1","1","2","156","1","right","3","out","Female","Right-handed","3","no","right","s","1389.41977563","736.188757415","7","green","2"
"100","80","18","938.536602908","1","1","2","157","1","right","3","out","Female","Right-handed","3","no","right","d","712.841999659","816.995082347","7","green","2"
"100","78","18","938.26882007","1","0","2","158","2","left","1","in","Female","Right-handed","3","no","left","d","846.629627362","1008.48538575","7","red","3"
"100","78","18","936.754494091","1","1","2","159","2","right","2","in","Female","Right-handed","3","no","right","s","660.258714946","1089.07554293","7","red","1"
"100","79","18","930.496002788","1","1","2","160","1","right","3","in","Female","Right-handed","3","no","right","d","574.634799992","760.643936126","7","green","2"
"100","79","18","932.537539465","1","1","2","161","3","right","2","in","Female","Right-handed","3","no","right","d","560.279209185","1480.36802398","7","green","3"
"100","80","18","941.409383042","1","1","2","162","3","left","0","in","Female","Right-handed","3","no","left","d","1462.73399597","1200.80700486","7","red","2"
"100","80","18","941.95233023","1","1","2","163","1","right","1","out","Female","Right-handed","3","no","right","d","972.484155449","960.28575195","7","green","0"
"100","80","18","941.527502228","1","1","2","164","0","right","3","in","Female","Right-handed","3","no","right","d","794.957839273","1049.01298898","7","red","1"
"100","81","18","941.66366456","1","1","2","165","3","left","3","out","Female","Right-handed","3","no","left","s","1079.60168688","816.524901464","7","green","1"
"100","81","18","943.446843697","1","1","2","166","0","right","2","in","Female","Right-handed","3","no","right","s","946.014832185","1112.06405236","7","green","1"
"100","82","18","938.421003679","1","1","2","167","2","left","0","out","Female","Right-handed","3","no","left","s","455.731957129","928.5777285","7","red","2"
"100","82","18","944.239960056","1","1","2","168","2","left","2","out","Female","Right-handed","3","no","left","s","630.214285095","1840.16127268","7","red","3"
"100","80","18","951.153519016","1","0","2","169","3","left","0","in","Female","Right-handed","3","no","left","d","1206.84045826","1400.64959369","7","green","1"
"100","81","18","943.333140677","1","1","2","170","3","left","3","in","Female","Right-handed","3","no","left","s","753.128418713","320.218515444","7","red","1"
"100","81","18","939.306932574","1","1","2","171","0","left","3","out","Female","Right-handed","3","no","left","s","612.023160094","839.812646067","7","green","0"
"100","81","18","934.774511881","1","1","2","172","1","left","3","out","Female","Right-handed","3","no","left","s","523.519146722","856.528442255","7","green","1"
"100","82","18","940.861811036","1","1","2","173","1","left","1","out","Female","Right-handed","3","no","left","s","1167.19580724","1384.13072183","7","red","3"
"100","82","18","932.886507326","1","1","2","174","2","left","0","in","Female","Right-handed","3","no","left","d","507.732486967","464.806512231","7","green","3"
"100","82","18","928.583755893","1","1","2","175","1","right","0","out","Female","Right-handed","3","no","right","s","646.269711277","720.384137137","7","red","1"
"100","83","18","924.199326034","1","1","2","176","1","left","3","out","Female","Right-handed","3","no","left","d","683.905990765","655.898797577","7","green","1"
"100","83","18","919.186774169","1","1","2","177","0","right","3","in","Female","Right-handed","3","no","right","s","614.552066116","632.340362208","7","red","0"
"100","83","18","914.726133887","1","1","2","178","1","right","2","out","Female","Right-handed","3","no","right","d","934.03035136","360.145082552","7","red","0"
"100","83","18","911.299843418","1","1","2","179","0","right","3","in","Female","Right-handed","3","no","right","s","1092.77861825","311.813631332","7","green","1"
"100","84","18","907.808435854","1","1","2","180","0","left","3","in","Female","Right-handed","3","no","left","d","558.275969233","824.406364569","7","green","2"
"100","82","18","909.062433249","1","0","2","181","1","right","3","out","Female","Right-handed","3","no","right","s","808.025724604","1168.10281374","7","green","2"
"100","83","18","910.846050006","1","1","2","182","2","left","2","in","Female","Right-handed","3","no","left","s","625.441275661","1424.55376916","7","green","3"
"100","83","18","914.909020855","1","1","2","183","3","right","3","out","Female","Right-handed","3","no","right","s","1077.97048637","1280.03376579","7","red","1"
"100","83","18","910.680139843","1","1","2","184","0","right","0","in","Female","Right-handed","3","no","right","d","414.609732234","848.538253835","7","red","3"
"100","82","18","908.674007572","1","0","2","185","2","right","3","out","Female","Right-handed","3","no","right","d","588.190826726","960.335464111","7","green","2"
"100","82","18","908.972839685","1","1","2","186","3","left","3","out","Female","Right-handed","3","no","left","s","946.78264462","911.804202056","7","green","0"
"100","82","18","909.879209515","1","1","2","187","0","right","2","in","Female","Right-handed","3","no","right","s","760.375811151","1184.4616445","7","green","3"
"100","83","18","908.013524004","1","1","2","188","3","left","3","in","Female","Right-handed","3","no","left","d","1050.92097401","503.910102441","7","red","1"
"100","81","18","907.270492558","1","0","2","189","2","right","3","in","Female","Right-handed","3","no","right","s","812.512327815","896.518191926","7","red","0"
"100","82","18","905.507528994","1","1","2","190","3","left","3","out","Female","Right-handed","3","no","left","d","653.061676119","904.08662874","7","red","0"
"100","82","18","902.428446271","1","1","2","191","0","left","3","out","Female","Right-handed","3","no","left","d","547.71101131","807.599803589","7","green","0"
"100","81","18","905.398758393","1","0","2","192","3","left","1","in","Female","Right-handed","3","no","left","d","1138.21521776","1112.18849314","7","red","2"
"100","81","18","903.365471053","1","1","2","193","2","right","3","out","Female","Right-handed","3","no","right","d","837.874192297","663.863648831","7","green","1"
"100","81","18","903.171129316","1","1","2","194","3","left","1","out","Female","Right-handed","3","no","left","d","576.507826135","1200.29448846","7","red","3"
"100","82","18","905.649948913","1","1","2","195","1","right","0","out","Female","Right-handed","3","no","right","d","1441.04634168","751.991774079","7","red","3"
"100","82","18","903.909100079","1","1","2","196","0","left","2","out","Female","Right-handed","3","no","left","s","656.646083691","879.59969839","7","green","0"
"100","82","18","911.99863075","1","1","2","197","1","left","0","in","Female","Right-handed","3","no","left","s","1526.08942609","1576.05368144","7","green","2"
"100","82","18","911.337529341","1","1","2","198","3","right","3","out","Female","Right-handed","3","no","right","d","605.4759074","1111.42292578","7","green","2"
"100","82","18","910.456908473","1","1","2","199","3","left","3","out","Female","Right-handed","3","no","left","d","990.145444972","688.107791371","7","green","0"
"100","83","18","909.352026272","1","1","2","200","3","left","3","in","Female","Right-handed","3","no","left","s","685.712947838","951.790423769","7","red","2"
"100","83","18","911.419247763","1","1","2","201","0","left","1","in","Female","Right-handed","3","no","left","s","557.503025226","1608.49423772","7","green","3"
"100","83","18","907.531421532","1","1","2","202","1","left","2","out","Female","Right-handed","3","no","left","s","666.013780214","495.894256128","7","green","1"
"100","82","18","905.136168934","1","0","2","203","2","right","3","in","Female","Right-handed","3","no","right","d","939.650712698","463.428683408","7","red","1"
"100","82","18","908.636071672","1","1","2","204","2","right","0","in","Female","Right-handed","3","no","right","d","691.179361816","1728.07605256","7","green","1"
"100","82","18","911.829597539","1","1","2","205","3","right","2","in","Female","Right-handed","3","no","right","d","1123.64538355","1255.68731239","7","red","0"
"100","83","18","915.738888508","1","1","2","206","0","right","1","in","Female","Right-handed","3","no","right","d","1151.34788927","1368.16509828","7","green","2"
"100","83","18","917.061053418","1","1","2","207","2","left","2","in","Female","Right-handed","3","no","left","d","877.759065337","1191.70839549","7","green","0"
"100","82","18","912.553729715","1","0","2","208","1","right","3","out","Female","Right-handed","3","no","right","d","414.381056267","599.408136568","7","red","1"
"100","82","18","912.280363386","1","1","2","209","0","right","2","in","Female","Right-handed","3","no","right","d","782.941927533","991.86612738","7","red","3"
"100","82","18","915.509356911","1","1","2","210","2","left","1","in","Female","Right-handed","3","no","left","d","993.62433446","1431.52918794","7","green","3"
"100","82","18","914.420733875","1","1","2","211","0","right","3","in","Female","Right-handed","3","no","right","d","778.306187818","848.051395322","7","red","1"
"100","82","18","917.497816674","1","0","2","212","2","left","3","in","Female","Right-handed","3","no","left","d","997.830304474","1415.65689497","7","green","0"
"100","82","18","916.328012555","1","1","2","213","3","right","2","out","Female","Right-handed","3","no","right","s","731.225238131","879.168004351","7","green","3"
"100","100","18","1079.11114005","1","1","3","214","2","left","3","in","Female","Right-handed","3","no","left","s","822.102606555","1336.11967354","7","green","1"
"100","100","18","896.407061181","1","1","3","215","1","left","3","in","Female","Right-handed","3","no","left","s","538.713750611","888.692214016","7","red","2"
"100","100","18","810.204988387","1","1","3","216","3","right","3","in","Female","Right-handed","3","no","right","d","675.297126414","600.304559186","7","green","2"
"100","100","18","740.010620765","1","1","3","217","0","left","1","in","Female","Right-handed","3","no","left","d","545.99129107","512.863744723","7","green","0"
"100","100","18","742.723437748","1","1","3","218","1","right","2","in","Female","Right-handed","3","no","right","d","650.575747069","856.573664289","7","red","3"
"100","83","18","842.633624433","1","0","3","219","3","right","2","out","Female","Right-handed","3","no","right","d","1036.20168258","1648.16743314","7","green","0"
"100","85","18","847.273709187","1","1","3","220","3","left","0","in","Female","Right-handed","3","no","left","d","677.571698576","1072.65673685","7","red","2"
"100","87","18","861.758683353","1","1","3","221","1","right","1","in","Female","Right-handed","3","no","right","s","654.144118456","1272.16288657","7","red","2"
"100","88","18","847.377929103","1","1","3","222","3","right","0","out","Female","Right-handed","3","no","right","s","503.886689618","960.77710059","7","green","3"
"100","90","18","851.082666843","1","1","3","223","0","left","3","out","Female","Right-handed","3","no","left","s","832.460376998","936.390236017","7","red","2"
"100","90","18","863.205588033","1","1","3","224","2","left","1","in","Female","Right-handed","3","no","left","s","1112.94732531","855.922274546","7","red","3"
"100","91","18","859.031717111","1","1","3","225","0","right","3","out","Female","Right-handed","3","no","right","s","737.62624084","888.612033105","7","red","2"
"100","92","18","867.23170609","1","1","3","226","0","left","2","in","Female","Right-handed","3","no","left","d","819.18049333","1112.08265433","7","green","1"
"100","92","18","840.0469347","1","1","3","227","2","left","1","in","Female","Right-handed","3","no","left","d","396.655622011","576.63419126","7","green","2"
"100","93","18","831.966932964","1","1","3","228","2","left","2","in","Female","Right-handed","3","no","left","s","653.422169507","784.271647804","7","green","3"
"100","93","18","832.208388431","1","1","3","229","3","left","3","out","Female","Right-handed","3","no","left","d","887.932098954","783.728341936","7","red","0"
"100","94","18","855.171432171","1","1","3","230","1","right","3","out","Female","Right-handed","3","no","right","s","996.549334191","1448.61092981","7","green","0"
"100","88","18","864.055942259","1","0","3","231","0","right","0","in","Female","Right-handed","3","no","right","d","630.120313064","1400.06491447","7","red","1"
"100","89","18","864.556400107","1","1","3","232","1","right","1","in","Female","Right-handed","3","no","right","s","786.629608119","960.499674624","7","green","0"
"100","85","18","879.3071904","1","0","3","233","0","right","1","out","Female","Right-handed","3","no","right","s","510.983341934","1808.16106998","7","green","3"
"100","85","18","900.300791444","1","1","3","234","3","right","3","out","Female","Right-handed","3","no","right","s","1119.69054016","1520.65508448","7","red","0"
"100","86","18","895.733636264","1","1","3","235","3","left","2","in","Female","Right-handed","3","no","left","d","767.324609864","832.322145103","7","red","1"
"100","86","18","906.241159619","1","1","3","236","1","right","3","out","Female","Right-handed","3","no","right","d","866.922775196","1407.89057165","7","red","0"
"100","87","18","899.456495012","1","1","3","237","3","right","3","out","Female","Right-handed","3","no","right","d","742.4117585","744.406659636","7","red","1"
"100","88","18","911.17982366","1","1","3","238","3","right","2","out","Female","Right-handed","3","no","right","d","657.092210295","1727.98721211","7","red","3"
"100","88","18","906.78772636","1","1","3","239","2","left","0","in","Female","Right-handed","3","no","left","d","809.503619206","784.466968511","7","red","1"
"100","88","18","896.055827203","1","1","3","240","2","left","3","in","Female","Right-handed","3","no","left","d","754.146395597","479.906502642","7","green","2"
"100","89","18","887.254008966","1","1","3","241","0","left","3","out","Female","Right-handed","3","no","left","s","794.693562981","504.51627015","7","green","1"
"100","89","18","879.891849993","1","1","3","242","0","right","2","in","Female","Right-handed","3","no","right","s","539.309334439","808.193463072","7","red","0"
"100","90","18","922.188191661","1","1","3","243","0","left","1","in","Female","Right-handed","3","no","left","s","1641.8459699","2655.71823015","7","green","3"
"100","87","18","951.380823451","1","0","3","244","2","right","0","in","Female","Right-handed","3","no","right","None","654.228468778","3000.09108552","7","green","2"
"100","87","18","950.456829754","1","1","3","245","0","right","2","in","Female","Right-handed","3","no","right","s","787.823341565","1055.80270877","7","red","3"
"100","84","18","957.271843728","1","0","3","246","3","left","1","in","Female","Right-handed","3","no","left","s","590.424666985","1760.27991478","7","green","3"
"100","85","18","945.718752371","1","1","3","247","3","left","1","out","Female","Right-handed","3","no","left","d","608.94164722","519.991827961","7","green","3"
"100","85","18","950.44134095","1","1","3","248","2","right","1","out","Female","Right-handed","3","no","right","s","933.454973125","1288.56373212","7","red","0"
"100","86","18","946.651629004","1","1","3","249","1","right","3","in","Female","Right-handed","3","no","right","d","788.034057004","839.989364806","7","green","1"
"100","86","18","946.029659154","1","1","3","250","2","left","2","out","Female","Right-handed","3","no","left","s","1214.63532598","632.642163164","7","green","0"
"100","84","18","942.311343299","1","0","3","251","1","right","3","out","Female","Right-handed","3","no","right","d","537.270814886","1072.1964984","7","red","2"
"100","84","18","944.400375096","1","1","3","252","3","left","3","out","Female","Right-handed","3","no","left","s","1319.80510265","727.7620641","7","red","1"
"100","85","18","944.311825659","1","1","3","253","1","left","2","out","Female","Right-handed","3","no","left","d","1042.3316738","839.385121435","7","red","0"
"100","85","18","949.905272704","1","1","3","254","3","right","3","in","Female","Right-handed","3","no","right","d","635.188708988","1712.09760005","7","green","2"
"100","85","18","953.549192113","1","1","3","255","2","right","2","in","Female","Right-handed","3","no","right","d","870.388515014","1335.51126077","7","red","3"
"100","86","18","950.954453833","1","1","3","256","2","left","3","out","Female","Right-handed","3","no","left","d","699.993489306","983.957402769","7","green","1"
"100","86","18","954.697452046","1","1","3","257","2","left","3","out","Female","Right-handed","3","no","left","d","1055.6769851","1175.61576537","7","green","0"
"100","86","18","956.974483333","1","1","3","258","1","left","3","out","Female","Right-handed","3","no","left","d","1026.22685618","1088.10086374","7","red","0"
"100","86","18","947.839167601","1","1","3","259","2","right","2","in","Female","Right-handed","3","no","right","s","705.822962467","367.676956874","7","red","1"
"100","87","18","956.298785011","1","1","3","260","2","left","3","out","Female","Right-handed","3","no","left","s","594.456804775","2096.42556694","7","green","2"
"100","87","18","961.559579444","1","1","3","261","0","left","3","out","Female","Right-handed","3","no","left","d","857.774132928","1559.85970264","7","red","0"
"100","87","18","952.599773186","1","1","3","262","3","right","3","out","Female","Right-handed","3","no","right","s","589.522471342","455.535674249","7","green","0"
"100","88","18","960.628236703","1","1","3","263","1","left","3","out","Female","Right-handed","3","no","left","d","972.019426874","1736.02647125","7","green","2"
"100","86","18","972.501329887","1","0","3","264","0","right","3","in","Female","Right-handed","3","no","right","s","780.679542866","2351.6324353","7","green","1"
"100","86","18","965.973122938","1","1","3","265","0","left","0","out","Female","Right-handed","3","no","left","s","649.97567311","616.093464007","7","red","3"
"100","86","18","962.069498916","1","1","3","266","0","right","3","out","Female","Right-handed","3","no","right","d","574.657571371","943.504528135","7","green","0"
"100","87","18","963.018777788","1","1","3","267","2","right","3","in","Female","Right-handed","3","no","right","d","962.347042882","1064.31407313","7","red","0"
"98","87","18","977.632554431","0","1","3","268","0","right","1","out","Female","Right-handed","3","no","left","s","1130.74331876","2402.80966751","7","green","2"
"98","87","18","983.038283225","1","1","3","269","1","left","1","out","Female","Right-handed","3","no","left","s","577.281732319","1983.4250015","7","green","3"
"98","87","18","982.289262769","1","1","3","270","1","right","0","in","Female","Right-handed","3","no","right","s","544.885115181","1335.80311929","7","red","1"
"98","87","18","979.833325114","1","1","3","271","2","right","3","out","Female","Right-handed","3","no","right","d","720.355913454","959.333844137","7","red","1"
"98","88","18","986.505231484","1","1","3","272","3","left","0","out","Female","Right-handed","3","no","left","s","547.013437361","2199.93816448","7","green","3"
"98","88","18","988.305544232","1","1","3","273","2","right","3","in","Female","Right-handed","3","no","right","d","485.516600817","1703.53139195","7","red","2"
"98","86","18","989.154745373","1","0","3","274","1","right","3","in","Female","Right-handed","3","no","right","d","664.05864881","1416.1549788","7","red","0"
"98","87","18","987.193959669","1","1","3","275","3","right","3","in","Female","Right-handed","3","no","right","d","695.571030829","1039.6010326","7","green","2"
"98","87","18","991.367827183","1","1","3","276","2","left","0","out","Female","Right-handed","3","no","left","d","1972.09351404","528.201712088","7","green","3"
"98","87","18","988.178920362","1","1","3","277","3","right","0","in","Female","Right-handed","3","no","right","s","862.771328204","711.784253046","7","green","1"
"98","87","18","989.634823306","1","1","3","278","3","left","3","out","Female","Right-handed","3","no","left","s","1086.32854482","1079.29667868","7","red","1"
"98","87","18","998.510768302","1","1","3","279","2","left","3","out","Female","Right-handed","3","no","left","d","1302.94305648","1847.95132954","7","red","0"
"98","88","18","996.19403222","1","1","3","280","1","left","1","in","Female","Right-handed","3","no","left","s","863.140481131","823.438420576","7","red","3"
"98","86","18","993.26445186","1","0","3","281","1","left","3","in","Female","Right-handed","3","no","left","s","585.982644359","1007.98249105","7","red","1"
"98","86","18","986.848289591","1","1","3","282","1","left","3","in","Female","Right-handed","3","no","left","d","485.487414964","615.611095629","7","red","1"
"98","87","18","991.252177542","1","1","3","283","0","right","3","out","Female","Right-handed","3","no","right","d","1199.0096695","1391.23122283","7","red","2"
"98","87","18","994.715244351","1","1","3","284","3","right","3","out","Female","Right-handed","3","no","right","d","858.614749631","1615.64509234","7","red","0"
"98","87","18","1001.9162303","1","1","3","285","1","right","3","out","Female","Right-handed","3","no","right","d","579.184585764","2447.18787896","7","green","2"
"98","87","18","1010.1526435","1","1","3","286","3","left","2","out","Female","Right-handed","3","no","left","s","710.704697223","2495.64409168","7","red","3"
"98","87","18","1011.91767495","1","1","3","287","0","left","2","out","Female","Right-handed","3","no","left","s","698.19358816","1583.33635348","7","red","3"
"98","88","18","1008.21610616","1","1","3","288","3","right","1","in","Female","Right-handed","3","no","right","d","684.762322922","783.837708699","7","red","2"
"98","88","18","1002.35799407","1","1","3","289","0","left","3","in","Female","Right-handed","3","no","left","d","726.376858634","399.622315825","7","red","0"
"98","88","18","1002.32072929","1","1","3","290","2","right","0","out","Female","Right-handed","3","no","right","s","503.00983114","1495.96738112","7","green","3"
"98","87","18","1006.39361784","1","0","3","291","0","left","3","in","Female","Right-handed","3","no","left","s","1480.5473085","1159.46476354","7","green","1"
"98","87","18","1008.14337863","1","1","3","292","1","right","2","in","Female","Right-handed","3","no","right","d","530.116111586","1759.13332771","7","green","1"
"98","87","18","1010.4431531","1","1","3","293","2","right","3","in","Female","Right-handed","3","no","right","d","952.670810202","1431.57986228","7","green","0"
"98","87","18","1011.70524931","1","1","3","294","0","left","0","in","Female","Right-handed","3","no","left","s","1018.14494079","1207.20095165","7","red","3"
"98","87","18","1010.62612032","1","1","3","295","2","left","3","in","Female","Right-handed","3","no","left","s","694.709887815","1151.72345667","7","red","1"
"98","86","18","1014.98885","1","0","3","296","3","right","3","out","Female","Right-handed","3","no","right","d","1658.29813124","1087.16723718","7","red","1"
"98","86","18","1015.69410044","1","1","3","297","1","left","3","out","Female","Right-handed","3","no","left","d","548.657787538","1599.80198522","7","red","1"
"98","87","18","1019.80775334","1","1","3","298","1","right","0","in","Female","Right-handed","3","no","right","s","819.385435745","1911.32375802","7","green","2"
"98","87","18","1016.92995008","1","1","3","299","1","left","0","out","Female","Right-handed","3","no","left","d","713.822772599","830.810574516","7","green","3"
"98","87","18","1021.71039986","1","1","3","300","3","left","3","in","Female","Right-handed","3","no","left","d","954.363268931","1911.2948929","7","green","2"
"98","86","18","1022.94081455","1","0","3","301","1","right","0","out","Female","Right-handed","3","no","right","d","693.043086976","1566.93069707","7","green","3"
"98","85","18","1025.59819277","1","0","3","302","0","right","0","in","Female","Right-handed","3","no","right","d","911.439218536","1607.45573452","7","green","2"
"98","85","18","1023.36344608","1","1","3","303","0","left","3","out","Female","Right-handed","3","no","left","s","890.004935937","758.937044833","7","green","1"
"98","84","18","1023.29327621","1","0","3","304","2","left","1","in","Female","Right-handed","3","no","left","d","634.449440961","1399.50653458","7","green","3"
"98","84","18","1031.9106563","1","1","3","305","2","right","3","out","Female","Right-handed","3","no","right","s","1657.07938135","1975.10510916","7","green","2"
"98","84","18","1029.50436397","1","1","3","306","0","left","3","in","Female","Right-handed","3","no","left","s","816.654153099","799.596786219","7","red","0"
"98","85","18","1024.83646796","1","1","3","307","0","left","3","in","Female","Right-handed","3","no","left","d","758.223755423","423.220520927","7","green","2"
"98","85","18","1022.44624169","1","1","3","308","1","right","2","out","Female","Right-handed","3","no","right","d","692.757322199","902.772623925","7","red","3"
"98","85","18","1024.14872726","1","1","3","309","3","right","1","out","Female","Right-handed","3","no","right","s","1036.41464309","1335.35506835","7","green","0"
"100","100","18","1172.81135772","1","1","4","310","1","left","1","out","Female","Right-handed","3","no","left","d","1081.26143179","1264.36128365","7","green","0"
"100","100","18","1034.5607","1","1","4","311","3","left","3","out","Female","Right-handed","3","no","left","s","600.817396309","1191.80268824","7","green","2"
"100","100","18","1203.18693474","1","1","4","312","2","right","0","out","Female","Right-handed","3","no","right","d","904.490740548","2176.38806792","7","red","1"
"100","75","18","1096.50518658","1","0","4","313","1","right","1","in","Female","Right-handed","3","no","right","s","536.912887288","1016.00699691","7","green","3"
"100","80","18","1082.20153697","1","1","4","314","3","right","3","out","Female","Right-handed","3","no","right","d","817.506315853","1232.46756121","7","green","0"
"100","83","18","1038.16659605","1","1","4","315","0","left","3","out","Female","Right-handed","3","no","left","d","724.026274962","911.957507964","7","red","1"
"100","71","18","1103.09744368","1","0","4","316","2","right","0","in","Female","Right-handed","3","no","right","d","777.597067816","2207.76799107","7","red","3"
"100","75","18","1120.23075907","1","1","4","317","3","right","3","out","Female","Right-handed","3","no","right","d","1048.19610584","1432.13182769","7","red","1"
"100","77","18","1138.88658146","1","1","4","318","2","right","1","out","Female","Right-handed","3","no","right","s","504.702610597","2071.56371063","7","red","3"
"100","80","18","1140.81789022","1","1","4","319","0","left","3","out","Female","Right-handed","3","no","left","d","620.207065607","1696.19227255","7","red","1"
"100","81","18","1131.99734826","1","1","4","320","0","right","3","out","Female","Right-handed","3","no","right","s","1143.89298863","943.690868578","7","green","0"
"100","75","18","1190.64626565","1","0","4","321","1","left","3","in","Female","Right-handed","3","no","left","None","671.396806039","3000.17190788","7","red","2"
"100","69","18","1209.68543745","1","0","4","322","3","right","3","in","Female","Right-handed","3","no","right","d","1148.74072668","1727.57027136","7","red","0"
"100","71","18","1195.40129929","1","1","4","323","0","left","3","in","Female","Right-handed","3","no","left","d","691.32593253","1328.08907394","7","green","2"
"100","73","18","1172.86366775","1","1","4","324","1","left","1","in","Female","Right-handed","3","no","left","d","778.754880212","935.918772244","7","green","2"
"100","75","18","1143.52258287","1","1","4","325","1","left","3","in","Female","Right-handed","3","no","left","d","511.440693866","895.371925584","7","green","1"
"100","76","18","1137.10825893","1","1","4","326","2","left","0","out","Female","Right-handed","3","no","left","d","557.049201252","1511.9089504","7","red","2"
"100","77","18","1112.90686958","1","1","4","327","2","left","2","in","Female","Right-handed","3","no","left","s","723.602599017","679.36390236","7","green","3"
"100","78","18","1099.18881223","1","1","4","328","0","left","3","out","Female","Right-handed","3","no","left","d","936.269964648","768.257594977","7","green","0"
"100","80","18","1082.07092226","1","1","4","329","3","right","2","in","Female","Right-handed","3","no","right","s","649.799916548","863.862109356","7","red","3"
"100","76","18","1076.49010234","1","0","4","330","2","left","3","out","Female","Right-handed","3","no","left","d","986.245766046","943.501641625","7","green","0"
"100","77","18","1135.07819782","1","1","4","331","2","left","3","in","Female","Right-handed","3","no","left","s","1899.05351242","2831.8028935","7","red","0"
"100","78","18","1119.12978274","1","1","4","332","1","right","3","in","Female","Right-handed","3","no","right","s","769.229066929","767.300234864","7","red","2"
"100","79","18","1104.47662603","1","1","4","333","0","left","2","out","Female","Right-handed","3","no","left","d","550.979185354","983.928858361","7","red","0"
"100","80","18","1100.11719242","1","1","4","334","2","left","2","in","Female","Right-handed","3","no","left","d","695.516828531","1295.46474301","7","red","3"
"100","80","18","1082.77111505","1","1","4","335","0","right","0","in","Female","Right-handed","3","no","right","d","458.118141127","840.120220055","7","green","3"
"100","81","18","1059.41570826","1","1","4","336","2","left","1","out","Female","Right-handed","3","no","left","s","640.684308819","263.665954768","7","green","3"
"100","82","18","1040.96874718","1","1","4","337","2","right","1","out","Female","Right-handed","3","no","right","s","622.387345015","463.414250844","7","red","0"
"100","82","18","1024.50421625","1","1","4","338","3","left","2","out","Female","Right-handed","3","no","left","d","550.987844894","576.006855791","7","green","1"
"100","83","18","1015.78872842","1","1","4","339","1","right","3","out","Female","Right-handed","3","no","right","s","670.657217291","855.421945645","7","red","0"
"100","83","18","1010.12628039","1","1","4","340","2","right","3","out","Female","Right-handed","3","no","right","d","736.297803458","944.207875113","7","green","0"
"100","84","18","998.989971051","1","1","4","341","2","left","2","out","Female","Right-handed","3","no","left","s","603.838613137","703.690150159","7","green","0"
"100","84","18","988.095690371","1","1","4","342","0","right","3","in","Female","Right-handed","3","no","right","s","647.499045048","631.458372154","7","green","1"
"100","85","18","980.904670119","1","1","4","343","0","right","0","in","Female","Right-handed","3","no","right","s","656.145434066","831.056569558","7","green","2"
"100","85","18","975.882043888","1","1","4","344","3","left","3","in","Female","Right-handed","3","no","left","d","754.614972855","855.610531155","7","red","0"
"100","86","18","968.084909343","1","1","4","345","3","left","0","out","Female","Right-handed","3","no","left","s","623.136555471","767.233845068","7","red","2"
"100","86","18","968.644560202","1","1","4","346","3","left","3","out","Female","Right-handed","3","no","left","s","1305.70160063","671.882381655","7","red","1"
"100","86","18","968.399368336","1","1","4","347","0","left","1","out","Female","Right-handed","3","no","left","d","815.265740396","1103.38879821","7","red","3"
"100","87","18","961.183075057","1","1","4","348","2","left","0","out","Female","Right-handed","3","no","left","s","501.923540123","872.004320791","7","green","3"
"100","87","18","959.153565373","1","1","4","349","3","left","3","out","Female","Right-handed","3","no","left","s","720.517878901","1039.48749643","7","red","2"
"100","85","18","953.543980354","1","0","4","350","0","right","1","out","Female","Right-handed","3","no","right","d","611.101079587","847.22007961","7","green","0"
"100","85","18","946.478392412","1","1","4","351","1","left","3","in","Female","Right-handed","3","no","left","d","569.808229706","743.770343903","7","green","0"
"100","86","18","937.058247451","1","1","4","352","0","right","1","out","Female","Right-handed","3","no","right","d","611.455479226","471.368838938","7","red","2"
"100","84","18","935.349651763","1","0","4","353","1","right","3","in","Female","Right-handed","3","no","right","d","668.862447718","1054.89762661","7","red","0"
"100","84","18","928.689016045","1","1","4","354","1","left","3","in","Female","Right-handed","3","no","left","d","519.546022082","751.696066869","7","red","0"
"100","84","18","923.862166945","1","1","4","355","2","left","3","out","Female","Right-handed","3","no","left","s","870.156952532","543.150962381","7","red","2"
"100","85","18","919.190153937","1","1","4","356","3","left","1","in","Female","Right-handed","3","no","left","s","568.75561467","839.7994964","7","red","3"
"100","83","18","914.173384357","1","0","4","357","0","right","3","out","Female","Right-handed","3","no","right","s","725.374276488","631.396151766","7","red","2"
"100","83","18","911.444886837","1","1","4","358","2","right","3","out","Female","Right-handed","3","no","right","s","706.010265083","854.943746675","7","red","2"
"100","84","18","909.535444614","1","1","4","359","2","left","3","in","Female","Right-handed","3","no","left","d","864.373984307","767.571567078","7","green","0"
"100","84","18","904.105340766","1","1","4","360","0","right","2","in","Female","Right-handed","3","no","right","s","650.092737244","615.107559486","7","red","3"
"100","84","18","897.195227227","1","1","4","361","3","left","3","out","Female","Right-handed","3","no","left","d","569.771025759","519.787847715","7","green","2"
"100","84","18","897.79177951","1","1","4","362","2","right","3","in","Female","Right-handed","3","no","right","s","1042.28516887","815.339827561","7","red","1"
"100","85","18","899.30501916","1","1","4","363","0","left","2","in","Female","Right-handed","3","no","left","d","632.032146772","1326.98129443","7","green","3"
"100","85","18","900.618165689","1","1","4","364","1","right","3","in","Female","Right-handed","3","no","right","d","655.532210436","1287.52394603","7","green","2"
"100","85","18","899.03661143","1","1","4","365","1","right","3","out","Female","Right-handed","3","no","right","s","537.091530365","1087.01072404","7","green","1"
"100","84","18","891.556709515","1","0","4","366","0","left","3","in","Female","Right-handed","3","no","left","s","449.743405039","495.620999572","7","green","2"
"100","84","18","885.810719339","1","1","4","367","1","right","0","out","Female","Right-handed","3","no","right","d","493.25854913","623.320009403","7","red","3"
"100","84","18","881.143751761","1","1","4","368","0","right","3","out","Female","Right-handed","3","no","right","s","533.927270783","686.991993778","7","red","0"
"100","85","18","882.491508574","1","1","4","369","2","right","3","in","Female","Right-handed","3","no","right","s","1084.5087588","839.509562214","7","green","1"
"100","85","18","877.674055163","1","1","4","370","2","right","3","in","Female","Right-handed","3","no","right","s","738.096100995","439.157600078","7","green","1"
"100","85","18","889.989003213","1","1","4","371","1","left","0","in","Female","Right-handed","3","no","left","s","2098.77967856","1183.62198997","7","green","1"
"100","85","18","889.617906484","1","1","4","372","3","right","1","out","Female","Right-handed","3","no","right","s","950.091871291","783.127947252","7","green","0"
"100","85","18","885.910332201","1","1","4","373","1","right","2","out","Female","Right-handed","3","no","right","d","937.813928322","366.852376352","7","green","3"
"100","86","18","879.34137029","1","1","4","374","3","left","3","in","Female","Right-handed","3","no","left","d","470.498074217","447.357541769","7","red","1"
"100","84","18","879.632793671","1","0","4","375","2","left","3","in","Female","Right-handed","3","no","left","d","910.132911089","887.017715813","7","red","1"
"100","85","18","880.6832489","1","1","4","376","3","left","2","out","Female","Right-handed","3","no","left","d","428.579171756","1471.44741624","7","green","3"
"100","85","18","885.756203555","1","1","4","377","1","right","3","in","Female","Right-handed","3","no","right","d","596.169469099","1855.11886179","7","green","2"
"100","85","18","882.849526115","1","1","4","378","3","right","0","out","Female","Right-handed","3","no","right","d","531.634096646","838.756823796","7","red","3"
"100","84","18","883.862037879","1","0","4","379","0","right","0","out","Female","Right-handed","3","no","right","s","692.243522906","1215.20717626","7","green","3"
"100","83","18","892.806043738","1","0","4","380","3","right","3","out","Female","Right-handed","3","no","right","d","1006.85739247","2030.91551529","7","green","1"
"100","83","18","890.244135648","1","1","4","381","2","right","3","in","Female","Right-handed","3","no","right","d","585.251073702","831.446248798","7","green","2"
"100","83","18","887.479443646","1","1","4","382","3","left","0","out","Female","Right-handed","3","no","left","s","897.966900676","478.87633826","7","green","1"
"100","83","18","884.736733511","1","1","4","383","1","left","0","in","Female","Right-handed","3","no","left","s","713.485692038","655.552095301","7","green","3"
"100","84","18","887.748014266","1","1","4","384","0","left","1","out","Female","Right-handed","3","no","left","d","1142.15979799","1079.00578233","7","red","3"
"100","84","18","893.324735942","1","1","4","385","0","right","0","in","Female","Right-handed","3","no","right","d","1080.7287098","1542.42901343","7","red","1"
"100","84","18","897.673617638","1","1","4","386","1","left","1","out","Female","Right-handed","3","no","left","d","577.210852392","1879.16640073","7","green","3"
"100","83","18","901.001777047","1","0","4","387","0","left","3","in","Female","Right-handed","3","no","left","d","843.805655575","1470.73444755","7","red","2"
"100","83","18","902.739295055","1","1","4","388","3","right","3","in","Female","Right-handed","3","no","right","s","1077.27836472","999.253034606","7","red","0"
"100","83","18","901.766259246","1","1","4","389","0","left","3","out","Female","Right-handed","3","no","left","s","858.979091703","790.813768923","7","red","1"
"100","83","18","900.738018391","1","1","4","390","3","left","1","in","Female","Right-handed","3","no","left","d","550.544925525","1086.41257442","7","green","3"
"100","84","18","899.619599451","1","1","4","391","3","left","3","in","Female","Right-handed","3","no","left","s","691.015792752","927.039537852","7","red","2"
"100","83","18","913.044274274","1","0","4","392","0","left","2","in","Female","Right-handed","3","no","left","None","1027.64060605","3000.09461348","7","red","1"
"100","83","18","916.769716322","1","1","4","393","3","right","1","out","Female","Right-handed","3","no","right","s","636.888223638","1815.0745891","7","green","2"
"100","83","18","915.285266806","1","1","4","394","0","right","3","in","Female","Right-handed","3","no","right","s","686.562544801","894.620470059","7","green","0"
"100","83","18","919.673289329","1","1","4","395","3","right","0","in","Female","Right-handed","3","no","right","d","578.131970728","2007.17843685","7","red","3"
"100","83","18","916.863853652","1","1","4","396","1","left","3","in","Female","Right-handed","3","no","left","s","527.778677584","822.726093338","7","green","1"
"98","84","18","911.141433913","0","1","4","397","1","right","2","in","Female","Right-handed","3","no","left","d","17.2645543609","809.317278763","7","red","3"
"98","84","18","909.340992132","1","1","4","398","3","right","2","out","Female","Right-handed","3","no","right","d","694.825348332","806.978882593","7","green","0"
"98","84","18","907.719180497","1","1","4","399","1","left","2","out","Female","Right-handed","3","no","left","d","520.339813127","1006.41607672","7","red","1"
"98","84","18","907.349789279","1","1","4","400","2","left","2","in","Female","Right-handed","3","no","left","d","1093.1006248","655.108534491","7","red","1"
"98","84","18","912.804985362","1","1","4","401","2","right","1","in","Female","Right-handed","3","no","right","s","1067.81509255","1750.64056532","7","green","2"
"98","84","18","911.636923979","1","1","4","402","1","right","0","in","Female","Right-handed","3","no","right","d","802.176045854","806.174507666","7","green","2"
"98","85","18","912.50101173","1","1","4","403","2","right","3","in","Female","Right-handed","3","no","right","d","626.904737695","1358.81760734","7","red","2"
"98","85","18","919.657309813","1","1","4","404","1","right","2","out","Female","Right-handed","3","no","right","s","1066.33366999","2118.36498929","7","red","0"
"98","85","18","916.128083116","1","1","4","405","1","right","3","out","Female","Right-handed","3","no","right","s","346.854294283","814.848799641","7","green","1"
"100","100","18","1186.30789022","1","1","5","406","1","right","3","out","Female","Right-handed","3","no","right","s","876.828004562","1495.78777587","7","red","2"
"100","100","18","875.616551135","1","1","5","407","0","left","1","in","Female","Right-handed","3","no","left","s","730.532475034","399.317949072","7","green","3"
"100","100","18","837.246001564","1","1","5","408","2","right","3","out","Female","Right-handed","3","no","right","s","753.991806796","767.017998049","7","red","0"
"100","100","18","747.080292204","1","1","5","409","0","right","0","in","Female","Right-handed","3","no","right","s","465.478749011","487.68757924","7","red","3"
"100","100","18","731.608855693","1","1","5","410","0","left","1","out","Female","Right-handed","3","no","left","d","700.277971191","639.168248101","7","green","0"
"100","100","18","708.741013189","1","1","5","411","1","left","0","in","Female","Right-handed","3","no","left","d","604.921376198","583.882225143","7","green","1"
"100","100","18","811.627130526","1","1","5","412","1","right","0","in","Female","Right-handed","3","no","right","d","810.515502337","2047.37216677","7","green","3"
"87","100","18","798.714054495","0","1","5","413","0","right","3","in","Female","Right-handed","3","no","left","s","606.858867799","809.786176745","7","green","1"
"88","100","18","834.076058046","1","1","5","414","2","left","2","out","Female","Right-handed","3","no","left","s","906.490773264","1327.45339966","7","red","3"
"90","100","18","898.683108671","1","1","5","415","1","left","3","in","Female","Right-handed","3","no","left","s","769.115530755","2191.17759784","7","green","2"
"90","100","18","949.449505544","1","1","5","416","0","left","0","in","Female","Right-handed","3","no","left","d","674.703787649","2239.5231609","7","green","2"
"91","91","18","904.089742434","1","0","5","417","3","right","3","in","Female","Right-handed","3","no","right","d","467.109308072","343.155388367","7","green","2"
"92","92","18","907.906866883","1","1","5","418","1","right","3","out","Female","Right-handed","3","no","right","d","763.687603616","1143.73711693","7","red","0"
"92","92","18","918.899915113","1","1","5","419","0","left","3","out","Female","Right-handed","3","no","left","s","692.333966974","1431.28511724","7","red","1"
"93","93","18","923.458733075","1","1","5","420","3","left","3","out","Female","Right-handed","3","no","left","d","742.839283132","1231.72508594","7","red","0"
"93","87","18","970.202988406","1","0","5","421","3","left","3","out","Female","Right-handed","3","no","left","d","967.402289131","2375.33134763","7","green","1"
"94","88","18","977.707668425","1","1","5","422","2","right","3","in","Female","Right-handed","3","no","right","d","1452.75852813","742.806569317","7","red","0"
"94","88","18","970.943799914","1","1","5","423","3","left","3","in","Female","Right-handed","3","no","left","d","976.496087649","735.419982815","7","red","0"
"94","84","18","1021.10965118","1","0","5","424","1","left","3","in","Female","Right-handed","3","no","left","None","848.021888749","3000.1680592","7","red","2"
"95","85","18","1003.10228775","1","1","5","425","0","left","3","in","Female","Right-handed","3","no","left","s","754.528698195","567.396067094","7","red","1"
"95","85","18","991.597658772","1","1","5","426","0","right","2","in","Female","Right-handed","3","no","right","s","724.029161476","798.980996802","7","red","3"
"95","81","18","982.940985768","1","0","5","427","1","right","0","in","Female","Right-handed","3","no","right","d","626.68536272","975.616342668","7","red","2"
"95","78","18","999.121154434","1","0","5","428","3","left","0","out","Female","Right-handed","3","no","left","d","1623.08780548","1087.08192469","7","red","2"
"95","79","18","998.414890151","1","1","5","429","2","left","3","in","Female","Right-handed","3","no","left","d","1180.71815799","783.623465297","7","red","0"
"96","76","18","1016.11050085","1","0","5","430","2","right","3","out","Female","Right-handed","3","no","right","d","858.269009531","2023.34130546","7","green","1"
"96","76","18","1018.76941442","1","1","5","431","1","right","3","out","Female","Right-handed","3","no","right","s","699.720553479","1470.76395413","7","red","2"
"96","77","18","1018.77058949","1","1","5","432","3","right","1","out","Female","Right-handed","3","no","right","s","734.266339827","1303.33594296","7","red","2"
"96","78","18","996.344723956","1","1","5","433","2","left","3","in","Female","Right-handed","3","no","left","s","542.85365155","238.839057344","7","green","2"
"96","79","18","991.161315029","1","1","5","434","0","right","3","in","Female","Right-handed","3","no","right","d","796.587436162","895.464293994","7","red","0"
"96","80","18","978.960560291","1","1","5","435","3","right","1","in","Female","Right-handed","3","no","right","d","1011.05630656","239.221039214","7","green","0"
"96","77","18","980.903808365","1","0","5","436","1","right","2","out","Female","Right-handed","3","no","right","d","1183.79614291","894.606358218","7","red","1"
"96","75","18","983.713412246","1","0","5","437","1","right","3","in","Female","Right-handed","3","no","right","d","1262.32917857","879.293086579","7","green","1"
"96","75","18","993.959723931","1","1","5","438","3","left","3","out","Female","Right-handed","3","no","left","s","940.900572783","1702.78282294","7","green","2"
"97","76","18","984.106143078","1","1","5","439","1","right","2","in","Female","Right-handed","3","no","right","s","950.477381124","367.398568738","7","red","3"
"97","77","18","972.289906877","1","1","5","440","1","right","3","out","Female","Right-handed","3","no","right","d","654.031544455","487.044207585","7","green","1"
"97","77","18","973.037123121","1","1","5","441","1","right","1","in","Female","Right-handed","3","no","right","d","823.790254428","1174.58912894","7","green","3"
"97","75","18","974.011679871","1","0","5","442","2","left","2","out","Female","Right-handed","3","no","left","s","659.165368001","1359.02607772","7","green","3"
"97","76","18","977.911593064","1","1","5","443","3","left","0","in","Female","Right-handed","3","no","left","s","597.645760081","1646.77100235","7","red","3"
"97","74","18","984.379285952","1","0","5","444","0","left","1","out","Female","Right-handed","3","no","left","d","1653.25090308","807.05232831","7","green","2"
"97","75","18","985.240169098","1","1","5","445","0","left","3","out","Female","Right-handed","3","no","left","d","1478.8795455","558.749678072","7","red","2"
"97","75","18","982.119300297","1","1","5","446","0","left","3","in","Female","Right-handed","3","no","left","d","1075.30623497","639.26286158","7","green","0"
"97","76","18","992.782289774","1","1","5","447","2","right","1","out","Female","Right-handed","3","no","right","s","708.939434222","2150.99028239","7","red","3"
"97","76","18","982.331941718","1","1","5","448","2","right","3","out","Female","Right-handed","3","no","right","d","520.508513768","566.326132979","7","green","2"
"97","75","18","976.066478316","1","0","5","449","1","right","1","out","Female","Right-handed","3","no","right","s","558.181676479","855.121427579","7","green","2"
"97","73","18","969.146797747","1","0","5","450","2","right","0","out","Female","Right-handed","3","no","right","s","506.612519963","822.749185445","7","green","2"
"97","71","18","985.136933731","1","0","5","451","0","right","1","out","Female","Right-handed","3","no","right","s","1210.18015368","2199.20595238","7","green","3"
"97","72","18","982.810297083","1","1","5","452","3","right","2","in","Female","Right-handed","3","no","right","d","904.751168157","846.818854319","7","red","1"
"97","72","18","981.507976076","1","1","5","453","2","right","1","out","Female","Right-handed","3","no","right","s","977.308480669","863.289296907","7","red","0"
"97","73","18","972.199660477","1","1","5","454","0","left","0","out","Female","Right-handed","3","no","left","d","443.923874314","606.87714905","7","red","3"
"98","74","18","969.856931592","1","1","5","455","3","left","2","out","Female","Right-handed","3","no","left","s","983.508710375","726.617722099","7","green","0"
"98","74","18","969.232457795","1","1","5","456","3","right","0","out","Female","Right-handed","3","no","right","d","500.945974418","1375.07156147","7","green","3"
"98","73","18","962.625313825","1","0","5","457","0","right","3","in","Female","Right-handed","3","no","right","d","868.682265169","382.639677559","7","green","1"
"98","71","18","959.533591437","1","0","5","458","3","left","3","out","Female","Right-handed","3","no","left","s","574.304775349","1023.22327915","7","red","2"
"98","72","18","956.946564339","1","1","5","459","3","left","1","in","Female","Right-handed","3","no","left","d","616.810602096","1022.85765418","7","green","3"
"98","72","18","957.581456738","1","1","5","460","0","left","3","out","Female","Right-handed","3","no","left","s","673.338146324","1310.39314626","7","red","2"
"98","73","18","950.162968853","1","1","5","461","3","left","2","out","Female","Right-handed","3","no","left","d","493.150465259","591.141805078","7","green","3"
"98","73","18","942.179756572","1","1","5","462","2","right","1","in","Female","Right-handed","3","no","right","s","591.581196484","398.658541238","7","green","2"
"98","74","18","939.595559287","1","1","5","463","0","left","3","out","Female","Right-handed","3","no","left","d","538.415477611","1046.17715043","7","red","0"
"98","74","18","931.997447192","1","1","5","464","2","left","0","out","Female","Right-handed","3","no","left","d","359.769194431","622.844696947","7","green","1"
"98","73","18","930.695859682","1","0","5","465","2","left","3","in","Female","Right-handed","3","no","left","d","917.456956478","790.347436727","7","red","1"
"98","73","18","934.972266789","1","1","5","466","2","right","3","out","Female","Right-handed","3","no","right","s","800.057986838","1583.05539956","7","green","1"
"98","74","18","937.942354868","1","1","5","467","1","right","3","out","Female","Right-handed","3","no","right","d","951.670793846","1286.56466158","7","red","0"
"98","74","18","935.72492534","1","1","5","468","3","right","3","out","Female","Right-handed","3","no","right","d","597.18520091","999.30338822","7","green","2"
"98","75","18","932.123591602","1","1","5","469","2","left","3","out","Female","Right-handed","3","no","left","d","795.844640175","614.6344921","7","red","1"
"98","73","18","932.887667255","1","0","5","470","0","left","2","in","Female","Right-handed","3","no","left","d","781.201360253","1182.37565785","7","green","3"
"98","74","18","932.696933047","1","1","5","471","0","left","2","in","Female","Right-handed","3","no","left","s","761.744659711","1078.85375931","7","red","1"
"98","74","18","930.759106506","1","1","5","472","3","left","2","out","Female","Right-handed","3","no","left","d","839.306544141","766.418565537","7","green","3"
"98","75","18","931.211093744","1","1","5","473","2","left","3","in","Female","Right-handed","3","no","left","d","644.027211478","1278.96126589","7","green","2"
"98","73","18","931.767769151","1","0","5","474","3","right","0","in","Female","Right-handed","3","no","right","d","1020.63600142","918.607392228","7","green","1"
"98","74","18","928.615246295","1","1","5","475","1","left","0","out","Female","Right-handed","3","no","left","d","584.108335319","838.074003135","7","red","3"
"98","73","18","935.304304117","1","0","5","476","0","left","3","out","Female","Right-handed","3","no","left","d","1096.5118416","1710.56486171","7","green","0"
"98","73","18","933.60204942","1","1","5","477","1","left","2","in","Female","Right-handed","3","no","left","s","635.286850429","990.197081479","7","green","0"
"98","73","18","939.782290674","1","1","5","478","3","right","3","out","Female","Right-handed","3","no","right","s","930.767950343","1838.75137149","7","green","1"
"98","74","18","937.959036273","1","1","5","479","1","left","3","in","Female","Right-handed","3","no","left","d","579.436674558","1030.28625549","7","red","1"
"98","74","18","948.378293979","1","1","5","480","0","left","3","out","Female","Right-handed","3","no","left","d","1447.90116836","1990.90556003","7","red","2"
"98","75","18","946.424134651","1","1","5","481","2","right","0","in","Female","Right-handed","3","no","right","d","721.355929814","878.368440281","7","green","3"
"98","74","18","945.634160281","1","0","5","482","3","right","1","in","Female","Right-handed","3","no","right","d","492.170654492","1279.02156193","7","red","3"
"98","74","18","950.02309457","1","1","5","483","0","right","0","out","Female","Right-handed","3","no","right","d","1233.52883578","1342.41323383","7","red","1"
"98","73","18","948.721017193","1","0","5","484","2","right","1","in","Female","Right-handed","3","no","right","d","712.131276043","982.186687466","7","red","3"
"98","73","18","952.59581098","1","1","5","485","2","left","3","out","Female","Right-handed","3","no","left","d","1038.62603269","1478.78300767","7","green","0"
"98","72","18","955.06659017","1","0","5","486","1","right","3","in","Female","Right-handed","3","no","right","d","787.159764321","1518.29808634","7","green","0"
"98","73","18","955.171248088","1","1","5","487","1","left","3","in","Female","Right-handed","3","no","left","d","960.668375268","966.628703678","7","red","1"
"98","73","18","951.985164854","1","1","5","488","2","right","2","out","Female","Right-handed","3","no","right","s","615.206342373","766.246336935","7","green","1"
"98","73","18","949.496291281","1","1","5","489","3","left","3","in","Female","Right-handed","3","no","left","s","807.854778897","677.984790644","7","green","1"
"98","72","18","950.608853297","1","0","5","490","2","right","2","in","Female","Right-handed","3","no","right","s","969.597642554","1118.5304827","7","red","0"
"98","73","18","946.730545669","1","1","5","491","3","left","3","in","Female","Right-handed","3","no","left","d","660.006946873","574.141847734","7","red","0"
"98","73","18","949.257853388","1","1","5","492","2","left","3","in","Female","Right-handed","3","no","left","d","1414.66104802","918.551586314","7","red","2"
"98","73","18","953.677304813","1","1","5","493","3","right","3","out","Female","Right-handed","3","no","right","d","966.093415896","1710.24574167","7","red","1"
"98","74","18","956.452147503","1","1","5","494","1","right","1","in","Female","Right-handed","3","no","right","d","970.621392462","1430.65521598","7","green","3"
"98","73","18","954.782992851","1","0","5","495","0","right","3","out","Female","Right-handed","3","no","right","d","950.200917334","662.255540421","7","green","2"
"98","72","18","957.716796001","1","0","5","496","1","right","2","in","Female","Right-handed","3","no","right","s","749.785516054","1693.73264284","7","red","3"
"98","72","18","962.696399837","1","1","5","497","1","right","3","in","Female","Right-handed","3","no","right","s","1105.41192303","1726.26877476","7","red","0"
"98","73","18","963.236966531","1","1","5","498","2","left","0","out","Female","Right-handed","3","no","left","s","563.968493392","1461.9697115","7","green","3"
"98","73","18","961.159217233","1","1","5","499","3","right","3","out","Female","Right-handed","3","no","right","d","689.452264934","846.404800079","7","red","0"
"98","73","18","958.722423315","1","1","5","500","0","left","2","in","Female","Right-handed","3","no","left","d","661.090030659","798.237559371","7","red","0"
"98","73","18","955.977482781","1","1","5","501","1","left","1","in","Female","Right-handed","3","no","left","s","615.739705812","774.676558212","7","green","0"
dis_reply=No
dis_loc=1
