"acc_1","acc_2","age","avg_rt","correct_1","correct_2","count_block_loop","count_trial_sequence","cue_position","detection","dis_position","dis_shape","gender","hand","high_loc","practice","response_keyboard_response_1","response_keyboard_response_2","response_time_keyboard_response_1","response_time_keyboard_response_2","subject_nr","tar_color","tar_position"
"100","0","24","1532.08497578","1","0","0","0","2","right","3","out","Female","Right-handed","0","yes","right","s","1120.27067202","1943.89927955","20","red","0"
"100","50","24","1311.15313033","1","1","0","1","0","right","2","in","Female","Right-handed","0","yes","right","s","978.69511295","1201.7474568","20","green","0"
"100","33","24","1261.65203717","1","0","0","2","0","left","2","in","Female","Right-handed","0","yes","left","s","1004.17476878","1321.12493293","20","green","1"
"100","50","24","1196.57345517","1","1","0","3","3","left","0","in","Female","Right-handed","0","yes","left","s","824.88966544","1177.78575292","20","green","3"
"100","40","24","1238.25386455","1","0","0","4","1","right","0","out","Female","Right-handed","0","yes","right","s","1552.52777648","1257.42322765","20","red","2"
"100","50","24","1207.75923714","1","1","0","5","2","left","0","in","Female","Right-handed","0","yes","left","d","1188.79371087","921.778489341","20","red","1"
"100","42","24","1235.49743314","1","0","0","6","1","left","3","out","Female","Right-handed","0","yes","left","d","1538.42458202","1265.42863622","20","red","0"
"100","37","24","1262.42516477","1","0","0","7","1","right","3","in","Female","Right-handed","0","yes","right","s","1476.06732097","1425.77125141","20","green","1"
"100","44","24","1230.09029278","1","1","0","8","0","right","3","out","Female","Right-handed","0","yes","right","s","909.479326132","1033.34330762","20","red","0"
"100","50","24","1199.62960433","1","1","0","9","2","left","2","in","Female","Right-handed","0","yes","left","s","944.983943307","905.982873111","20","red","3"
"100","45","24","1170.21681058","1","0","0","10","3","right","1","in","Female","Right-handed","0","yes","right","d","878.679943067","873.497803259","20","red","0"
"100","50","24","1133.59489915","1","1","0","11","3","left","1","out","Female","Right-handed","0","yes","left","s","652.241793432","809.265953343","20","green","3"
"100","53","24","1127.71927947","1","1","0","12","1","right","0","in","Female","Right-handed","0","yes","right","s","1288.57956835","825.844118226","20","red","2"
"100","57","24","1100.65236518","1","1","0","13","3","right","2","out","Female","Right-handed","0","yes","right","s","680.31572632","817.249232437","20","red","3"
"100","60","24","1090.13462723","1","1","0","14","3","left","3","out","Female","Right-handed","0","yes","left","s","1132.01691973","753.755672253","20","green","2"
"100","62","24","1081.6862829","1","1","0","15","1","left","2","out","Female","Right-handed","0","yes","left","s","1116.4371458","793.48509002","20","red","0"
"100","64","24","1060.97563253","1","1","0","16","2","left","1","out","Female","Right-handed","0","yes","left","s","689.108494291","770.10195906","20","green","0"
"100","66","24","1087.5077903","1","1","0","17","2","right","3","out","Female","Right-handed","0","yes","right","s","2275.53602177","801.572922792","20","red","1"
"100","68","24","1091.62034379","1","1","0","18","3","left","1","out","Female","Right-handed","0","yes","left","s","1522.17771744","809.11489579","20","green","2"
"100","70","24","1071.12746659","1","1","0","19","2","left","3","out","Female","Right-handed","0","yes","left","s","793.750001991","569.775597774","20","red","0"
"100","71","24","1062.23158593","1","1","0","20","1","left","3","in","Female","Right-handed","0","yes","left","d","895.328665618","873.299279629","20","green","2"
"100","72","24","1054.62641509","1","1","0","21","2","right","2","out","Female","Right-handed","0","yes","right","s","1107.94713433","681.888520834","20","green","1"
"100","100","24","858.618795231","1","1","1","22","1","left","0","out","Female","Right-handed","0","no","left","s","980.102738395","737.134852068","20","green","2"
"100","100","24","952.95928471","1","1","1","23","3","left","3","out","Female","Right-handed","0","no","left","s","1244.87198115","849.727567227","20","red","2"
"100","100","24","949.0808314","1","1","1","24","1","right","3","in","Female","Right-handed","0","no","right","s","1129.27447155","753.373378015","20","green","2"
"100","100","24","1020.04290708","1","1","1","25","3","left","2","out","Female","Right-handed","0","no","left","s","1647.90987349","817.948394775","20","green","1"
"100","100","24","968.718162863","1","1","1","26","3","left","0","in","Female","Right-handed","0","no","left","d","805.345512868","721.492859098","20","green","3"
"100","100","24","942.381407804","1","1","1","27","2","left","1","in","Female","Right-handed","0","no","left","d","596.230873663","1025.16439135","20","red","3"
"100","100","24","920.557704284","1","1","1","28","0","right","0","out","Female","Right-handed","0","no","right","d","865.65628089","713.574685447","20","red","1"
"100","100","24","908.513347589","1","1","1","29","3","right","0","in","Female","Right-handed","0","no","right","d","831.217084458","817.188616988","20","green","3"
"100","88","24","1029.05233252","1","0","1","30","2","right","0","in","Female","Right-handed","0","no","right","s","2616.87829156","1369.85013232","20","red","2"
"100","90","24","1009.2214539","1","1","1","31","1","left","0","out","Female","Right-handed","0","no","left","d","820.284815651","841.202276963","20","red","3"
"100","90","24","1063.81694461","1","1","1","32","3","right","2","in","Female","Right-handed","0","no","right","s","1281.78486519","1937.75883838","20","red","0"
"100","91","24","1038.57212506","1","1","1","33","2","right","0","out","Female","Right-handed","0","no","right","d","656.396998471","865.361221571","20","red","3"
"100","92","24","1032.48484781","1","1","1","34","2","left","0","out","Female","Right-handed","0","no","left","s","814.897096454","1103.97794496","20","green","2"
"100","92","24","1016.30989687","1","1","1","35","3","left","1","in","Female","Right-handed","0","no","left","d","778.473626007","833.597443503","20","green","3"
"100","93","24","1005.19506469","1","1","1","36","0","right","0","in","Female","Right-handed","0","no","right","d","970.178482035","728.996346064","20","green","1"
"93","93","24","1090.2345846","0","1","1","37","3","right","0","out","Female","Right-handed","0","no","None","d","3000.09781859","1731.5569479","20","red","2"
"94","94","24","1078.28437113","1","1","1","38","1","left","0","in","Female","Right-handed","0","no","left","s","677.066225122","1097.09568616","20","green","3"
"94","94","24","1074.07583802","1","1","1","39","2","right","0","in","Female","Right-handed","0","no","right","d","1187.54548163","817.516068724","20","red","1"
"94","94","24","1084.00598167","1","1","1","40","2","right","2","out","Female","Right-handed","0","no","right","s","1036.32917974","1489.16795515","20","green","1"
"95","95","24","1068.31781225","1","1","1","41","1","left","0","in","Female","Right-handed","0","no","left","s","946.700098168","593.785088422","20","red","2"
"95","95","24","1050.24612942","1","1","1","42","0","right","2","in","Female","Right-handed","0","no","right","d","608.242033341","769.382912258","20","red","0"
"95","95","24","1087.70900194","1","1","1","43","1","right","0","out","Female","Right-handed","0","no","right","s","1987.95773083","1760.90091877","20","green","2"
"95","95","24","1069.24163938","1","1","1","44","1","left","3","out","Female","Right-handed","0","no","left","s","900.40785537","425.511470938","20","red","1"
"95","95","24","1053.85763479","1","1","1","45","1","left","1","in","Female","Right-handed","0","no","left","d","623.043107189","777.007950906","20","red","0"
"96","92","24","1040.73192674","1","0","1","46","3","left","2","out","Female","Right-handed","0","no","left","d","441.665006947","1009.76486018","20","red","0"
"96","92","24","1051.51890671","1","1","1","47","0","right","1","out","Female","Right-handed","0","no","right","d","1833.27223681","809.114575037","20","green","2"
"92","92","24","1042.17522678","0","1","1","48","1","left","0","in","Female","Right-handed","0","no","right","d","610.802314419","987.676783028","20","green","3"
"92","92","24","1032.4316877","1","1","1","49","1","right","0","in","Female","Right-handed","0","no","right","d","593.342178705","945.370086178","20","red","3"
"93","89","24","1025.45003377","1","0","1","50","2","left","1","out","Female","Right-handed","0","no","left","s","594.915293914","1065.01215356","20","green","0"
"93","86","24","1022.46840968","1","0","1","51","0","right","3","in","Female","Right-handed","0","no","right","d","766.491330869","1105.5112913","20","green","0"
"93","87","24","1021.45466173","1","1","1","52","0","left","0","in","Female","Right-handed","0","no","left","s","1077.10830311","904.976143473","20","red","3"
"93","87","24","1005.11601204","1","1","1","53","1","right","2","in","Female","Right-handed","0","no","right","d","499.5655893","497.670153796","20","red","0"
"93","87","24","1000.40716438","1","1","1","54","1","left","2","in","Female","Right-handed","0","no","left","d","530.221611989","1169.22646671","20","green","0"
"94","88","24","998.713709237","1","1","1","55","0","left","0","out","Female","Right-handed","0","no","left","d","1004.80561846","880.85376058","20","red","3"
"94","88","24","998.189247481","1","1","1","56","0","left","3","out","Female","Right-handed","0","no","left","d","807.336521888","1153.37857362","20","green","2"
"94","88","24","993.465175321","1","1","1","57","1","right","3","out","Female","Right-handed","0","no","right","s","471.092684864","1185.15261463","20","green","0"
"94","89","24","988.104645063","1","1","1","58","2","right","2","in","Female","Right-handed","0","no","right","s","580.611651589","1009.63945995","20","green","3"
"94","89","24","987.488627853","1","1","1","59","3","right","0","in","Female","Right-handed","0","no","right","d","1008.17474697","921.217235184","20","red","1"
"94","89","24","989.005853434","1","1","1","60","2","right","0","out","Female","Right-handed","0","no","right","s","844.676279812","1248.64457123","20","green","1"
"95","87","24","981.061236198","1","0","1","61","2","right","0","out","Female","Right-handed","0","no","right","s","629.177454772","713.264873164","20","green","1"
"95","87","24","978.21598964","1","1","1","62","2","left","2","in","Female","Right-handed","0","no","left","s","831.967240694","896.845014009","20","green","0"
"95","88","24","975.197648134","1","1","1","63","0","right","0","in","Female","Right-handed","0","no","right","s","709.491962363","993.399330386","20","green","1"
"95","88","24","968.287454556","1","1","1","64","2","left","3","out","Female","Right-handed","0","no","left","d","635.022515926","721.096132591","20","red","0"
"95","88","24","960.385449821","1","1","1","65","3","left","0","in","Female","Right-handed","0","no","left","d","680.631632218","560.56686028","20","red","1"
"95","86","24","980.026778417","1","0","1","66","1","left","0","out","Female","Right-handed","0","no","left","None","688.403559063","3000.08691422","20","green","1"
"95","86","24","971.369407573","1","1","1","67","0","right","1","in","Female","Right-handed","0","no","right","s","482.650671882","680.92476725","20","green","0"
"95","87","24","975.463786829","1","1","1","68","0","right","0","in","Female","Right-handed","0","no","right","s","1230.38873746","1097.2217278","20","green","2"
"95","87","24","974.787831899","1","1","1","69","2","right","3","out","Female","Right-handed","0","no","right","d","1173.02086551","713.015034882","20","green","2"
"95","87","24","968.462821345","1","1","1","70","0","left","2","out","Female","Right-handed","0","no","left","d","592.360785697","737.363843742","20","red","3"
"96","88","24","970.987496221","1","1","1","71","2","left","0","in","Female","Right-handed","0","no","left","s","404.216205381","1785.17692495","20","green","3"
"96","88","24","964.177335638","1","1","1","72","0","right","2","in","Female","Right-handed","0","no","right","s","478.651335114","768.687277858","20","red","0"
"96","86","24","958.699832299","1","0","1","73","2","right","0","out","Female","Right-handed","0","no","right","s","845.342087618","513.352236361","20","green","2"
"96","86","24","956.379387503","1","1","1","74","0","right","0","in","Female","Right-handed","0","no","right","s","926.688019972","744.744496245","20","green","2"
"96","85","24","954.297077041","1","0","1","75","0","left","2","in","Female","Right-handed","0","no","left","s","759.29861833","928.570626798","20","red","1"
"96","85","24","956.04420432","1","1","1","76","1","right","0","out","Female","Right-handed","0","no","right","s","907.903965883","1192.87418894","20","green","1"
"96","85","24","953.80288406","1","1","1","77","3","right","0","out","Female","Right-handed","0","no","right","s","644.551328616","1016.50921081","20","red","2"
"96","85","24","951.071013315","1","1","1","78","1","right","0","out","Female","Right-handed","0","no","right","s","795.17526686","800.997236394","20","red","1"
"96","84","24","946.203866555","1","0","1","79","3","left","0","out","Female","Right-handed","0","no","left","s","608.804249641","728.748752794","20","green","3"
"96","83","24","942.451246571","1","0","1","80","2","left","3","out","Female","Right-handed","0","no","left","s","520.326220168","929.272354842","20","red","0"
"96","83","24","937.360513644","1","1","1","81","1","left","0","in","Female","Right-handed","0","no","left","s","705.012833467","569.001708471","20","red","2"
"96","81","24","934.681951099","1","0","1","82","3","right","3","out","Female","Right-handed","0","no","right","s","755.47022355","792.46617321","20","red","0"
"96","82","24","932.358122426","1","1","1","83","3","right","1","in","Female","Right-handed","0","no","right","d","524.142427719","1057.06671899","20","green","0"
"96","82","24","927.037216793","1","1","1","84","0","left","0","in","Female","Right-handed","0","no","left","s","561.585777119","632.696357992","20","green","3"
"96","81","24","926.58841491","1","0","1","85","0","left","0","in","Female","Right-handed","0","no","left","s","1044.2540884","752.373704192","20","red","2"
"96","81","24","924.069916135","1","1","1","86","2","left","2","in","Female","Right-handed","0","no","left","d","756.865020317","768.906968762","20","red","0"
"96","80","24","923.704183938","1","0","1","87","3","right","0","out","Female","Right-handed","0","no","right","s","711.447692564","1088.41548974","20","red","2"
"97","80","24","919.946574925","1","1","1","88","2","right","1","out","Female","Right-handed","0","no","right","s","470.977868303","872.910891776","20","red","0"
"97","79","24","915.736475158","1","0","1","89","1","left","3","out","Female","Right-handed","0","no","left","d","490.705150092","776.614431525","20","red","0"
"97","79","24","911.859111144","1","1","1","90","1","right","1","in","Female","Right-handed","0","no","right","s","528.315592906","768.081123359","20","green","3"
"97","80","24","908.467918645","1","1","1","91","1","right","0","out","Female","Right-handed","0","no","right","s","748.009712581","600.941559969","20","red","1"
"97","80","24","906.109075097","1","1","1","92","2","right","0","in","Female","Right-handed","0","no","right","s","673.459124839","808.52092852","20","red","3"
"97","80","24","901.70033684","1","1","1","93","2","left","1","out","Female","Right-handed","0","no","left","d","496.118205891","681.24163532","20","green","2"
"97","79","24","896.501458355","1","0","1","94","3","right","1","in","Female","Right-handed","0","no","right","d","595.65037649","448.714038444","20","red","2"
"97","79","24","893.436554345","1","1","1","95","2","right","0","in","Female","Right-handed","0","no","right","s","555.228531477","784.168591752","20","red","3"
"97","80","24","891.46737387","1","1","1","96","3","right","0","out","Female","Right-handed","0","no","right","s","858.632906748","632.863130653","20","green","1"
"97","80","24","892.771000896","1","1","1","97","3","right","3","in","Female","Right-handed","0","no","right","s","1148.60919616","832.476859476","20","green","0"
"97","80","24","892.475826368","1","1","1","98","0","left","3","out","Female","Right-handed","0","no","left","d","627.129678876","1112.95544571","20","red","1"
"97","80","24","889.061833294","1","1","1","99","0","left","1","in","Female","Right-handed","0","no","left","s","547.678219853","704.690513259","20","green","0"
"96","81","24","886.835777884","0","1","1","100","2","right","3","out","Female","Right-handed","0","no","left","s","567.188376473","859.218535363","20","green","1"
"96","81","24","885.747816643","1","1","1","101","3","left","3","out","Female","Right-handed","0","no","left","d","566.822118039","1032.77563912","20","red","1"
"96","81","24","890.305767583","1","1","1","102","0","left","0","in","Female","Right-handed","0","no","left","d","637.501976395","1872.38170928","20","green","3"
"96","80","24","888.563433185","1","0","1","103","2","right","0","out","Female","Right-handed","0","no","right","s","813.88363181","680.985061976","20","green","2"
"96","79","24","886.280866087","1","0","1","104","3","left","1","in","Female","Right-handed","0","no","left","s","693.621939834","704.598788259","20","red","0"
"96","79","24","884.459364185","1","1","1","105","3","right","2","in","Female","Right-handed","0","no","right","s","682.304490299","784.244922339","20","red","3"
"96","78","24","883.239124702","1","0","1","106","1","left","1","in","Female","Right-handed","0","no","left","s","736.687131604","824.790884712","20","red","2"
"96","79","24","880.194659873","1","1","1","107","0","left","1","in","Female","Right-handed","0","no","left","s","474.407932983","768.422365887","20","green","3"
"96","79","24","878.346329529","1","1","1","108","0","left","3","out","Female","Right-handed","0","no","left","s","557.840127236","880.939712632","20","green","0"
"96","78","24","878.325556611","1","0","1","109","0","left","0","in","Female","Right-handed","0","no","left","d","616.590929421","1136.44569609","20","red","1"
"96","78","24","878.5356638","1","1","1","110","2","left","0","out","Female","Right-handed","0","no","left","s","849.991517025","944.058675756","20","green","1"
"96","78","24","876.409883804","1","1","1","111","3","right","0","out","Female","Right-handed","0","no","right","d","549.729844322","824.701084057","20","red","3"
"96","79","24","874.820391182","1","1","1","112","1","right","1","out","Female","Right-handed","0","no","right","d","447.249325458","1016.28278484","20","red","0"
"96","78","24","874.309699221","1","0","1","113","0","left","0","in","Female","Right-handed","0","no","left","d","678.819583089","976.853878616","20","green","2"
"96","78","24","872.483923052","1","1","1","114","3","left","0","out","Female","Right-handed","0","no","left","d","456.505849725","952.519181272","20","green","2"
"96","78","24","871.713861182","1","1","1","115","3","right","0","out","Female","Right-handed","0","no","right","d","632.217207283","967.979007168","20","red","1"
"96","78","24","872.165634019","1","1","1","116","1","left","2","out","Female","Right-handed","0","no","left","s","676.60343094","1152.66113047","20","red","1"
"96","79","24","871.75453448","1","1","1","117","1","left","2","out","Female","Right-handed","0","no","left","s","649.334496906","1016.06565967","20","green","3"
"100","100","24","575.707092052","1","1","2","118","1","right","1","in","Female","Right-handed","0","no","right","s","718.208079052","433.206105052","20","red","0"
"100","100","24","516.060768765","1","1","2","119","1","left","2","in","Female","Right-handed","0","no","left","s","447.904549597","464.924341359","20","red","0"
"100","100","24","544.367889384","1","1","2","120","3","right","0","in","Female","Right-handed","0","no","right","s","696.536292147","505.427969096","20","green","1"
"100","100","24","532.447185189","1","1","2","121","0","right","0","out","Female","Right-handed","0","no","right","d","528.296670615","465.073474596","20","red","3"
"100","100","24","523.427838917","1","1","2","122","2","right","1","in","Female","Right-handed","0","no","right","d","397.806041467","576.894866186","20","green","0"
"100","100","24","504.455262223","1","1","2","123","0","left","0","in","Female","Right-handed","0","no","left","s","409.650107758","409.534649749","20","red","3"
"100","100","24","530.345454461","1","1","2","124","3","right","3","in","Female","Right-handed","0","no","right","d","602.241745335","769.131470443","20","red","0"
"100","100","24","553.508568113","1","1","2","125","1","right","1","out","Female","Right-handed","0","no","right","d","422.677297785","1008.62342957","20","red","3"
"100","88","24","603.592871161","1","0","2","126","3","left","0","out","Female","Right-handed","0","no","left","d","927.274931484","1081.25965961","20","red","1"
"100","90","24","608.267738766","1","1","2","127","3","left","1","out","Female","Right-handed","0","no","left","d","467.856653762","832.826440659","20","green","0"
"100","90","24","619.464550712","1","1","2","128","3","right","2","in","Female","Right-handed","0","no","right","s","589.293451572","873.571888776","20","red","0"
"100","91","24","630.598724023","1","1","2","129","0","left","0","out","Female","Right-handed","0","no","left","d","777.019496687","729.129764193","20","red","1"
"100","92","24","617.253949452","1","1","2","130","1","left","1","in","Female","Right-handed","0","no","left","s","561.541197501","352.692111686","20","red","2"
"100","92","24","619.613397605","1","1","2","131","0","left","0","out","Female","Right-handed","0","no","left","s","603.284715908","697.28773128","20","green","2"
"100","93","24","617.127723597","1","1","2","132","3","left","0","in","Female","Right-handed","0","no","left","d","515.778778616","648.877796368","20","green","3"
"100","93","24","623.374988819","1","1","2","133","2","right","0","out","Female","Right-handed","0","no","right","d","745.573869528","688.594064763","20","red","1"
"100","94","24","627.56297654","1","1","2","134","1","left","0","in","Female","Right-handed","0","no","left","d","644.130548346","745.011011808","20","green","2"
"100","94","24","628.150172586","1","1","2","135","2","right","2","in","Female","Right-handed","0","no","right","d","771.624721732","504.640289","20","red","1"
"100","94","24","626.68380678","1","1","2","136","1","right","0","in","Female","Right-handed","0","no","right","d","607.280845463","593.297599087","20","green","1"
"100","95","24","636.952861388","1","1","2","137","1","left","0","out","Female","Right-handed","0","no","left","d","471.069593274","1193.06020459","20","green","3"
"100","90","24","628.432162709","1","0","2","138","0","right","3","out","Female","Right-handed","0","no","right","d","459.527642088","456.508736184","20","red","0"
"100","90","24","624.355545384","1","1","2","139","2","left","0","out","Female","Right-handed","0","no","left","d","452.203114983","625.290048134","20","green","3"
"100","91","24","647.227269909","1","1","2","140","3","left","0","out","Female","Right-handed","0","no","left","s","579.828461487","1720.98195742","20","green","2"
"100","91","24","648.026474039","1","1","2","141","2","left","2","in","Female","Right-handed","0","no","left","s","475.398626761","857.417711319","20","green","3"
"100","88","24","652.141184607","1","0","2","142","2","right","0","in","Female","Right-handed","0","no","right","s","764.960870962","736.827605491","20","red","1"
"100","88","24","685.458880536","1","1","2","143","1","left","3","out","Female","Right-handed","0","no","left","s","700.339029572","2336.46352796","20","green","2"
"100","88","24","687.088899892","1","1","2","144","0","right","0","in","Female","Right-handed","0","no","right","d","673.905241711","785.033564607","20","green","2"
"100","89","24","686.627407284","1","1","2","145","0","left","1","in","Female","Right-handed","0","no","left","d","523.752436246","824.581777473","20","green","0"
"100","89","24","684.785980189","1","1","2","146","1","right","0","in","Female","Right-handed","0","no","right","s","585.204955598","681.247087487","20","green","3"
"100","90","24","685.437501893","1","1","2","147","1","left","0","in","Female","Right-handed","0","no","left","s","823.854392074","584.80887051","20","red","2"
"100","90","24","692.111752336","1","1","2","148","3","right","0","out","Female","Right-handed","0","no","right","d","1032.29616772","752.382363542","20","green","1"
"100","87","24","706.230734952","1","0","2","149","1","right","1","in","Female","Right-handed","0","no","right","d","742.868624511","1544.96976762","20","green","0"
"100","87","24","704.618609531","1","1","2","150","0","right","2","in","Female","Right-handed","0","no","right","d","545.540963998","760.520228068","20","green","3"
"100","88","24","704.182215059","1","1","2","151","1","left","0","out","Female","Right-handed","0","no","left","s","562.312841794","817.249553162","20","red","3"
"100","85","24","703.784758986","1","0","2","152","3","right","0","in","Female","Right-handed","0","no","right","s","491.698409605","888.844095462","20","red","3"
"100","86","24","706.178438092","1","1","2","153","2","right","0","out","Female","Right-handed","0","no","right","d","931.525710097","648.38870347","20","red","1"
"100","86","24","700.804025401","1","1","2","154","2","left","0","out","Female","Right-handed","0","no","left","s","453.91830767","560.732029378","20","green","3"
"100","84","24","702.10065446","1","0","2","155","2","right","0","in","Female","Right-handed","0","no","right","s","747.485340835","752.666518471","20","green","2"
"100","84","24","706.410187744","1","1","2","156","2","left","3","in","Female","Right-handed","0","no","left","d","628.169763018","1112.17514207","20","green","1"
"100","85","24","711.144863867","1","1","2","157","1","right","0","out","Female","Right-handed","0","no","right","s","966.818333574","824.776131747","20","green","1"
"100","85","24","708.050239279","1","1","2","158","3","right","2","in","Female","Right-handed","0","no","right","s","496.173689869","672.356821655","20","green","3"
"100","85","24","704.073897273","1","1","2","159","2","right","0","out","Female","Right-handed","0","no","right","s","480.983265967","601.104484056","20","red","3"
"100","86","24","703.863903333","1","1","2","160","0","right","2","out","Female","Right-handed","0","no","right","s","725.640687655","664.447628078","20","red","1"
"100","86","24","702.258872313","1","1","2","161","1","right","2","out","Female","Right-handed","0","no","right","d","514.302519849","752.182557044","20","green","0"
"100","84","24","702.425612176","1","0","2","162","2","left","3","in","Female","Right-handed","0","no","left","d","594.65743773","824.866894574","20","red","2"
"100","84","24","702.990721904","1","1","2","163","3","right","1","out","Female","Right-handed","0","no","right","d","632.497834362","824.343484972","20","green","2"
"100","85","24","699.311821884","1","1","2","164","0","left","0","out","Female","Right-handed","0","no","left","s","387.05786402","673.10697792","20","green","2"
"100","85","24","699.734328341","1","1","2","165","1","left","2","out","Female","Right-handed","0","no","left","s","422.532975295","1016.65128829","20","green","3"
"100","85","24","698.468675469","1","1","2","166","3","left","0","in","Female","Right-handed","0","no","left","s","595.189506654","680.245168624","20","red","1"
"100","86","24","694.023522001","1","1","2","167","0","left","0","out","Female","Right-handed","0","no","left","s","447.871195065","504.55080907","20","red","3"
"100","86","24","712.863521408","1","1","2","168","1","right","3","out","Female","Right-handed","0","no","right","s","781.430633622","2528.29634989","20","green","1"
"100","86","24","708.048774392","1","1","2","169","2","left","2","out","Female","Right-handed","0","no","left","s","483.951819362","441.041533748","20","green","0"
"100","86","24","710.247461888","1","1","2","170","3","right","2","out","Female","Right-handed","0","no","right","s","912.535435171","736.622988246","20","red","1"
"100","85","24","710.485073376","1","0","2","171","1","left","0","in","Female","Right-handed","0","no","left","s","678.10887497","768.048089521","20","green","1"
"100","83","24","713.652651668","1","0","2","172","3","left","0","in","Female","Right-handed","0","no","left","d","560.697712674","1208.70604619","20","green","3"
"100","83","24","711.84335669","1","1","2","173","2","right","0","out","Female","Right-handed","0","no","right","d","456.393278175","768.27098761","20","green","3"
"100","84","24","708.520368115","1","1","2","174","2","left","1","in","Female","Right-handed","0","no","left","d","459.959647444","584.906368371","20","green","3"
"100","84","24","708.416231677","1","1","2","175","2","right","1","in","Female","Right-handed","0","no","right","d","716.390898451","688.570011","20","red","2"
"100","84","24","708.979786006","1","1","2","176","2","left","3","in","Female","Right-handed","0","no","left","d","659.085245541","824.246628559","20","red","0"
"100","83","24","708.776451507","1","0","2","177","2","right","2","out","Female","Right-handed","0","no","right","d","560.766666778","832.792765403","20","green","0"
"100","83","24","709.415487208","1","1","2","178","0","left","0","in","Female","Right-handed","0","no","left","d","615.268935333","880.246323213","20","red","1"
"100","83","24","711.479570239","1","1","2","179","2","right","0","out","Female","Right-handed","0","no","right","s","930.899991887","743.877278408","20","green","2"
"100","84","24","709.1156879","1","1","2","180","3","left","3","out","Female","Right-handed","0","no","left","d","524.544927117","600.565038621","20","red","0"
"100","84","24","710.185452003","1","1","2","181","3","right","0","in","Female","Right-handed","0","no","right","s","683.185819711","871.975361253","20","red","2"
"100","84","24","709.263303715","1","1","2","182","0","right","3","in","Female","Right-handed","0","no","right","s","459.785177547","840.706449002","20","red","0"
"100","84","24","706.089119715","1","1","2","183","1","right","0","in","Female","Right-handed","0","no","right","s","615.299724159","384.234595258","20","green","1"
"100","85","24","703.618680546","1","1","2","184","1","left","0","in","Female","Right-handed","0","no","left","s","721.090359672","360.049031151","20","red","2"
"100","85","24","702.156191314","1","1","2","185","3","right","3","out","Female","Right-handed","0","no","right","d","631.684817607","576.654007979","20","red","1"
"100","85","24","698.206607745","1","1","2","186","1","left","3","out","Female","Right-handed","0","no","left","s","467.137607018","392.132243025","20","green","0"
"100","85","24","696.131403388","1","1","2","187","2","left","3","out","Female","Right-handed","0","no","left","d","457.952923287","647.931682208","20","red","0"
"100","85","24","694.93949583","1","1","2","188","0","left","3","out","Female","Right-handed","0","no","left","d","598.488077521","624.523856037","20","red","1"
"100","84","24","694.373229755","1","0","2","189","3","left","1","in","Female","Right-handed","0","no","left","d","492.096098256","816.240578541","20","red","3"
"100","84","24","696.535345363","1","1","2","190","3","left","3","out","Female","Right-handed","0","no","left","d","591.677659249","1112.7376791","20","red","2"
"100","85","24","695.652602885","1","1","2","191","1","left","3","in","Female","Right-handed","0","no","left","d","542.233413085","720.191390865","20","green","0"
"100","85","24","693.642955335","1","1","2","192","0","left","0","out","Female","Right-handed","0","no","left","d","521.886185976","567.971887242","20","green","3"
"100","85","24","693.451225738","1","1","2","193","0","right","1","out","Female","Right-handed","0","no","right","d","701.495533867","656.647478172","20","green","0"
"100","85","24","694.628511163","1","1","2","194","0","right","0","out","Female","Right-handed","0","no","right","s","816.098821786","752.105585037","20","red","1"
"100","85","24","694.275811212","1","1","2","195","0","right","1","in","Female","Right-handed","0","no","right","d","662.76707279","671.468757209","20","green","2"
"100","86","24","695.250082327","1","1","2","196","0","right","1","in","Female","Right-handed","0","no","right","s","518.296083697","1024.19037485","20","red","3"
"100","86","24","695.91446262","1","1","2","197","0","right","3","out","Female","Right-handed","0","no","right","d","568.948790198","927.852221474","20","red","2"
"100","86","24","695.557458948","1","1","2","198","0","right","2","out","Female","Right-handed","0","no","right","d","501.495341421","832.498988952","20","green","0"
"100","86","24","693.632691671","1","1","2","199","3","right","0","in","Female","Right-handed","0","no","right","d","419.160639605","656.292444852","20","green","3"
"100","86","24","692.863240143","1","1","2","200","3","right","2","out","Female","Right-handed","0","no","right","s","515.83682833","743.699601386","20","green","0"
"100","86","24","692.643185136","1","1","2","201","3","left","0","in","Female","Right-handed","0","no","left","d","564.42411957","784.333119402","20","green","2"
"100","87","24","693.187980014","1","1","2","202","0","left","0","out","Female","Right-handed","0","no","left","s","437.955598056","1039.94590152","20","red","2"
"100","87","24","691.698719499","1","1","2","203","2","left","1","in","Female","Right-handed","0","no","left","d","466.638892598","663.584258844","20","red","0"
"100","87","24","691.170464631","1","1","2","204","2","right","0","in","Female","Right-handed","0","no","right","d","739.215661772","552.265430248","20","red","2"
"100","86","24","692.241670091","1","0","2","205","0","left","0","in","Female","Right-handed","0","no","left","d","867.066792765","703.806297417","20","red","1"
"100","85","24","692.502413473","1","0","2","206","1","left","0","in","Female","Right-handed","0","no","left","d","623.573251825","807.322410372","20","green","3"
"100","85","24","690.624236849","1","1","2","207","1","right","0","out","Female","Right-handed","0","no","right","s","630.944924284","415.988110413","20","red","2"
"100","85","24","690.381846912","1","1","2","208","2","right","0","in","Female","Right-handed","0","no","right","d","577.598839242","759.534665791","20","red","1"
"100","85","24","689.71680663","1","1","2","209","3","left","0","in","Female","Right-handed","0","no","left","d","674.292988144","584.103293862","20","green","2"
"100","86","24","689.143240306","1","1","2","210","0","left","2","out","Female","Right-handed","0","no","left","s","552.927068726","719.823208172","20","red","0"
"100","85","24","689.194248452","1","0","2","211","3","right","1","out","Female","Right-handed","0","no","right","d","524.415357591","863.460654626","20","green","0"
"100","85","24","687.503054192","1","1","2","212","2","left","0","out","Female","Right-handed","0","no","left","d","473.05964015","584.001947369","20","red","2"
"100","85","24","685.651619682","1","1","2","213","1","left","2","out","Female","Right-handed","0","no","left","s","475.685347454","543.845335022","20","red","1"
"100","100","24","802.847290441","1","1","3","214","0","left","0","in","Female","Right-handed","0","no","left","s","916.865110106","688.829470775","20","red","1"
"100","100","24","689.403473421","1","1","3","215","0","left","3","in","Female","Right-handed","0","no","left","d","591.451233253","560.468079551","20","green","2"
"100","100","24","644.28844786","1","1","3","216","2","right","1","out","Female","Right-handed","0","no","right","s","427.051231614","681.065561861","20","green","3"
"100","100","24","648.762618996","1","1","3","217","2","left","0","in","Female","Right-handed","0","no","left","s","467.681221751","856.689043052","20","green","1"
"100","100","24","646.166682223","1","1","3","218","0","right","0","out","Female","Right-handed","0","no","right","s","687.303821644","584.262048622","20","red","1"
"100","100","24","638.041181303","1","1","3","219","2","left","0","out","Female","Right-handed","0","no","left","d","497.946611576","696.880741831","20","green","1"
"100","85","24","641.112581671","1","0","3","220","3","right","0","in","Female","Right-handed","0","no","right","d","542.605123686","776.476844068","20","red","1"
"100","87","24","644.16909449","1","1","3","221","0","right","3","out","Female","Right-handed","0","no","right","d","490.012402122","841.11696633","20","green","0"
"100","77","24","650.070042734","1","0","3","222","2","left","0","out","Female","Right-handed","0","no","left","s","497.773103853","896.782153519","20","green","2"
"100","80","24","647.701167119","1","1","3","223","2","left","2","in","Female","Right-handed","0","no","left","s","484.34213156","768.4204416","20","green","0"
"100","81","24","636.67120364","1","1","3","224","1","left","1","in","Female","Right-handed","0","no","left","s","419.829013117","632.914124581","20","red","3"
"100","83","24","631.790573943","1","1","3","225","3","left","1","in","Female","Right-handed","0","no","left","d","395.70983735","760.497457202","20","green","3"
"100","76","24","638.020760283","1","0","3","226","1","right","3","in","Female","Right-handed","0","no","right","s","705.323928647","720.242064097","20","green","2"
"100","78","24","651.937994563","1","1","3","227","2","right","1","out","Female","Right-handed","0","no","right","d","976.794866729","688.929213677","20","red","0"
"100","73","24","657.468266956","1","0","3","228","3","left","2","out","Female","Right-handed","0","no","left","d","829.404073156","640.380087745","20","red","1"
"100","75","24","670.683151742","1","1","3","229","3","right","3","out","Female","Right-handed","0","no","right","d","808.834910131","928.977936943","20","green","2"
"100","76","24","655.563465308","1","1","3","230","2","left","0","in","Female","Right-handed","0","no","left","s","498.59349709","328.703467618","20","red","2"
"100","77","24","647.879637032","1","1","3","231","2","right","0","in","Female","Right-handed","0","no","right","s","418.221901928","616.287210752","20","red","3"
"100","78","24","652.849500852","1","1","3","232","3","right","2","in","Female","Right-handed","0","no","right","s","443.796810578","1040.81728865","20","green","3"
"100","80","24","648.378528723","1","1","3","233","0","left","1","in","Female","Right-handed","0","no","left","d","494.431236264","632.428880286","20","green","2"
"100","80","24","642.294353841","1","1","3","234","2","right","2","out","Female","Right-handed","0","no","right","d","417.113825883","624.107886513","20","green","3"
"100","81","24","650.765848059","1","1","3","235","3","right","0","out","Female","Right-handed","0","no","right","d","872.597551584","784.736901696","20","red","1"
"100","82","24","656.220876224","1","1","3","236","0","left","0","out","Female","Right-handed","0","no","left","s","688.218184834","864.244806871","20","red","2"
"100","83","24","654.268622491","1","1","3","237","0","left","0","in","Female","Right-handed","0","no","left","d","497.964571696","720.769001578","20","red","3"
"100","84","24","653.456501358","1","1","3","238","0","right","2","out","Female","Right-handed","0","no","right","d","491.504696751","776.42649156","20","red","0"
"100","84","24","651.36747663","1","1","3","239","3","right","0","out","Female","Right-handed","0","no","right","d","566.06811317","632.215603691","20","red","3"
"100","85","24","647.287766312","1","1","3","240","3","right","2","in","Female","Right-handed","0","no","right","d","529.65811282","552.772483265","20","green","0"
"100","85","24","645.82818182","1","1","3","241","3","right","0","out","Female","Right-handed","0","no","right","d","492.426115699","720.412685361","20","green","3"
"100","86","24","649.279023968","1","1","3","242","0","left","1","out","Female","Right-handed","0","no","left","d","459.88139257","1031.9238157","20","red","0"
"100","86","24","653.557399888","1","1","3","243","2","right","1","out","Female","Right-handed","0","no","right","s","714.661594218","840.599008923","20","red","2"
"100","87","24","651.189951403","1","1","3","244","1","left","0","in","Female","Right-handed","0","no","left","d","560.108876874","600.224116788","20","red","2"
"100","87","24","647.548636279","1","1","3","245","1","left","0","out","Female","Right-handed","0","no","left","d","516.639582143","552.696152736","20","red","2"
"100","87","24","653.495868453","1","1","3","246","1","right","0","out","Female","Right-handed","0","no","right","s","847.2878756","840.32672047","20","red","1"
"100","88","24","651.15803051","1","1","3","247","0","right","0","in","Female","Right-handed","0","no","right","s","444.0315752","703.987181594","20","red","3"
"100","88","24","648.972696427","1","1","3","248","3","right","0","in","Female","Right-handed","0","no","right","s","572.655633383","576.687041786","20","green","2"
"100","88","24","648.255026974","1","1","3","249","3","right","1","out","Female","Right-handed","0","no","right","d","614.200628159","632.072564069","20","green","0"
"100","89","24","646.704000511","1","1","3","250","1","left","0","in","Female","Right-handed","0","no","left","s","501.877314993","679.856780742","20","red","3"
"100","89","24","644.959347727","1","1","3","251","2","left","1","out","Female","Right-handed","0","no","left","d","592.365275748","568.449113634","20","green","0"
"100","89","24","642.448249672","1","1","3","252","0","left","0","out","Female","Right-handed","0","no","left","d","533.882913413","560.170133773","20","red","2"
"100","90","24","645.915520985","1","1","3","253","1","right","0","out","Female","Right-handed","0","no","right","d","802.552712179","759.725492215","20","red","1"
"100","90","24","653.93415266","1","1","3","254","0","left","0","out","Female","Right-handed","0","no","left","s","437.16855938","1512.19027993","20","red","1"
"100","88","24","649.609820691","1","0","3","255","2","left","0","in","Female","Right-handed","0","no","left","s","440.908436343","503.715983592","20","green","3"
"100","88","24","648.383907627","1","1","3","256","2","right","2","out","Female","Right-handed","0","no","right","d","545.434165368","648.356952501","20","green","0"
"100","88","24","648.932256243","1","1","3","257","3","left","0","in","Female","Right-handed","0","no","left","s","505.024828279","839.9976652","20","green","2"
"100","88","24","648.381416065","1","1","3","258","2","left","0","in","Female","Right-handed","0","no","left","d","399.534062832","848.754833598","20","green","3"
"100","89","24","645.869320705","1","1","3","259","1","right","0","out","Female","Right-handed","0","no","right","s","441.335630952","624.314428045","20","green","3"
"100","89","24","642.945582181","1","1","3","260","1","right","2","in","Female","Right-handed","0","no","right","s","408.969867713","607.937352499","20","green","3"
"100","89","24","644.352951998","1","1","3","261","3","right","3","in","Female","Right-handed","0","no","right","s","693.530535587","727.468131197","20","red","0"
"100","89","24","642.683523874","1","1","3","262","3","left","0","out","Female","Right-handed","0","no","left","s","701.087902969","424.014044838","20","green","1"
"100","90","24","643.463999714","1","1","3","263","0","right","3","in","Female","Right-handed","0","no","right","s","691.682886914","671.731744893","20","green","0"
"100","90","24","640.982811806","1","1","3","264","0","left","0","in","Female","Right-handed","0","no","left","d","545.409149461","488.437683322","20","red","3"
"100","88","24","640.26370767","1","0","3","265","1","right","2","in","Female","Right-handed","0","no","right","s","471.060292504","736.118500965","20","red","0"
"100","88","24","639.334136903","1","1","3","266","3","right","1","in","Female","Right-handed","0","no","right","s","726.412973367","455.579940695","20","green","2"
"100","88","24","637.341104345","1","1","3","267","1","right","2","in","Female","Right-handed","0","no","right","s","551.191670849","512.229086627","20","green","0"
"100","89","24","636.243452167","1","1","3","268","3","left","0","in","Female","Right-handed","0","no","left","s","529.924628383","624.015840818","20","green","3"
"100","89","24","634.677401877","1","1","3","269","0","right","3","in","Female","Right-handed","0","no","right","s","697.555529681","399.533742137","20","red","1"
"100","87","24","635.799460463","1","0","3","270","3","left","0","in","Female","Right-handed","0","no","left","d","789.095761837","608.173720655","20","red","3"
"100","87","24","635.66756559","1","1","3","271","0","right","1","out","Female","Right-handed","0","no","right","d","592.660976516","663.638139231","20","green","0"
"100","88","24","636.889410312","1","1","3","272","1","right","1","out","Female","Right-handed","0","no","right","s","487.312929996","928.199878341","20","green","0"
"100","86","24","636.649292376","1","0","3","273","0","right","0","out","Female","Right-handed","0","no","right","d","612.983508443","631.981159823","20","red","1"
"100","86","24","634.56348362","1","1","3","274","0","right","0","out","Female","Right-handed","0","no","right","s","691.361528821","327.468387753","20","red","2"
"100","87","24","634.339940334","1","1","3","275","2","left","3","out","Female","Right-handed","0","no","left","d","617.246474285","624.161125481","20","green","2"
"100","87","24","633.409675098","1","1","3","276","3","left","0","out","Female","Right-handed","0","no","left","s","519.654960196","631.81150073","20","red","2"
"100","87","24","632.901461289","1","1","3","277","2","right","0","in","Female","Right-handed","0","no","right","d","530.436812871","671.331169782","20","red","3"
"100","87","24","631.787553041","1","1","3","278","1","left","1","in","Female","Right-handed","0","no","left","s","496.962973586","624.03187668","20","green","2"
"100","87","24","630.771431154","1","1","3","279","2","right","0","in","Female","Right-handed","0","no","right","s","665.718307515","463.728709612","20","green","1"
"100","86","24","629.344234617","1","0","3","280","2","left","0","out","Female","Right-handed","0","no","left","s","487.039037951","583.25948834","20","red","2"
"100","86","24","628.667081372","1","1","3","281","2","right","0","in","Female","Right-handed","0","no","right","d","606.83248358","559.763144323","20","green","2"
"100","86","24","629.808495015","1","1","3","282","1","left","0","out","Female","Right-handed","0","no","left","d","583.44133466","831.407910853","20","red","3"
"100","87","24","630.040194044","1","1","3","283","2","left","0","in","Female","Right-handed","0","no","left","d","715.985833318","576.069020812","20","green","1"
"100","85","24","631.070636187","1","0","3","284","2","left","2","in","Female","Right-handed","0","no","left","d","758.63473484","647.768437426","20","red","1"
"100","86","24","630.282125448","1","1","3","285","3","right","0","in","Female","Right-handed","0","no","right","s","532.273236488","616.322489572","20","red","1"
"100","84","24","631.248339824","1","0","3","286","2","left","3","out","Female","Right-handed","0","no","left","s","649.751107848","751.880441967","20","green","0"
"100","85","24","629.475396217","1","1","3","287","2","left","3","in","Female","Right-handed","0","no","left","d","496.539948305","503.561077465","20","red","1"
"100","85","24","628.884289812","1","1","3","288","1","left","0","out","Female","Right-handed","0","no","left","d","602.131418767","568.153412896","20","green","1"
"100","84","24","629.507638906","1","0","3","289","3","left","0","out","Female","Right-handed","0","no","left","d","592.701386835","759.816255013","20","red","2"
"100","84","24","629.342850855","1","1","3","290","0","right","0","out","Female","Right-handed","0","no","right","d","522.34769729","711.290220672","20","green","3"
"100","83","24","630.721816512","1","0","3","291","2","left","3","out","Female","Right-handed","0","no","left","s","505.839769321","967.964574927","20","red","0"
"100","83","24","632.611069671","1","1","3","292","1","right","0","in","Female","Right-handed","0","no","right","d","696.473431657","863.472200436","20","green","2"
"100","82","24","632.736265149","1","0","3","293","0","left","2","out","Female","Right-handed","0","no","left","s","469.081470685","816.171945189","20","red","3"
"100","82","24","632.038417643","1","1","3","294","1","left","3","in","Female","Right-handed","0","no","left","s","520.820123813","631.601110566","20","red","0"
"100","82","24","630.859156051","1","1","3","295","1","left","0","out","Female","Right-handed","0","no","left","d","447.293905076","623.384029022","20","green","3"
"100","83","24","630.028799081","1","1","3","296","0","right","1","in","Female","Right-handed","0","no","right","d","491.920986969","631.958068203","20","green","3"
"100","83","24","631.617564488","1","1","3","297","3","right","3","in","Female","Right-handed","0","no","right","d","727.476469823","799.49371668","20","red","1"
"100","83","24","634.263902157","1","1","3","298","1","right","0","in","Female","Right-handed","0","no","right","s","641.133451165","1071.97908158","20","red","2"
"100","83","24","631.722376904","1","1","3","299","3","left","1","out","Female","Right-handed","0","no","left","s","455.694757286","375.690703426","20","green","0"
"100","83","24","630.516909475","1","1","3","300","0","right","0","in","Female","Right-handed","0","no","right","s","686.300619912","367.392801272","20","red","2"
"100","84","24","628.061477419","1","1","3","301","1","left","3","out","Female","Right-handed","0","no","left","s","493.921617482","334.956159641","20","green","0"
"100","84","24","627.263615939","1","1","3","302","3","left","2","out","Female","Right-handed","0","no","left","d","490.699697926","623.403913429","20","green","0"
"98","84","24","627.451680205","0","1","3","303","1","right","2","out","Female","Right-handed","0","no","left","s","558.209272102","730.16952764","20","red","1"
"98","84","24","627.153970539","1","1","3","304","3","left","3","out","Female","Right-handed","0","no","left","s","560.787513358","639.932687976","20","green","0"
"98","83","24","627.34771742","1","0","3","305","0","left","2","in","Female","Right-handed","0","no","left","s","642.45159665","647.505770495","20","red","1"
"98","83","24","628.166633452","1","1","3","306","1","left","0","in","Female","Right-handed","0","no","left","d","632.054603921","774.959212868","20","green","1"
"98","84","24","627.241252469","1","1","3","307","1","right","1","in","Female","Right-handed","0","no","right","s","538.66511953","543.696522509","20","red","0"
"98","84","24","627.209444505","1","1","3","308","0","right","2","out","Female","Right-handed","0","no","right","s","665.184955695","583.254036144","20","red","0"
"98","84","24","629.14392986","1","1","3","309","1","right","3","out","Female","Right-handed","0","no","right","s","1241.92106712","383.919010055","20","green","1"
"100","100","24","535.289576685","1","1","4","310","3","left","0","in","Female","Right-handed","0","no","left","s","709.829677013","360.749476356","20","green","1"
"100","100","24","475.49708678","1","1","4","311","3","left","1","out","Female","Right-handed","0","no","left","d","375.180122501","456.229071249","20","red","3"
"100","100","24","511.98357803","1","1","4","312","2","left","1","out","Female","Right-handed","0","no","left","d","674.020058243","495.89306282","20","green","0"
"100","100","24","514.75220469","1","1","4","313","0","left","0","out","Female","Right-handed","0","no","left","d","405.472773244","640.643396095","20","red","3"
"100","100","24","588.532262653","1","1","4","314","0","right","0","in","Female","Right-handed","0","no","right","s","655.226061936","1112.07892708","20","red","1"
"100","100","24","614.828056847","1","1","4","315","2","left","0","in","Female","Right-handed","0","no","left","s","820.81367739","671.800378244","20","red","2"
"100","100","24","609.325803638","1","1","4","316","3","left","1","out","Female","Right-handed","0","no","left","d","464.305358182","688.319210574","20","red","2"
"100","100","24","628.902099474","1","1","4","317","2","right","0","in","Female","Right-handed","0","no","right","d","547.873536271","983.998804382","20","green","2"
"100","100","24","623.81259556","1","1","4","318","0","left","1","out","Female","Right-handed","0","no","left","d","478.611245548","687.581882958","20","red","2"
"100","100","24","612.055322339","1","1","4","319","1","left","3","in","Female","Right-handed","0","no","left","d","428.155138332","584.324588359","20","red","2"
"100","100","24","617.745961322","1","1","4","320","3","left","1","out","Female","Right-handed","0","no","left","s","701.687963854","647.616738454","20","red","0"
"100","100","24","619.6355595","1","1","4","321","0","right","3","out","Female","Right-handed","0","no","right","d","672.361632402","608.480646508","20","green","2"
"100","100","24","623.666494044","1","1","4","322","3","right","0","out","Female","Right-handed","0","no","right","s","439.923194761","904.152222385","20","red","3"
"100","100","24","627.560687721","1","1","4","323","3","right","3","out","Female","Right-handed","0","no","right","d","716.665431886","639.70497917","20","green","1"
"100","100","24","630.206121388","1","1","4","324","2","left","1","out","Female","Right-handed","0","no","left","s","670.158629684","664.325755759","20","green","0"
"100","100","24","645.313371444","1","1","4","325","0","left","0","in","Female","Right-handed","0","no","left","s","495.886969177","1247.95727539","20","green","3"
"100","100","24","638.67483724","1","1","4","326","3","right","2","out","Female","Right-handed","0","no","right","s","480.444782676","584.47179728","20","red","0"
"100","100","24","642.053703075","1","1","4","327","2","right","2","out","Female","Right-handed","0","no","right","d","695.026999543","703.961844992","20","red","1"
"100","100","24","646.426930285","1","1","4","328","0","right","0","in","Female","Right-handed","0","no","right","s","858.663695544","591.626344569","20","red","2"
"100","100","24","644.34372872","1","1","4","329","0","right","0","out","Female","Right-handed","0","no","right","s","481.214502681","728.311295301","20","green","3"
"100","100","24","640.08514294","1","1","4","330","0","right","1","out","Female","Right-handed","0","no","right","d","453.832355619","655.994499073","20","green","3"
"100","100","24","635.508459964","1","1","4","331","2","right","2","in","Female","Right-handed","0","no","right","s","463.393240003","615.40299491","20","green","0"
"100","100","24","636.561314448","1","1","4","332","1","left","0","in","Female","Right-handed","0","no","left","s","583.248263225","736.199962994","20","red","1"
"100","100","24","633.510109682","1","1","4","333","3","right","0","in","Female","Right-handed","0","no","right","s","454.827860143","671.83693996","20","green","3"
"100","100","24","629.382328573","1","1","4","334","2","left","2","out","Female","Right-handed","0","no","left","s","516.31533759","544.315826352","20","green","0"
"100","100","24","631.941896698","1","1","4","335","3","right","0","out","Female","Right-handed","0","no","right","s","792.026470677","599.835728935","20","red","1"
"100","100","24","627.060344702","1","1","4","336","3","right","0","in","Female","Right-handed","0","no","right","s","472.644632799","527.635352861","20","green","3"
"100","100","24","620.499102473","1","1","4","337","0","right","2","in","Female","Right-handed","0","no","right","s","430.242362374","456.448762154","20","red","0"
"100","100","24","622.875278387","1","1","4","338","1","left","1","out","Female","Right-handed","0","no","left","s","570.915104036","807.901303953","20","red","0"
"100","96","24","626.977899734","1","0","4","339","2","right","3","in","Female","Right-handed","0","no","right","d","676.391757966","815.516079601","20","red","2"
"100","93","24","628.175763529","1","0","4","340","3","left","3","out","Female","Right-handed","0","no","left","s","480.109313066","848.114041699","20","red","2"
"100","90","24","628.925361454","1","0","4","341","3","left","2","in","Female","Right-handed","0","no","left","d","536.702012847","767.623781402","20","red","0"
"100","90","24","626.649041243","1","1","4","342","2","left","0","in","Female","Right-handed","0","no","left","s","403.262394015","704.351195018","20","green","3"
"100","91","24","625.422777662","1","1","4","343","2","left","0","out","Female","Right-handed","0","no","left","d","498.005623435","671.906535485","20","red","1"
"100","91","24","625.795030255","1","1","4","344","1","right","2","out","Female","Right-handed","0","no","right","s","629.601121473","647.302115423","20","red","0"
"100","91","24","625.372561398","1","1","4","345","3","left","0","in","Female","Right-handed","0","no","left","d","669.025537703","552.146765084","20","green","2"
"100","91","24","624.530773104","1","1","4","346","2","left","3","in","Female","Right-handed","0","no","left","d","500.626519992","687.826269073","20","red","0"
"100","89","24","624.235751186","1","0","4","347","1","left","1","in","Female","Right-handed","0","no","left","s","467.333244189","759.306636231","20","red","2"
"100","89","24","631.1343856","1","1","4","348","2","right","3","in","Female","Right-handed","0","no","right","d","746.78649925","1039.77848741","20","red","1"
"100","90","24","632.056921112","1","1","4","349","3","right","0","out","Female","Right-handed","0","no","right","d","576.585374597","759.48623757","20","green","1"
"100","90","24","632.703566275","1","1","4","350","0","left","0","in","Female","Right-handed","0","no","left","s","557.077463018","760.061282548","20","red","1"
"100","90","24","638.573028793","1","1","4","351","1","right","2","out","Female","Right-handed","0","no","right","d","630.77430302","1127.66768108","20","red","1"
"100","90","24","637.948637763","1","1","4","352","1","right","0","in","Female","Right-handed","0","no","right","d","632.296745025","591.151683911","20","red","2"
"100","90","24","657.423390191","1","1","4","353","3","left","0","out","Female","Right-handed","0","no","left","d","925.951654528","2063.72383473","20","green","2"
"100","91","24","658.190389025","1","1","4","354","0","left","1","out","Female","Right-handed","0","no","left","d","632.50489012","751.371785329","20","green","0"
"100","91","24","656.472691093","1","1","4","355","3","left","0","in","Female","Right-handed","0","no","left","s","502.127153246","656.225415063","20","green","2"
"100","91","24","656.347823058","1","1","4","356","3","right","2","out","Female","Right-handed","0","no","right","d","717.674085812","583.533701079","20","green","1"
"100","91","24","653.108770734","1","1","4","357","1","right","2","in","Female","Right-handed","0","no","right","s","506.404551357","495.342071575","20","red","3"
"100","91","24","655.216594261","1","1","4","358","3","right","1","out","Female","Right-handed","0","no","right","s","816.868541791","695.915705379","20","green","0"
"100","92","24","655.02258647","1","1","4","359","0","left","3","in","Female","Right-handed","0","no","left","s","595.432289178","695.600120205","20","red","0"
"100","92","24","655.022145893","1","1","4","360","1","right","3","out","Female","Right-handed","0","no","right","d","654.0724441","655.927790008","20","red","1"
"100","92","24","653.256337403","1","1","4","361","0","left","0","out","Female","Right-handed","0","no","left","d","534.723191056","591.677017801","20","red","1"
"100","92","24","653.04174549","1","1","4","362","2","right","0","in","Female","Right-handed","0","no","right","d","628.34166715","655.424264871","20","green","1"
"100","92","24","653.503899599","1","1","4","363","2","left","0","out","Female","Right-handed","0","no","left","s","563.965494715","792.030639976","20","green","1"
"100","92","24","650.370869456","1","1","4","364","1","left","0","in","Female","Right-handed","0","no","left","s","482.826424617","479.548058909","20","green","3"
"100","92","24","651.466876107","1","1","4","365","2","right","0","out","Female","Right-handed","0","no","right","s","752.280375629","671.21410821","20","green","2"
"100","92","24","649.692568604","1","1","4","366","1","left","1","out","Female","Right-handed","0","no","left","d","444.85709988","655.805596965","20","green","3"
"100","91","24","649.394963042","1","0","4","367","2","left","0","in","Female","Right-handed","0","no","left","s","649.391905201","615.470986842","20","red","1"
"100","91","24","649.762099175","1","1","4","368","3","left","0","out","Female","Right-handed","0","no","left","s","775.096158876","567.015830893","20","green","2"
"100","91","24","648.343509138","1","1","4","369","1","left","0","out","Female","Right-handed","0","no","left","s","473.694659159","655.598734709","20","green","2"
"100","91","24","647.499784659","1","1","4","370","1","right","0","in","Female","Right-handed","0","no","right","s","562.315407529","631.437224365","20","green","2"
"100","91","24","646.874858748","1","1","4","371","3","left","0","out","Female","Right-handed","0","no","left","s","721.804916393","495.703839988","20","green","1"
"100","92","24","646.597712177","1","1","4","372","2","left","0","in","Female","Right-handed","0","no","left","d","563.373772486","695.455476991","20","red","2"
"100","92","24","647.566188","1","1","4","373","2","right","3","in","Female","Right-handed","0","no","right","s","593.959237536","823.201092222","20","green","0"
"100","92","24","649.605337178","1","1","4","374","1","right","0","out","Female","Right-handed","0","no","right","s","648.610318662","911.611450458","20","red","3"
"100","92","24","651.14821278","1","1","4","375","1","right","0","out","Female","Right-handed","0","no","right","d","847.456572548","655.413681204","20","red","1"
"100","92","24","651.541178302","1","1","4","376","1","right","0","out","Female","Right-handed","0","no","right","d","620.057235094","734.896570473","20","green","1"
"100","92","24","651.194030957","1","1","4","377","2","right","1","out","Female","Right-handed","0","no","right","d","624.393324368","631.476993236","20","red","2"
"100","92","24","650.3094523","1","1","4","378","0","right","2","in","Female","Right-handed","0","no","right","s","541.102566145","639.213641232","20","green","1"
"100","92","24","650.081109243","1","1","4","379","1","right","0","out","Female","Right-handed","0","no","right","d","604.875149817","663.775726687","20","green","1"
"100","92","24","649.071960944","1","1","4","380","0","right","0","out","Female","Right-handed","0","no","right","s","453.429214802","703.433945339","20","green","3"
"100","93","24","647.481941691","1","1","4","381","1","left","0","in","Female","Right-handed","0","no","left","s","558.15282598","511.028323468","20","red","3"
"100","93","24","648.346922427","1","1","4","382","0","right","0","out","Female","Right-handed","0","no","right","s","733.730444685","687.520626089","20","red","2"
"100","93","24","649.001319956","1","1","4","383","0","right","3","in","Female","Right-handed","0","no","right","d","658.239515702","735.305163514","20","green","1"
"100","93","24","648.772487983","1","1","4","384","3","left","0","in","Female","Right-handed","0","no","left","d","528.704622207","734.973221755","20","green","3"
"100","93","24","648.216259176","1","1","4","385","0","left","2","out","Female","Right-handed","0","no","left","d","597.605144576","615.393052721","20","green","0"
"100","92","24","647.079029904","1","0","4","386","2","left","0","in","Female","Right-handed","0","no","left","d","474.261686177","647.037524177","20","green","3"
"100","92","24","646.87533611","1","1","4","387","3","right","2","out","Female","Right-handed","0","no","right","s","462.612615637","799.769212288","20","red","3"
"100","92","24","646.108166451","1","1","4","388","3","left","3","in","Female","Right-handed","0","no","left","d","581.319152523","591.2187137","20","green","0"
"100","92","24","645.581294136","1","1","4","389","2","left","1","in","Female","Right-handed","0","no","left","d","633.006490971","574.910271476","20","red","3"
"100","92","24","644.907874475","1","1","4","390","2","right","0","in","Female","Right-handed","0","no","right","s","534.604846587","647.463756613","20","red","3"
"100","92","24","644.751786307","1","1","4","391","0","left","0","out","Female","Right-handed","0","no","left","d","625.087996625","639.129292744","20","red","2"
"100","92","24","645.029393507","1","1","4","392","1","left","0","in","Female","Right-handed","0","no","left","s","544.849498896","790.736868978","20","green","3"
"100","92","24","646.14081184","1","1","4","393","0","right","0","in","Female","Right-handed","0","no","right","s","789.364522382","687.41254459","20","red","1"
"100","92","24","645.103293308","1","1","4","394","1","left","1","in","Female","Right-handed","0","no","left","s","468.950297567","646.953175688","20","green","0"
"100","93","24","647.591685266","1","1","4","395","0","left","2","in","Female","Right-handed","0","no","left","d","647.657469468","1070.55253387","20","green","3"
"100","93","24","646.839735993","1","1","4","396","1","right","3","in","Female","Right-handed","0","no","right","d","653.107728402","511.236468563","20","red","0"
"100","93","24","654.287626777","1","1","4","397","0","left","1","out","Female","Right-handed","0","no","left","d","469.745995623","2134.76225434","20","red","0"
"100","93","24","653.332066105","1","1","4","398","3","right","3","out","Female","Right-handed","0","no","right","s","443.225614232","695.25983982","20","green","0"
"100","93","24","651.512171927","1","1","4","399","0","right","3","in","Female","Right-handed","0","no","right","d","452.126784425","526.956395683","20","red","0"
"100","93","24","651.024409367","1","1","4","400","0","right","0","in","Female","Right-handed","0","no","right","d","630.599191732","583.652366214","20","green","2"
"100","93","24","651.254822758","1","1","4","401","1","right","3","in","Female","Right-handed","0","no","right","d","577.21494144","767.229941324","20","green","0"
"100","93","24","649.566259511","1","1","4","402","2","right","0","in","Female","Right-handed","0","no","right","s","461.617431836","526.819449675","20","red","3"
"100","92","24","649.159607368","1","0","4","403","1","left","2","out","Female","Right-handed","0","no","left","s","631.309579127","591.372336989","20","red","0"
"100","91","24","649.637108254","1","0","4","404","1","left","0","out","Female","Right-handed","0","no","left","s","662.074004096","726.970378921","20","green","2"
"100","91","24","648.350539848","1","1","4","405","2","right","2","in","Female","Right-handed","0","no","right","d","461.656880012","590.596202673","20","green","3"
"100","100","24","831.783790782","1","1","5","406","0","left","2","out","Female","Right-handed","0","no","left","d","1096.26278497","567.304796597","20","green","1"
"100","100","24","714.1098012","1","1","5","407","2","right","1","in","Female","Right-handed","0","no","right","s","672.867402609","520.004220627","20","green","2"
"100","100","24","626.467024825","1","1","5","408","3","left","0","in","Female","Right-handed","0","no","left","d","422.714821645","479.648122505","20","green","3"
"100","75","24","566.556724996","1","0","5","409","2","right","0","in","Female","Right-handed","0","no","right","s","414.368491242","359.283159778","20","red","3"
"100","80","24","596.004094914","1","1","5","410","2","right","0","out","Female","Right-handed","0","no","right","d","811.848043173","615.739105997","20","red","1"
"100","83","24","615.9069477","1","1","5","411","0","left","3","out","Female","Right-handed","0","no","left","s","695.434951136","735.407472122","20","red","1"
"100","85","24","631.301927752","1","1","5","412","2","right","0","out","Female","Right-handed","0","no","right","d","799.18550796","648.158108176","20","red","2"
"100","87","24","634.35169693","1","1","5","413","2","right","0","out","Female","Right-handed","0","no","right","s","671.794284659","639.605877688","20","red","2"
"100","88","24","625.674159785","1","1","5","414","0","right","2","out","Female","Right-handed","0","no","right","d","529.246633349","583.261091902","20","red","0"
"100","90","24","619.34593365","1","1","5","415","1","right","0","in","Female","Right-handed","0","no","right","s","588.895442197","535.888354672","20","red","2"
"100","90","24","617.415258714","1","1","5","416","3","left","3","in","Female","Right-handed","0","no","left","s","524.609070446","671.607948258","20","red","0"
"100","91","24","612.897596454","1","1","5","417","1","left","0","in","Female","Right-handed","0","no","left","s","582.135376433","544.271246763","20","green","1"
"100","92","24","618.96336925","1","1","5","418","2","right","1","in","Female","Right-handed","0","no","right","d","855.760568345","527.744717256","20","red","0"
"100","92","24","616.204190954","1","1","5","419","0","left","0","out","Female","Right-handed","0","no","left","d","449.37182832","711.297917878","20","red","3"
"100","86","24","608.593463945","1","0","5","420","2","left","0","in","Female","Right-handed","0","no","left","d","348.032740032","656.053831627","20","red","3"
"100","81","24","601.556203432","1","0","5","421","3","left","1","out","Female","Right-handed","0","no","left","d","448.400377558","543.594213901","20","green","0"
"100","82","24","593.826847605","1","1","5","422","0","left","1","in","Female","Right-handed","0","no","left","s","437.221477623","503.092831117","20","red","0"
"100","83","24","601.021026436","1","1","5","423","0","right","1","out","Female","Right-handed","0","no","right","d","758.812732587","687.831400544","20","red","2"
"100","84","24","603.782105238","1","1","5","424","0","left","0","in","Female","Right-handed","0","no","left","s","571.480848244","735.482199118","20","red","3"
"100","85","24","598.2958159","1","1","5","425","2","left","3","in","Female","Right-handed","0","no","left","s","501.118178625","486.994458333","20","red","0"
"100","80","24","602.885652737","1","0","5","426","3","right","0","in","Female","Right-handed","0","no","right","s","877.768466307","511.596312659","20","green","1"
"100","81","24","603.197706924","1","1","5","427","3","right","0","in","Female","Right-handed","0","no","right","d","612.221806339","607.279883348","20","green","1"
"100","82","24","606.571399318","1","1","5","428","2","right","0","in","Female","Right-handed","0","no","right","s","642.747297388","718.83796656","20","green","2"
"100","83","24","602.09237153","1","1","5","429","0","left","2","in","Female","Right-handed","0","no","left","s","454.625808634","543.523656204","20","green","3"
"100","84","24","599.593369761","1","1","5","430","1","right","2","in","Female","Right-handed","0","no","right","s","584.221317579","495.013337","20","red","1"
"100","80","24","598.024506256","1","0","5","431","2","left","2","out","Female","Right-handed","0","no","left","s","413.655217388","703.950619907","20","red","0"
"100","81","24","596.830786053","1","1","5","432","0","left","0","in","Female","Right-handed","0","no","left","d","580.356681836","551.23143972","20","green","1"
"100","82","24","593.785265947","1","1","5","433","2","left","3","out","Female","Right-handed","0","no","left","d","472.005444491","551.107001666","20","green","0"
"100","82","24","593.244819074","1","1","5","434","1","left","3","in","Female","Right-handed","0","no","left","s","428.682717262","727.54189602","20","green","0"
"100","83","24","596.347609181","1","1","5","435","0","right","0","in","Female","Right-handed","0","no","right","s","701.250185608","671.406858921","20","red","2"
"100","80","24","593.158051127","1","0","5","436","2","left","1","in","Female","Right-handed","0","no","left","s","434.91199697","560.030622029","20","green","3"
"100","81","24","590.34254584","1","1","5","437","2","left","2","out","Female","Right-handed","0","no","left","s","398.499430885","607.624333032","20","red","0"
"100","81","24","592.651685448","1","1","5","438","0","right","0","out","Female","Right-handed","0","no","right","d","429.949227342","903.139078466","20","green","3"
"100","82","24","596.010446988","1","1","5","439","2","right","3","out","Female","Right-handed","0","no","right","d","773.744658887","639.954496728","20","green","1"
"100","82","24","594.150063968","1","1","5","440","2","left","0","out","Female","Right-handed","0","no","left","s","526.29732294","535.496759636","20","green","3"
"100","80","24","597.280672835","1","0","5","441","1","left","3","out","Female","Right-handed","0","no","left","s","766.87683232","646.827134042","20","red","0"
"100","78","24","593.313938298","1","0","5","442","3","right","3","in","Female","Right-handed","0","no","right","d","461.497163109","439.525826834","20","green","0"
"100","78","24","592.428254376","1","1","5","443","1","right","0","in","Female","Right-handed","0","no","right","d","464.226461889","655.089436652","20","green","3"
"100","79","24","593.45001351","1","1","5","444","0","left","0","out","Female","Right-handed","0","no","left","d","441.785917152","822.767804028","20","green","2"
"100","80","24","591.535176847","1","1","5","445","1","left","0","out","Female","Right-handed","0","no","left","s","450.37503005","583.338063909","20","red","2"
"100","80","24","589.828356122","1","1","5","446","1","left","2","out","Female","Right-handed","0","no","left","d","460.016414261","583.094639966","20","red","0"
"100","78","24","588.64668825","1","0","5","447","3","right","0","out","Female","Right-handed","0","no","right","s","416.566041823","663.830569247","20","green","3"
"100","79","24","590.474110295","1","1","5","448","3","right","0","out","Female","Right-handed","0","no","right","d","695.26849917","639.18317316","20","green","2"
"100","79","24","591.35865549","1","1","5","449","0","right","0","out","Female","Right-handed","0","no","right","d","643.874937173","614.913260594","20","green","1"
"100","80","24","589.371289511","1","1","5","450","0","right","1","in","Female","Right-handed","0","no","right","s","420.431639737","583.422733122","20","red","3"
"100","80","24","590.454278558","1","1","5","451","3","left","2","out","Female","Right-handed","0","no","left","s","487.147119449","791.230451927","20","green","3"
"100","80","24","592.514576182","1","1","5","452","0","right","0","in","Female","Right-handed","0","no","right","s","638.706908911","735.869624827","20","red","1"
"100","81","24","590.751182297","1","1","5","453","3","left","3","in","Female","Right-handed","0","no","left","s","504.300970788","511.442368647","20","red","1"
"100","81","24","590.234732068","1","1","5","454","2","left","2","in","Female","Right-handed","0","no","left","s","491.912969039","638.977273047","20","green","1"
"100","82","24","588.832581736","1","1","5","455","3","right","0","out","Female","Right-handed","0","no","right","d","552.704170637","487.550260324","20","red","2"
"100","82","24","589.312094019","1","1","5","456","3","right","0","in","Female","Right-handed","0","no","right","d","579.27522526","647.300191107","20","red","1"
"100","80","24","613.23741426","1","0","5","457","3","right","1","in","Female","Right-handed","0","no","right","None","666.668911668","3000.18858138","20","green","2"
"100","81","24","612.804854122","1","1","5","458","1","right","3","in","Female","Right-handed","0","no","right","s","637.251817417","543.371636537","20","red","1"
"100","79","24","616.611770073","1","0","5","459","0","left","3","out","Female","Right-handed","0","no","left","s","653.855960379","982.900670526","20","green","2"
"100","80","24","615.416625376","1","1","5","460","3","right","0","out","Female","Right-handed","0","no","right","d","566.415770038","535.34185348","20","red","3"
"100","80","24","627.552309004","1","1","5","461","3","right","1","out","Female","Right-handed","0","no","right","d","1463.07316478","1126.95665227","20","green","0"
"100","80","24","630.175668502","1","1","5","462","1","right","0","out","Female","Right-handed","0","no","right","s","923.57386119","630.593739566","20","red","1"
"100","81","24","628.435595667","1","1","5","463","1","left","0","out","Female","Right-handed","0","no","left","d","515.244785376","543.258102844","20","green","2"
"100","81","24","626.135228943","1","1","5","464","2","left","2","in","Female","Right-handed","0","no","left","d","450.811525399","534.616392426","20","red","3"
"100","80","24","629.081867847","1","0","5","465","0","right","3","out","Female","Right-handed","0","no","right","d","462.463161705","1143.40396476","20","green","0"
"100","80","24","629.646268926","1","1","5","466","3","right","2","in","Female","Right-handed","0","no","right","d","791.979966743","535.040700546","20","green","1"
"100","80","24","628.533396233","1","1","5","467","0","right","3","out","Female","Right-handed","0","no","right","d","450.594720926","670.701602969","20","red","0"
"100","80","24","628.051339673","1","1","5","468","1","left","0","out","Female","Right-handed","0","no","left","s","645.093019063","551.234646904","20","red","2"
"100","81","24","627.07147634","1","1","5","469","1","left","0","in","Female","Right-handed","0","no","left","d","451.722681435","678.95749124","20","green","3"
"100","81","24","628.124097909","1","1","5","470","1","right","1","in","Female","Right-handed","0","no","right","d","656.491609902","734.492146789","20","red","3"
"100","81","24","626.405690192","1","1","5","471","3","right","0","in","Female","Right-handed","0","no","right","d","382.156030566","647.262346553","20","green","3"
"100","82","24","627.052884011","1","1","5","472","2","left","0","in","Female","Right-handed","0","no","left","s","484.734368016","854.800984089","20","green","3"
"100","82","24","624.865728199","1","1","5","473","1","left","2","in","Female","Right-handed","0","no","left","s","429.32126412","527.331313468","20","green","0"
"100","82","24","625.657710275","1","1","5","474","3","left","0","in","Female","Right-handed","0","no","left","s","712.0817494","646.94323347","20","green","2"
"100","82","24","627.105652637","1","1","5","475","3","left","2","in","Female","Right-handed","0","no","left","s","727.598342143","726.429009199","20","green","0"
"100","83","24","626.753665715","1","1","5","476","0","right","0","out","Female","Right-handed","0","no","right","d","565.106283903","639.122878405","20","green","2"
"100","83","24","626.092940019","1","1","5","477","1","left","0","in","Female","Right-handed","0","no","left","s","495.648355979","662.714475271","20","red","3"
"100","83","24","625.036040536","1","1","5","478","1","left","2","out","Female","Right-handed","0","no","left","s","451.458090189","646.420465317","20","red","3"
"100","82","24","623.987500754","1","0","5","479","1","left","3","in","Female","Right-handed","0","no","left","s","479.97461207","614.913581288","20","red","2"
"100","82","24","626.242987131","1","1","5","480","0","right","1","in","Female","Right-handed","0","no","right","d","563.596029125","1022.70192883","20","green","0"
"100","82","24","627.413000417","1","1","5","481","2","left","0","out","Female","Right-handed","0","no","left","s","544.136545766","886.191447964","20","red","2"
"100","83","24","627.456766157","1","1","5","482","0","left","0","out","Female","Right-handed","0","no","left","d","470.709428482","790.856496315","20","green","3"
"100","83","24","627.308607955","1","1","5","483","2","right","3","in","Female","Right-handed","0","no","right","d","697.375928343","534.424924554","20","green","2"
"100","83","24","628.748914391","1","1","5","484","2","right","0","in","Female","Right-handed","0","no","right","d","843.244279938","638.941352779","20","red","1"
"100","83","24","629.090815174","1","1","5","485","1","left","0","in","Female","Right-handed","0","no","left","s","641.589510255","670.612443763","20","red","1"
"100","83","24","628.48209948","1","1","5","486","0","left","2","out","Female","Right-handed","0","no","left","s","489.208686166","670.361001888","20","red","0"
"100","84","24","629.754320401","1","1","5","487","1","right","1","out","Female","Right-handed","0","no","right","d","762.811748631","702.796681348","20","red","2"
"100","84","24","629.275509064","1","1","5","488","1","left","0","in","Female","Right-handed","0","no","left","s","605.604138779","574.421820027","20","red","1"
"100","84","24","629.172682206","1","1","5","489","0","right","0","out","Female","Right-handed","0","no","right","d","586.152994045","655.123111908","20","red","2"
"100","83","24","630.154657688","1","0","5","490","2","right","0","out","Female","Right-handed","0","no","right","d","754.650151037","670.63104533","20","green","1"
"100","83","24","629.417751733","1","1","5","491","3","left","0","out","Female","Right-handed","0","no","left","d","543.225069036","590.336422145","20","red","1"
"100","82","24","629.46408331","1","0","5","492","3","right","2","out","Female","Right-handed","0","no","right","s","651.985540811","614.911656972","20","red","0"
"100","82","24","629.317657157","1","1","5","493","3","left","3","out","Female","Right-handed","0","no","left","s","490.597389318","742.559774372","20","green","2"
"100","83","24","628.067423782","1","1","5","494","1","left","1","out","Female","Right-handed","0","no","left","s","470.115140487","565.978633211","20","green","0"
"100","83","24","627.470215847","1","1","5","495","1","right","0","in","Female","Right-handed","0","no","right","s","565.793258982","582.844160264","20","red","3"
"100","83","24","628.292581649","1","1","5","496","2","right","0","out","Female","Right-handed","0","no","right","d","662.218647311","742.392360262","20","green","1"
"100","83","24","627.979745378","1","1","5","497","1","left","1","out","Female","Right-handed","0","no","left","s","465.077964618","733.945324871","20","green","0"
"100","83","24","626.48745413","1","1","5","498","2","right","1","in","Female","Right-handed","0","no","right","s","467.733498576","510.659820022","20","green","0"
"100","84","24","625.947341574","1","1","5","499","3","right","1","out","Female","Right-handed","0","no","right","s","497.178495192","654.255252623","20","green","3"
"100","84","24","625.25702782","1","1","5","500","0","right","0","out","Female","Right-handed","0","no","right","s","513.824010588","606.911059178","20","green","1"
"100","84","24","624.499053941","1","1","5","501","3","left","0","in","Female","Right-handed","0","no","left","s","634.504237794","470.478833187","20","red","2"
dis_reply=No
dis_loc=3
