"acc_1","acc_2","age","avg_rt","correct_1","correct_2","count_block_loop","count_trial_sequence","cue_position","detection","dis_position","dis_shape","gender","hand","high_loc","practice","response_keyboard_response_1","response_keyboard_response_2","response_time_keyboard_response_1","response_time_keyboard_response_2","subject_nr","tar_color","tar_position"
"0","0","19","1739.59139795","0","0","0","0","2","left","2","in","Female","Right-handed","2","yes","right","s","1151.38070445","2327.80209144","10","green","0"
"50","50","19","1957.11745433","1","1","0","1","1","left","0","in","Female","Right-handed","2","yes","left","d","2875.70164135","1473.58538007","10","green","3"
"66","33","19","1958.26381864","1","0","0","2","0","left","2","out","Female","Right-handed","2","yes","left","s","1783.21230668","2137.90078786","10","red","0"
"75","25","19","1711.80640856","1","0","0","3","0","left","1","out","Female","Right-handed","2","yes","left","s","783.495496859","1161.3728598","10","green","3"
"80","20","19","1717.15417284","1","0","0","4","2","right","0","out","Female","Right-handed","2","yes","right","s","1715.13152789","1761.95893197","10","red","2"
"83","33","19","1699.70771224","1","1","0","5","3","left","0","out","Female","Right-handed","2","yes","left","s","1343.5135338","1881.43728476","10","red","1"
"85","28","19","1648.74430057","1","0","0","6","0","right","3","out","Female","Right-handed","2","yes","right","s","972.023504463","1713.90415664","10","green","0"
"87","37","19","1578.90953581","1","1","0","7","3","left","0","out","Female","Right-handed","2","yes","left","s","994.65177871","1185.48058624","10","green","2"
"88","44","19","1559.31246685","1","1","0","8","3","left","1","out","Female","Right-handed","2","yes","left","d","1828.06443523","977.007395016","10","red","0"
"90","50","19","1570.59451657","1","1","0","9","1","right","3","in","Female","Right-handed","2","yes","right","s","1926.77978452","1417.48614356","10","red","1"
"90","54","19","1517.14348724","1","1","0","10","0","right","2","in","Female","Right-handed","2","yes","right","d","956.047473322","1009.21891467","10","green","3"
"91","58","19","1458.86009219","1","1","0","11","2","right","2","in","Female","Right-handed","2","yes","right","s","801.790929319","833.694563839","10","green","0"
"92","61","19","1434.70485386","1","1","0","12","3","right","0","out","Female","Right-handed","2","yes","right","s","1288.34725338","1001.33673461","10","red","1"
"92","57","19","1427.64126727","1","0","0","13","2","right","1","out","Female","Right-handed","2","yes","right","d","949.811195858","1721.81808735","10","green","0"
"93","60","19","1415.58520945","1","1","0","14","0","left","2","in","Female","Right-handed","2","yes","left","s","1140.27503122","1353.32576877","10","red","1"
"93","62","19","1378.19660334","1","1","0","15","0","left","3","in","Female","Right-handed","2","yes","left","d","784.835438604","849.899584548","10","red","2"
"94","64","19","1367.70435338","1","1","0","16","1","right","1","in","Female","Right-handed","2","yes","right","d","1542.35537256","857.301335515","10","red","3"
"94","66","19","1346.28163137","1","1","0","17","1","left","0","out","Female","Right-handed","2","yes","left","d","891.207826953","1072.98288736","10","red","1"
"94","68","19","1318.748108","1","1","0","18","3","left","2","in","Female","Right-handed","2","yes","left","d","636.561808261","1009.72756656","10","green","1"
"95","70","19","1298.34621587","1","1","0","19","2","right","1","in","Female","Right-handed","2","yes","right","s","708.249012362","1113.17151832","10","red","0"
"95","71","19","1295.62990503","1","1","0","20","1","left","1","out","Female","Right-handed","2","yes","left","s","1448.87214621","1033.73523033","10","green","3"
"95","72","19","1273.9089933","1","1","0","21","3","left","0","in","Female","Right-handed","2","yes","left","d","746.253583174","889.286110596","10","red","3"
"100","100","19","1163.07087836","1","1","1","22","2","right","2","out","Female","Right-handed","2","no","right","d","788.692662007","1537.44909472","10","red","0"
"100","100","19","1109.89278221","1","1","1","23","1","left","3","out","Female","Right-handed","2","no","left","d","1304.24214396","809.187228155","10","red","2"
"100","100","19","1088.87745723","1","1","1","24","3","left","0","in","Female","Right-handed","2","no","left","d","1155.88705234","937.806562187","10","red","2"
"100","100","19","1025.75980277","1","1","1","25","2","right","0","out","Female","Right-handed","2","no","right","d","903.426697361","769.386981462","10","red","2"
"100","100","19","1025.79445589","1","1","1","26","0","left","0","out","Female","Right-handed","2","no","left","s","985.898540303","1065.96759637","10","green","1"
"100","83","19","1110.92855376","1","0","1","27","1","right","3","in","Female","Right-handed","2","no","right","d","1359.75158801","1713.44649822","10","red","1"
"100","71","19","1129.14124973","1","0","1","28","0","left","2","in","Female","Right-handed","2","no","left","s","1139.88279839","1336.95205266","10","red","1"
"100","75","19","1102.05107221","1","1","1","29","3","left","2","in","Female","Right-handed","2","no","left","d","663.360322458","1161.47933674","10","red","3"
"100","77","19","1099.21995663","1","1","1","30","1","right","2","out","Female","Right-handed","2","no","right","s","920.000859513","1233.14120446","10","green","1"
"100","80","19","1078.01844489","1","1","1","31","2","right","1","in","Female","Right-handed","2","no","right","s","908.848682797","865.560995572","10","red","2"
"100","81","19","1061.71534119","1","1","1","32","0","right","2","in","Female","Right-handed","2","no","right","d","788.266754243","1009.10185417","10","red","0"
"100","83","19","1039.3885706","1","1","1","33","3","left","2","in","Female","Right-handed","2","no","left","s","697.725434455","889.862753789","10","red","3"
"100","84","19","1015.34711162","1","1","1","34","2","left","2","out","Female","Right-handed","2","no","left","s","596.291395316","857.407812457","10","green","1"
"100","78","19","1002.03648604","1","0","1","35","0","left","2","out","Female","Right-handed","2","no","left","s","728.920291747","929.076415165","10","red","3"
"100","80","19","1001.73542447","1","1","1","36","2","right","3","out","Female","Right-handed","2","no","right","s","697.628258211","1297.4128669","10","green","2"
"100","81","19","993.606071719","1","1","1","37","0","right","3","in","Female","Right-handed","2","no","right","s","830.109305635","913.22225522","10","green","0"
"100","82","19","994.786270934","1","1","1","38","0","right","2","out","Female","Right-handed","2","no","right","d","1057.64924571","969.689671031","10","green","3"
"100","83","19","984.032850845","1","1","1","39","1","left","0","in","Female","Right-handed","2","no","left","d","729.149602026","873.299816615","10","green","3"
"100","84","19","972.494911371","1","1","1","40","3","right","2","out","Female","Right-handed","2","no","right","s","719.854678218","809.76932348","10","green","0"
"100","85","19","959.819322743","1","1","1","41","1","right","0","in","Female","Right-handed","2","no","right","s","942.444081967","495.522195632","10","red","1"
"100","85","19","946.213697082","1","1","1","42","2","left","3","in","Female","Right-handed","2","no","left","s","674.996456113","673.205911651","10","green","1"
"100","86","19","940.285460247","1","1","1","43","2","left","2","out","Female","Right-handed","2","no","left","s","925.761518592","705.823454818","10","red","1"
"100","86","19","927.043264749","1","1","1","44","2","right","2","in","Female","Right-handed","2","no","right","s","582.218479137","689.211448452","10","green","0"
"100","87","19","915.414740781","1","1","1","45","0","right","3","in","Female","Right-handed","2","no","right","s","751.003032027","544.914346999","10","green","1"
"100","84","19","909.874382867","1","0","1","46","1","left","3","out","Female","Right-handed","2","no","left","d","984.362642501","569.448943344","10","green","0"
"100","80","19","904.232934541","1","0","1","47","1","right","2","out","Female","Right-handed","2","no","right","s","853.323203058","673.070249765","10","red","1"
"100","81","19","917.673559136","1","1","1","48","2","left","1","in","Female","Right-handed","2","no","left","d","1588.67540761","945.584189585","10","green","2"
"100","78","19","922.404150365","1","0","1","49","1","right","1","out","Female","Right-handed","2","no","right","s","1219.16995452","881.090272562","10","red","2"
"100","79","19","920.104588269","1","1","1","50","3","left","3","in","Female","Right-handed","2","no","left","d","757.623524476","953.810174706","10","green","1"
"100","80","19","945.828140444","1","1","1","51","1","left","2","in","Female","Right-handed","2","no","left","d","606.408628993","2777.21367805","10","red","3"
"100","80","19","943.47294179","1","1","1","52","3","left","2","out","Female","Right-handed","2","no","left","d","760.88871043","984.745253919","10","red","1"
"100","81","19","936.547219797","1","1","1","53","3","left","0","out","Female","Right-handed","2","no","left","d","602.331396009","841.368280006","10","green","2"
"100","81","19","935.998742919","1","1","1","54","0","right","2","in","Female","Right-handed","2","no","right","s","908.058444295","928.836521334","10","green","1"
"100","79","19","940.500750451","1","0","1","55","2","left","1","out","Female","Right-handed","2","no","left","d","1128.71490671","1049.41909132","10","green","0"
"100","77","19","934.561260482","1","0","1","56","2","right","3","out","Female","Right-handed","2","no","right","s","600.098587385","865.138615659","10","red","2"
"100","75","19","932.580390269","1","0","1","57","0","right","2","out","Female","Right-handed","2","no","right","d","805.716464735","920.783400887","10","red","0"
"100","72","19","961.58309108","1","0","1","58","0","right","2","in","Female","Right-handed","2","no","right","None","1011.25705009","3000.10359052","10","green","1"
"100","73","19","959.36260199","1","1","1","59","0","right","1","out","Female","Right-handed","2","no","right","s","681.671790602","1072.73722068","10","green","2"
"100","74","19","954.319994325","1","1","1","60","2","left","2","in","Female","Right-handed","2","no","left","d","740.181511113","785.220295018","10","red","3"
"100","75","19","950.423241832","1","1","1","61","3","left","2","in","Female","Right-handed","2","no","left","d","675.892209416","921.007579747","10","red","0"
"100","75","19","939.630073669","1","1","1","62","2","right","3","out","Female","Right-handed","2","no","right","s","534.325343501","481.48135082","10","red","0"
"100","76","19","934.569782302","1","1","1","63","2","left","2","out","Female","Right-handed","2","no","left","d","581.099509116","873.09616343","10","red","0"
"100","76","19","929.667240615","1","1","1","64","1","right","0","in","Female","Right-handed","2","no","right","d","702.77763702","744.743342465","10","green","2"
"100","77","19","924.053860393","1","1","1","65","0","left","0","in","Female","Right-handed","2","no","left","d","572.261923012","793.095098661","10","red","2"
"100","77","19","920.562425599","1","1","1","66","0","right","2","in","Female","Right-handed","2","no","right","d","716.856967472","817.021621875","10","red","0"
"100","78","19","923.552139496","1","1","1","67","0","left","1","out","Female","Right-handed","2","no","left","d","482.664463578","1633.51406618","10","green","0"
"100","78","19","924.02072228","1","1","1","68","3","right","2","in","Female","Right-handed","2","no","right","s","1242.07147682","649.079583816","10","green","1"
"100","77","19","920.627123125","1","0","1","69","0","left","2","in","Female","Right-handed","2","no","left","d","665.643803844","856.612121823","10","green","0"
"100","75","19","937.057905195","1","0","1","70","2","left","2","out","Female","Right-handed","2","no","left","d","546.174431038","2905.2964581","10","red","3"
"100","74","19","935.150164558","1","0","1","71","0","right","2","in","Female","Right-handed","2","no","right","s","730.68389626","952.657850461","10","red","3"
"100","74","19","926.679951382","1","1","1","72","3","left","1","in","Female","Right-handed","2","no","left","s","509.198388992","497.140196136","10","red","2"
"100","75","19","920.934176404","1","1","1","73","3","right","0","out","Female","Right-handed","2","no","right","d","454.958329671","800.840975406","10","green","3"
"100","75","19","917.022282666","1","1","1","74","2","left","0","out","Female","Right-handed","2","no","left","s","506.641338838","920.566277727","10","red","2"
"100","75","19","912.569896873","1","1","1","75","1","left","2","out","Female","Right-handed","2","no","left","d","632.123130961","721.063768783","10","red","3"
"100","76","19","910.989128798","1","1","1","76","3","left","0","in","Female","Right-handed","2","no","left","d","730.506220883","920.749084523","10","red","1"
"100","76","19","906.986370058","1","1","1","77","3","left","2","out","Female","Right-handed","2","no","left","s","716.23317937","657.436099403","10","red","1"
"100","75","19","903.834265367","1","0","1","78","0","right","3","in","Female","Right-handed","2","no","right","s","917.74207308","536.890732208","10","red","2"
"100","75","19","898.369106253","1","1","1","79","1","right","1","out","Female","Right-handed","2","no","right","s","597.333073341","576.377000211","10","green","3"
"100","76","19","894.49942558","1","1","1","80","0","left","1","in","Female","Right-handed","2","no","left","d","579.055280134","761.060612961","10","green","3"
"100","76","19","892.177451306","1","1","1","81","2","right","2","out","Female","Right-handed","2","no","right","s","877.595134902","632.766803312","10","red","1"
"100","75","19","886.423562264","1","0","1","82","3","left","1","out","Female","Right-handed","2","no","left","d","537.138964595","545.24147495","10","green","2"
"100","75","19","886.429855274","1","1","1","83","1","right","2","in","Female","Right-handed","2","no","right","d","628.834853623","1144.79260409","10","red","0"
"100","74","19","880.675355605","1","0","1","84","0","left","1","out","Female","Right-handed","2","no","left","s","527.30363824","520.489114016","10","green","2"
"100","75","19","872.64970243","1","1","1","85","3","left","3","in","Female","Right-handed","2","no","left","s","389.151731566","344.915373282","10","green","2"
"100","75","19","867.480836988","1","1","1","86","2","left","2","out","Female","Right-handed","2","no","left","d","488.632303693","584.714593691","10","green","3"
"100","75","19","862.530278044","1","1","1","87","3","right","1","out","Female","Right-handed","2","no","right","s","465.219243078","616.268650302","10","green","3"
"100","74","19","858.3579004","1","0","1","88","3","right","2","out","Female","Right-handed","2","no","right","d","556.91288711","609.049064703","10","green","0"
"100","75","19","857.479284443","1","1","1","89","3","right","3","in","Female","Right-handed","2","no","right","s","748.637127226","848.586903465","10","green","0"
"100","75","19","853.249689905","1","1","1","90","2","left","1","in","Female","Right-handed","2","no","left","d","594.137161543","537.137361027","10","red","3"
"100","74","19","847.101398944","1","0","1","91","0","right","0","in","Female","Right-handed","2","no","right","s","436.867833252","408.870812041","10","green","3"
"100","73","19","845.787296654","1","0","1","92","3","left","2","in","Female","Right-handed","2","no","left","d","451.264990959","1056.33528178","10","green","3"
"100","73","19","842.942400643","1","1","1","93","0","right","0","out","Female","Right-handed","2","no","right","s","696.888371756","585.021195967","10","red","2"
"100","73","19","841.18841455","1","1","1","94","1","right","3","out","Female","Right-handed","2","no","right","s","709.444953666","720.357877979","10","red","2"
"100","72","19","839.419324656","1","0","1","95","1","right","2","out","Female","Right-handed","2","no","right","s","804.266197484","616.285327414","10","red","1"
"100","73","19","834.450148159","1","1","1","96","1","right","2","in","Female","Right-handed","2","no","right","s","596.705757388","336.75641732","10","red","0"
"100","73","19","835.080563867","1","1","1","97","1","left","2","out","Female","Right-handed","2","no","left","d","604.338422204","1160.38506167","10","red","3"
"100","74","19","836.194689396","1","1","1","98","2","left","0","out","Female","Right-handed","2","no","left","d","656.875171181","1184.86128813","10","red","1"
"100","73","19","831.87896876","1","0","1","99","1","right","2","in","Female","Right-handed","2","no","right","s","598.606948069","400.530011424","10","red","0"
"100","73","19","826.680547588","1","1","1","100","1","right","1","in","Female","Right-handed","2","no","right","s","586.126696014","256.280696308","10","red","2"
"100","72","19","823.481569066","1","0","1","101","1","left","2","out","Female","Right-handed","2","no","left","s","716.648503581","424.876028127","10","red","0"
"100","71","19","818.666043643","1","0","1","102","1","right","1","in","Female","Right-handed","2","no","right","d","434.463763523","432.384256037","10","green","0"
"100","71","19","814.060351243","1","1","1","103","2","left","0","in","Female","Right-handed","2","no","left","s","409.009681062","472.988852634","10","green","3"
"100","72","19","810.043844728","1","1","1","104","2","right","2","out","Female","Right-handed","2","no","right","d","480.626648869","480.7539722","10","green","0"
"100","71","19","806.362389718","1","0","1","105","1","right","2","out","Female","Right-handed","2","no","right","s","521.489099263","480.114148412","10","red","3"
"100","71","19","802.157065486","1","1","1","106","3","right","2","out","Female","Right-handed","2","no","right","s","472.887827826","424.931832308","10","green","3"
"100","72","19","801.011770356","1","1","1","107","3","left","2","in","Female","Right-handed","2","no","left","s","774.628405097","632.694963448","10","green","1"
"100","72","19","799.674663253","1","1","1","108","3","left","3","in","Female","Right-handed","2","no","left","d","537.247686531","832.119218254","10","green","2"
"100","72","19","798.198832261","1","1","1","109","3","right","2","in","Female","Right-handed","2","no","right","d","610.782201417","728.820870507","10","red","0"
"100","71","19","804.306877672","1","0","1","110","0","left","2","out","Female","Right-handed","2","no","left","d","499.449334616","2184.18041299","10","green","3"
"100","72","19","803.812751105","1","1","1","111","1","right","2","out","Female","Right-handed","2","no","right","s","934.8383571","584.832616325","10","green","1"
"100","72","19","801.280472971","1","1","1","112","0","right","3","in","Female","Right-handed","2","no","right","s","562.301518323","584.44936348","10","green","2"
"100","72","19","799.903726286","1","1","1","113","2","left","2","in","Female","Right-handed","2","no","left","d","797.127752445","552.111803354","10","green","1"
"100","73","19","798.530597178","1","1","1","114","3","left","1","out","Female","Right-handed","2","no","left","d","695.775495295","648.62994324","10","green","0"
"100","73","19","797.486552578","1","1","1","115","0","right","2","in","Female","Right-handed","2","no","right","s","736.36598049","664.414829031","10","green","1"
"100","73","19","799.521996519","1","1","1","116","2","left","2","out","Female","Right-handed","2","no","left","s","1197.89573342","783.811720546","10","green","3"
"100","73","19","798.536679369","1","1","1","117","1","left","0","in","Female","Right-handed","2","no","left","d","577.422206086","832.440894073","10","red","2"
"100","100","19","637.084571556","1","1","2","118","2","right","2","out","Female","Right-handed","2","no","right","s","624.446207657","649.722935455","10","green","3"
"100","100","19","624.147943937","1","1","2","119","0","left","0","in","Female","Right-handed","2","no","left","s","581.090208419","641.332424217","10","green","2"
"100","100","19","573.400349664","1","1","2","120","3","left","1","out","Female","Right-handed","2","no","left","s","478.842197967","464.968124267","10","red","2"
"100","100","19","564.936582078","1","1","2","121","1","right","0","out","Female","Right-handed","2","no","right","s","509.637446016","569.453112623","10","red","3"
"100","100","19","642.56678702","1","1","2","122","3","left","3","in","Female","Right-handed","2","no","left","d","1201.18785932","704.987354259","10","green","1"
"100","100","19","655.364502854","1","1","2","123","3","left","0","out","Female","Right-handed","2","no","left","d","861.886578967","576.819585086","10","red","2"
"100","100","19","638.425635799","1","1","2","124","3","right","2","out","Female","Right-handed","2","no","right","d","568.410151743","505.17471519","10","red","1"
"100","100","19","616.622457623","1","1","2","125","0","left","2","out","Female","Right-handed","2","no","left","s","470.937888664","457.062532111","10","green","3"
"100","100","19","601.668142306","1","1","2","126","2","right","2","in","Female","Right-handed","2","no","right","d","490.461013083","473.606226464","10","green","0"
"100","100","19","592.773791663","1","1","2","127","2","right","2","in","Female","Right-handed","2","no","right","s","512.157614095","513.291657659","10","green","3"
"100","100","19","596.278012809","1","1","2","128","0","left","1","out","Female","Right-handed","2","no","left","s","685.849406968","576.791041569","10","green","0"
"100","100","19","597.292529787","1","1","2","129","1","right","0","in","Female","Right-handed","2","no","right","d","631.458612221","585.445820877","10","red","1"
"100","100","19","600.386008516","1","1","2","130","1","right","2","in","Female","Right-handed","2","no","right","s","482.154208116","792.86129839","10","green","0"
"100","100","19","597.265792194","1","1","2","131","0","left","0","in","Female","Right-handed","2","no","left","s","552.625586666","560.780373349","10","green","2"
"100","93","19","592.164847258","1","0","2","132","3","right","2","out","Female","Right-handed","2","no","right","d","448.285240179","593.217996142","10","green","3"
"100","93","19","588.058344473","1","1","2","133","1","right","3","out","Female","Right-handed","2","no","right","s","507.883462912","545.038142477","10","red","0"
"100","88","19","586.177500834","1","0","2","134","2","left","1","in","Female","Right-handed","2","no","left","d","527.564378461","584.603626759","10","green","2"
"100","88","19","587.981597022","1","1","2","135","3","right","1","in","Female","Right-handed","2","no","right","d","524.008946629","713.293517799","10","green","3"
"100","89","19","586.601158141","1","1","2","136","1","left","1","out","Female","Right-handed","2","no","left","s","570.706461675","552.800054906","10","red","0"
"100","90","19","595.041389704","1","1","2","137","2","right","0","out","Female","Right-handed","2","no","right","s","942.425480574","568.386098217","10","red","2"
"100","90","19","592.494488994","1","1","2","138","1","right","2","out","Female","Right-handed","2","no","right","s","498.045891562","585.067058023","10","red","3"
"100","90","19","594.795273298","1","1","2","139","2","left","3","out","Female","Right-handed","2","no","left","d","485.637158656","800.586328745","10","green","2"
"100","86","19","612.679146129","1","0","2","140","3","right","2","out","Female","Right-handed","2","no","right","s","1379.23045394","633.018242836","10","red","1"
"100","87","19","621.162079552","1","1","2","141","1","left","2","in","Female","Right-handed","2","no","left","s","735.728080984","896.811015617","10","red","1"
"100","84","19","616.913047466","1","0","2","142","0","left","1","out","Female","Right-handed","2","no","left","s","485.434788326","544.437766473","10","green","2"
"100","80","19","613.628411956","1","0","2","143","2","left","1","in","Female","Right-handed","2","no","left","s","637.93863208","425.0864163","10","red","3"
"100","81","19","609.76040764","1","1","2","144","3","left","2","in","Female","Right-handed","2","no","left","s","529.678843738","488.705747125","10","red","3"
"100","82","19","603.064398573","1","1","2","145","2","left","2","in","Female","Right-handed","2","no","left","s","475.296066831","369.248240725","10","green","3"
"100","82","19","604.370327686","1","1","2","146","1","right","2","in","Female","Right-handed","2","no","right","s","704.892743724","576.979941925","10","red","0"
"100","83","19","601.359494589","1","1","2","147","0","left","3","in","Female","Right-handed","2","no","left","s","507.600593449","520.490076157","10","green","2"
"100","80","19","599.190305558","1","0","2","148","3","left","2","out","Female","Right-handed","2","no","left","d","491.231688051","576.997581177","10","red","0"
"100","81","19","596.018913969","1","1","2","149","1","right","2","in","Female","Right-handed","2","no","right","s","570.73308091","424.678468503","10","red","3"
"100","78","19","595.151452564","1","0","2","150","0","right","2","in","Female","Right-handed","2","no","right","d","510.336922546","624.448452652","10","green","0"
"100","76","19","596.658565313","1","0","2","151","1","right","2","out","Female","Right-handed","2","no","right","s","667.90034528","624.886226823","10","red","0"
"100","77","19","598.124814616","1","1","2","152","2","left","3","in","Female","Right-handed","2","no","left","d","591.587167091","704.367414721","10","red","2"
"100","77","19","598.559816522","1","1","2","153","3","left","3","out","Female","Right-handed","2","no","left","d","490.319578351","737.250188098","10","green","2"
"100","78","19","604.876610093","1","1","2","154","2","right","0","out","Female","Right-handed","2","no","right","d","647.820141204","1016.74221612","10","green","1"
"100","76","19","608.849289621","1","0","2","155","3","right","2","in","Female","Right-handed","2","no","right","s","703.353638785","808.323225508","10","red","0"
"100","76","19","607.200948023","1","1","2","156","0","left","2","in","Female","Right-handed","2","no","left","s","488.021985564","601.105949047","10","green","3"
"100","77","19","607.560051231","1","1","2","157","3","left","2","out","Female","Right-handed","2","no","left","d","490.566848597","752.56330407","10","red","1"
"100","78","19","604.551681155","1","1","2","158","1","left","0","out","Female","Right-handed","2","no","left","s","432.179961425","536.253794844","10","green","2"
"100","78","19","609.200040666","1","1","2","159","1","right","3","in","Female","Right-handed","2","no","right","s","718.902479309","880.663081943","10","green","1"
"100","79","19","608.565260661","1","1","2","160","0","right","3","out","Female","Right-handed","2","no","right","s","579.447833675","584.361167218","10","green","2"
"100","77","19","609.031655052","1","0","2","161","0","right","2","out","Female","Right-handed","2","no","right","d","681.112465949","577.060761771","10","red","1"
"100","77","19","614.13421169","1","1","2","162","1","left","2","in","Female","Right-handed","2","no","left","d","988.728197082","688.565210391","10","red","1"
"100","76","19","611.811786445","1","0","2","163","0","left","1","out","Female","Right-handed","2","no","left","s","510.302926898","504.302373987","10","green","3"
"100","76","19","617.506001201","1","1","2","164","1","right","3","in","Female","Right-handed","2","no","right","d","797.945893038","960.933866915","10","green","2"
"100","75","19","619.31616855","1","0","2","165","1","left","2","out","Female","Right-handed","2","no","left","s","720.388666492","688.39940142","10","red","3"
"100","75","19","617.786908853","1","1","2","166","2","right","3","out","Female","Right-handed","2","no","right","s","719.89925742","368.865629308","10","red","1"
"100","76","19","615.643492752","1","1","2","167","1","left","1","out","Female","Right-handed","2","no","left","s","476.600088646","544.632118962","10","green","2"
"100","76","19","614.222814608","1","1","2","168","2","left","2","out","Female","Right-handed","2","no","left","d","550.182069155","536.195745669","10","red","0"
"100","76","19","614.948565051","1","1","2","169","3","right","2","in","Female","Right-handed","2","no","right","s","687.934687301","615.988987976","10","green","1"
"100","75","19","613.394728985","1","0","2","170","3","right","2","out","Female","Right-handed","2","no","right","s","456.580499454","608.610007677","10","green","0"
"100","74","19","618.05722297","1","0","2","171","2","left","2","in","Female","Right-handed","2","no","left","s","970.11173023","760.227078113","10","red","1"
"100","74","19","616.878414471","1","1","2","172","0","left","2","in","Female","Right-handed","2","no","left","s","553.629420477","552.81609059","10","green","1"
"100","73","19","616.590194399","1","0","2","173","0","left","2","out","Female","Right-handed","2","no","left","d","513.253492733","688.222688183","10","red","0"
"100","73","19","620.455030029","1","1","2","174","1","left","2","out","Female","Right-handed","2","no","left","s","1024.92137704","648.850273537","10","green","1"
"100","74","19","620.517506576","1","1","2","175","0","left","0","in","Female","Right-handed","2","no","left","s","559.49944292","688.657896644","10","green","3"
"100","74","19","618.849930645","1","1","2","176","1","right","3","out","Female","Right-handed","2","no","right","s","556.110140774","488.150912463","10","green","2"
"100","75","19","618.440159852","1","1","2","177","2","right","0","in","Female","Right-handed","2","no","right","d","587.841231335","600.686134842","10","red","2"
"100","75","19","616.957248856","1","1","2","178","3","right","2","in","Female","Right-handed","2","no","right","s","471.552376071","584.41280212","10","red","3"
"100","74","19","621.999847692","1","0","2","179","0","left","0","out","Female","Right-handed","2","no","left","s","1083.08921677","776.107536579","10","green","1"
"100","73","19","622.142905657","1","0","2","180","1","left","2","in","Female","Right-handed","2","no","left","s","621.522902485","640.502096505","10","red","3"
"100","73","19","621.141824479","1","1","2","181","3","right","3","out","Female","Right-handed","2","no","right","d","564.0314479","552.115972631","10","green","0"
"100","72","19","622.552538945","1","0","2","182","0","right","3","in","Female","Right-handed","2","no","right","s","753.892982977","671.78354649","10","red","1"
"100","72","19","623.91259112","1","1","2","183","2","right","3","in","Female","Right-handed","2","no","right","d","904.265363628","520.366601391","10","red","0"
"100","73","19","623.062316171","1","1","2","184","2","left","1","in","Female","Right-handed","2","no","left","s","605.958026277","527.930312766","10","green","0"
"100","73","19","623.040585637","1","1","2","185","2","right","0","out","Female","Right-handed","2","no","right","d","610.504142659","632.665137077","10","red","3"
"100","73","19","621.833660094","1","1","2","186","0","right","2","in","Female","Right-handed","2","no","right","s","567.201061178","512.324385208","10","green","1"
"100","74","19","619.778923357","1","1","2","187","0","right","2","in","Female","Right-handed","2","no","right","d","451.954525366","504.049651609","10","red","3"
"100","74","19","620.380416471","1","1","2","188","1","left","1","in","Female","Right-handed","2","no","left","d","516.410598176","808.559270774","10","red","3"
"100","75","19","620.848802423","1","1","2","189","3","right","3","out","Female","Right-handed","2","no","right","d","756.203725026","552.004684986","10","green","2"
"100","75","19","618.935975436","1","1","2","190","2","right","2","out","Female","Right-handed","2","no","right","d","458.682777611","503.742087192","10","green","0"
"100","75","19","620.631255618","1","1","2","191","2","left","1","in","Female","Right-handed","2","no","left","s","696.389341274","792.384076438","10","red","2"
"100","74","19","627.354428596","1","0","2","192","2","left","2","in","Female","Right-handed","2","no","left","d","1497.87751688","751.860941116","10","red","1"
"100","73","19","627.315875577","1","0","2","193","1","right","2","in","Female","Right-handed","2","no","right","s","712.388463801","536.460334453","10","green","0"
"100","74","19","627.228388399","1","1","2","194","0","left","3","in","Female","Right-handed","2","no","left","d","609.152013793","632.006711896","10","red","0"
"100","74","19","627.332009888","1","1","2","195","3","right","2","in","Female","Right-handed","2","no","right","d","662.764757158","607.856971962","10","green","3"
"100","74","19","626.552849956","1","1","2","196","3","left","0","out","Female","Right-handed","2","no","left","s","579.230069087","552.326681517","10","red","3"
"100","75","19","627.000846444","1","1","2","197","1","right","2","out","Female","Right-handed","2","no","right","d","708.842332666","615.942805206","10","green","1"
"100","74","19","627.253921285","1","0","2","198","0","left","1","in","Female","Right-handed","2","no","left","s","574.495373064","720.504444129","10","green","2"
"100","74","19","625.838676045","1","1","2","199","2","right","2","out","Female","Right-handed","2","no","right","s","470.219490027","552.18813321","10","green","3"
"100","73","19","629.90976995","1","0","2","200","3","left","1","in","Female","Right-handed","2","no","left","d","855.708671392","1071.77026894","10","green","0"
"100","72","19","628.325361766","1","0","2","201","1","right","0","out","Female","Right-handed","2","no","right","s","561.279083117","432.359881797","10","red","2"
"100","72","19","635.178902202","1","1","2","202","3","right","1","out","Female","Right-handed","2","no","right","d","806.016332023","1615.7362656","10","red","2"
"100","73","19","636.583626114","1","1","2","203","2","right","2","in","Female","Right-handed","2","no","right","s","808.587493578","703.38282373","10","red","1"
"100","73","19","639.549034987","1","1","2","204","0","left","2","out","Female","Right-handed","2","no","left","d","1213.13540596","576.012990187","10","green","1"
"100","72","19","641.232275904","1","0","2","205","3","left","2","out","Female","Right-handed","2","no","left","s","591.633029148","983.715442299","10","red","0"
"100","73","19","640.462971238","1","1","2","206","0","left","2","out","Female","Right-handed","2","no","left","s","505.301717807","640.226603456","10","green","0"
"100","73","19","641.084225683","1","1","2","207","1","right","1","in","Female","Right-handed","2","no","right","d","696.924612402","695.827130196","10","red","2"
"100","73","19","644.390464377","1","1","2","208","2","left","2","in","Female","Right-handed","2","no","left","d","755.402902972","1128.50099068","10","red","1"
"100","73","19","644.393179603","1","1","2","209","0","left","2","out","Female","Right-handed","2","no","left","d","473.150171613","816.130358565","10","red","3"
"100","74","19","650.2768666","1","1","2","210","0","right","2","in","Female","Right-handed","2","no","right","s","535.62808246","1847.52405834","10","red","0"
"100","74","19","650.557635448","1","1","2","211","3","right","0","out","Female","Right-handed","2","no","right","s","713.044964699","640.293311901","10","green","1"
"100","74","19","649.613177105","1","1","2","212","3","right","0","in","Female","Right-handed","2","no","right","d","481.871659366","639.796526415","10","green","2"
"100","75","19","648.137562555","1","1","2","213","2","left","2","out","Female","Right-handed","2","no","left","d","535.488251296","480.42010926","10","red","0"
"100","100","19","514.96161378","1","1","3","214","3","right","0","in","Female","Right-handed","2","no","right","s","605.43686655","424.486361009","10","red","1"
"100","100","19","566.588016982","1","1","3","215","1","left","3","out","Female","Right-handed","2","no","left","d","547.215467635","689.213372734","10","red","2"
"100","100","19","553.659193396","1","1","3","216","0","left","1","in","Female","Right-handed","2","no","left","s","526.735333603","528.867758846","10","green","3"
"100","100","19","556.09915633","1","1","3","217","3","right","3","in","Female","Right-handed","2","no","right","d","462.490931821","664.347158445","10","green","0"
"100","100","19","604.366965721","1","1","3","218","3","right","0","in","Female","Right-handed","2","no","right","d","1057.94173659","536.934669983","10","red","3"
"100","100","19","615.225609244","1","1","3","219","2","left","1","in","Female","Right-handed","2","no","left","d","666.399405268","672.638248441","10","red","2"
"100","100","19","604.727241722","1","1","3","220","3","left","1","in","Female","Right-handed","2","no","left","s","451.188019676","632.286053509","10","green","2"
"100","100","19","609.042890964","1","1","3","221","1","right","1","out","Female","Right-handed","2","no","right","s","685.711500088","592.793371233","10","red","2"
"100","88","19","604.647002214","1","0","3","222","0","left","2","in","Female","Right-handed","2","no","left","s","618.521984602","520.437799827","10","green","3"
"100","80","19","644.339355481","1","0","3","223","2","left","2","in","Female","Right-handed","2","no","left","s","843.166842311","1159.97422745","10","red","1"
"100","81","19","631.923078515","1","1","3","224","3","left","3","in","Female","Right-handed","2","no","left","s","638.709307047","376.811310674","10","green","1"
"100","83","19","633.20417659","1","1","3","225","1","right","2","out","Female","Right-handed","2","no","right","d","710.233909313","584.358601509","10","green","1"
"100","76","19","643.869960176","1","0","3","226","0","right","2","out","Female","Right-handed","2","no","right","d","598.872819708","944.8459067","10","red","0"
"100","71","19","645.55181354","1","0","3","227","2","left","2","out","Female","Right-handed","2","no","left","s","534.490831758","800.340982781","10","red","3"
"100","66","19","645.78312828","1","0","3","228","1","right","2","out","Female","Right-handed","2","no","right","d","608.919817091","689.12325219","10","green","0"
"100","68","19","645.7106971","1","1","3","229","1","left","2","in","Female","Right-handed","2","no","left","d","632.636593559","656.611865251","10","red","0"
"100","64","19","639.299731495","1","0","3","230","0","right","2","out","Female","Right-handed","2","no","right","s","497.26880232","576.179761298","10","green","0"
"100","61","19","635.720228844","1","0","3","231","2","right","2","in","Female","Right-handed","2","no","right","d","461.819678094","687.917689475","10","red","0"
"100","63","19","634.150041404","1","1","3","232","1","left","2","out","Female","Right-handed","2","no","left","d","491.309942188","720.463392779","10","green","3"
"100","60","19","630.41699032","1","0","3","233","1","left","1","in","Female","Right-handed","2","no","left","s","494.935931029","624.042108423","10","green","0"
"100","57","19","639.570217098","1","0","3","234","3","right","2","out","Female","Right-handed","2","no","right","d","732.657568234","912.611937091","10","red","1"
"100","59","19","637.212580046","1","1","3","235","2","left","3","out","Female","Right-handed","2","no","left","d","543.261067989","632.143335923","10","green","0"
"100","56","19","634.127061572","1","0","3","236","0","left","0","out","Female","Right-handed","2","no","left","s","475.690223942","656.801086321","10","green","3"
"100","58","19","630.455954359","1","1","3","237","2","left","2","in","Female","Right-handed","2","no","left","d","531.417111871","560.623865074","10","green","1"
"100","60","19","636.802048462","1","1","3","238","2","right","2","out","Female","Right-handed","2","no","right","s","746.135881254","832.080732613","10","red","1"
"100","61","19","631.701855042","1","1","3","239","2","right","2","in","Female","Right-handed","2","no","right","s","511.653452194","496.740586894","10","red","3"
"100","62","19","632.707542551","1","1","3","240","1","left","2","in","Female","Right-handed","2","no","left","s","797.213062283","520.497773285","10","red","1"
"100","64","19","633.481977632","1","1","3","241","1","right","2","in","Female","Right-handed","2","no","right","d","716.893208118","591.890241517","10","red","1"
"100","65","19","633.192965435","1","1","3","242","2","left","0","out","Female","Right-handed","2","no","left","d","529.572366797","720.628881037","10","green","2"
"100","66","19","632.392776331","1","1","3","243","2","right","2","out","Female","Right-handed","2","no","right","s","498.174497747","720.200086849","10","green","3"
"100","67","19","633.033647438","1","1","3","244","3","left","2","in","Female","Right-handed","2","no","left","s","567.699770946","736.819790342","10","red","0"
"100","68","19","632.358158964","1","1","3","245","2","right","2","out","Female","Right-handed","2","no","right","s","670.453867582","552.382164984","10","red","1"
"100","69","19","631.013349872","1","1","3","246","1","left","2","in","Female","Right-handed","2","no","left","s","560.019961219","615.938956641","10","green","0"
"100","70","19","636.488812884","1","1","3","247","2","right","0","in","Female","Right-handed","2","no","right","s","714.704978695","919.653205886","10","green","3"
"100","71","19","636.581179367","1","1","3","248","2","left","0","in","Female","Right-handed","2","no","left","s","623.146034408","656.297245134","10","red","2"
"100","69","19","633.449981352","1","0","3","249","3","left","2","out","Female","Right-handed","2","no","left","s","511.778851243","535.937250446","10","red","3"
"100","67","19","634.570193658","1","0","3","250","0","left","2","out","Female","Right-handed","2","no","left","d","613.385434339","736.410238977","10","green","1"
"100","68","19","632.594753084","1","1","3","251","1","right","2","in","Female","Right-handed","2","no","right","d","535.108526301","583.898377382","10","green","1"
"100","69","19","627.364147043","1","1","3","252","3","left","2","in","Female","Right-handed","2","no","left","s","432.720363971","424.481871018","10","red","1"
"100","67","19","624.136843234","1","0","3","253","1","right","2","out","Female","Right-handed","2","no","right","d","460.165436944","536.378552465","10","red","3"
"100","68","19","623.973096315","1","1","3","254","1","right","1","in","Female","Right-handed","2","no","right","d","522.786386089","712.060052994","10","green","2"
"100","66","19","626.865282204","1","0","3","255","0","left","2","out","Female","Right-handed","2","no","left","d","818.433082771","672.4567245","10","green","0"
"100","65","19","625.709457812","1","0","3","256","1","left","1","in","Female","Right-handed","2","no","left","s","402.273731689","752.055935031","10","green","3"
"100","65","19","624.811602581","1","1","3","257","0","left","1","in","Female","Right-handed","2","no","left","s","468.64927586","703.758379447","10","red","2"
"100","66","19","620.999426493","1","1","3","258","2","right","3","in","Female","Right-handed","2","no","right","s","578.423794902","328.103562295","10","red","2"
"100","65","19","618.184049994","1","0","3","259","0","right","3","in","Female","Right-handed","2","no","right","d","454.840307039","528.143908076","10","green","2"
"100","65","19","616.414595497","1","1","3","260","1","right","2","in","Female","Right-handed","2","no","right","d","517.589220942","552.450156283","10","green","3"
"100","64","19","619.276737472","1","0","3","261","3","right","2","in","Female","Right-handed","2","no","right","s","747.31193831","760.282882292","10","green","1"
"100","65","19","619.614181577","1","1","3","262","3","left","2","out","Female","Right-handed","2","no","left","d","591.792744559","679.830252665","10","red","3"
"100","66","19","623.409321094","1","1","3","263","2","left","1","out","Female","Right-handed","2","no","left","d","1122.4494443","496.292870599","10","green","2"
"100","66","19","622.979319892","1","1","3","264","0","left","2","out","Female","Right-handed","2","no","left","d","562.961867785","639.996651749","10","red","3"
"100","65","19","622.981492872","1","0","3","265","2","right","0","in","Female","Right-handed","2","no","right","s","646.520288667","599.664341064","10","green","1"
"100","64","19","622.107460648","1","0","3","266","3","left","2","out","Female","Right-handed","2","no","left","d","449.146356404","704.169213667","10","red","1"
"100","64","19","620.511202279","1","1","3","267","0","right","2","in","Female","Right-handed","2","no","right","s","567.885143452","503.933873971","10","red","0"
"100","65","19","618.709742051","1","1","3","268","2","right","1","in","Female","Right-handed","2","no","right","s","386.404498202","656.457281259","10","green","0"
"100","66","19","623.607192041","1","1","3","269","0","right","1","out","Female","Right-handed","2","no","right","d","761.999021182","1023.93486177","10","green","2"
"100","66","19","626.308966149","1","1","3","270","0","right","3","out","Female","Right-handed","2","no","right","d","571.453403831","983.763228638","10","green","0"
"100","67","19","623.782966242","1","1","3","271","2","left","2","in","Female","Right-handed","2","no","left","d","423.185867046","536.416075966","10","green","0"
"100","67","19","624.946597096","1","1","3","272","3","right","3","out","Female","Right-handed","2","no","right","s","840.937882251","543.936490994","10","red","2"
"100","68","19","622.811874809","1","1","3","273","3","right","0","in","Female","Right-handed","2","no","right","s","530.240734101","463.485785649","10","red","2"
"100","68","19","624.216623982","1","1","3","274","2","left","2","out","Female","Right-handed","2","no","left","s","560.943295897","856.059852869","10","green","0"
"100","69","19","626.692367281","1","1","3","275","0","left","0","in","Female","Right-handed","2","no","left","s","443.799097255","1111.62631982","10","green","2"
"100","69","19","628.184466647","1","1","3","276","1","right","3","in","Female","Right-handed","2","no","right","s","809.223148087","632.166106594","10","green","0"
"100","70","19","628.342823719","1","1","3","277","1","right","3","in","Female","Right-handed","2","no","right","s","716.742472691","559.89616574","10","red","1"
"100","70","19","630.238637127","1","1","3","278","3","left","2","out","Female","Right-handed","2","no","left","d","687.554962306","815.586428167","10","red","0"
"100","71","19","629.525512958","1","1","3","279","0","right","3","out","Female","Right-handed","2","no","right","d","470.221735022","696.12314892","10","red","2"
"100","70","19","630.485373058","1","0","3","280","1","left","3","out","Female","Right-handed","2","no","left","s","627.82300197","759.8492774","10","red","2"
"100","70","19","632.027289451","1","1","3","281","0","left","2","in","Female","Right-handed","2","no","left","d","575.384070665","895.287304935","10","green","1"
"100","71","19","630.525539931","1","1","3","282","2","right","3","out","Female","Right-handed","2","no","right","s","584.771680726","472.04146443","10","green","2"
"100","71","19","632.103258167","1","1","3","283","3","right","3","in","Female","Right-handed","2","no","right","s","842.485325745","639.446307078","10","red","2"
"100","71","19","630.386945208","1","1","3","284","2","right","2","in","Female","Right-handed","2","no","right","s","548.266125644","472.223950512","10","red","3"
"100","72","19","630.398461978","1","1","3","285","0","left","2","out","Female","Right-handed","2","no","left","s","470.680034868","791.752270493","10","green","1"
"100","71","19","631.205867876","1","0","3","286","1","left","0","out","Female","Right-handed","2","no","left","s","507.438953755","871.239231236","10","green","3"
"100","71","19","632.418566767","1","1","3","287","2","left","1","out","Female","Right-handed","2","no","left","d","642.057878555","799.83329303","10","red","3"
"100","70","19","632.800426934","1","0","3","288","2","right","2","out","Female","Right-handed","2","no","right","s","706.535759896","615.580398749","10","green","0"
"100","71","19","633.599992127","1","1","3","289","0","left","2","in","Female","Right-handed","2","no","left","s","531.015578346","856.119184899","10","red","3"
"100","71","19","631.687037414","1","1","3","290","1","right","2","out","Female","Right-handed","2","no","right","s","460.749135836","511.855822524","10","green","3"
"100","70","19","635.311947997","1","0","3","291","2","left","3","in","Female","Right-handed","2","no","left","d","685.482831235","1143.37729463","10","red","1"
"100","70","19","641.711982765","1","1","3","292","3","right","0","out","Female","Right-handed","2","no","right","d","705.886314698","1575.9430746","10","green","2"
"100","71","19","642.020888242","1","1","3","293","1","right","0","out","Female","Right-handed","2","no","right","d","709.437897965","623.410943906","10","red","1"
"100","71","19","640.207497236","1","1","3","294","3","right","1","out","Female","Right-handed","2","no","right","s","550.173730599","440.098702841","10","green","2"
"100","71","19","640.422379601","1","1","3","295","0","right","0","out","Female","Right-handed","2","no","right","d","707.841385277","607.814317043","10","red","1"
"100","72","19","639.577305091","1","1","3","296","0","right","1","out","Female","Right-handed","2","no","right","d","597.233652102","543.328738575","10","green","0"
"100","72","19","638.731867727","1","1","3","297","3","left","2","out","Female","Right-handed","2","no","left","d","537.085084698","600.036048218","10","red","3"
"100","72","19","637.631778892","1","1","3","298","0","left","3","in","Female","Right-handed","2","no","left","s","578.772731384","511.675902151","10","red","1"
"100","72","19","638.609880213","1","0","3","299","1","left","0","out","Female","Right-handed","2","no","left","d","924.258333585","519.238651386","10","red","2"
"100","72","19","639.266985739","1","1","3","300","1","left","0","out","Female","Right-handed","2","no","left","s","663.766025261","727.790096746","10","green","2"
"100","71","19","652.408846904","1","0","3","301","0","right","0","in","Female","Right-handed","2","no","right","None","591.408208858","3000.09332768","10","red","2"
"100","71","19","652.896896383","1","1","3","302","0","right","2","in","Female","Right-handed","2","no","right","s","656.885434018","734.80506702","10","green","3"
"100","72","19","652.570801642","1","1","3","303","1","right","2","in","Female","Right-handed","2","no","right","d","655.630160684","591.466578748","10","green","0"
"100","71","19","652.35152414","1","0","3","304","3","left","2","out","Female","Right-handed","2","no","left","s","634.152607114","631.080490794","10","green","3"
"100","71","19","652.550687123","1","1","3","305","3","left","2","out","Female","Right-handed","2","no","left","s","621.759909893","719.589127293","10","red","0"
"100","72","19","652.72471547","1","1","3","306","0","left","2","in","Female","Right-handed","2","no","left","d","546.259740877","791.210905804","10","green","1"
"100","72","19","651.696049589","1","1","3","307","3","right","1","out","Female","Right-handed","2","no","right","d","441.009208973","671.05103645","10","red","3"
"100","71","19","652.166905339","1","0","3","308","3","right","1","out","Female","Right-handed","2","no","right","s","505.374199098","887.480492591","10","red","0"
"100","71","19","650.338692352","1","1","3","309","3","left","2","in","Female","Right-handed","2","no","left","s","554.086758181","399.230158888","10","red","0"
"100","100","19","550.939594862","1","1","4","310","3","right","2","in","Female","Right-handed","2","no","right","s","509.451752797","592.427436927","10","red","3"
"100","100","19","507.262400875","1","1","4","311","2","left","0","out","Female","Right-handed","2","no","left","d","471.079644111","456.090769668","10","red","3"
"100","100","19","534.763171123","1","1","4","312","3","left","3","out","Female","Right-handed","2","no","left","s","611.678275432","567.851147803","10","green","2"
"100","100","19","517.05615472","1","1","4","313","3","left","0","in","Female","Right-handed","2","no","left","d","471.434032725","456.436178299","10","red","3"
"100","100","19","527.63987446","1","1","4","314","0","right","1","in","Female","Right-handed","2","no","right","s","484.048343097","655.901163742","10","red","3"
"100","83","19","577.330936319","1","0","4","315","3","right","2","in","Female","Right-handed","2","no","right","d","1067.8065686","583.765922632","10","red","1"
"100","85","19","590.657097426","1","1","4","316","1","right","1","in","Female","Right-handed","2","no","right","s","453.153673807","888.074454322","10","red","3"
"100","75","19","579.931169232","1","0","4","317","1","right","2","in","Female","Right-handed","2","no","right","s","497.758532107","511.940811649","10","red","3"
"100","77","19","574.604201905","1","1","4","318","1","right","2","out","Female","Right-handed","2","no","right","d","511.444988304","552.531938272","10","red","1"
"100","80","19","604.755414128","1","1","4","319","1","right","3","out","Female","Right-handed","2","no","right","s","1224.14775151","528.084896759","10","red","2"
"100","72","19","606.513414899","1","0","4","320","1","left","0","in","Female","Right-handed","2","no","left","s","664.619123643","583.567721579","10","red","2"
"100","75","19","615.456336009","1","1","4","321","1","right","3","in","Female","Right-handed","2","no","right","d","619.319920232","808.337016196","10","green","2"
"100","76","19","618.137954643","1","1","4","322","1","right","0","in","Female","Right-handed","2","no","right","s","772.714706582","527.920049929","10","green","3"
"100","78","19","628.518091596","1","1","4","323","2","right","1","in","Female","Right-handed","2","no","right","s","542.501938714","984.417805254","10","red","2"
"100","73","19","642.182796533","1","0","4","324","3","left","1","out","Female","Right-handed","2","no","left","s","683.020712331","983.956618985","10","green","0"
"100","75","19","635.526674799","1","1","4","325","2","left","1","in","Female","Right-handed","2","no","left","s","519.689574818","551.680122744","10","red","0"
"100","76","19","632.502422049","1","1","4","326","1","right","2","out","Female","Right-handed","2","no","right","s","528.057315382","640.171440703","10","green","3"
"100","77","19","637.765660502","1","1","4","327","0","right","2","out","Female","Right-handed","2","no","right","s","870.64655236","583.834876074","10","green","1"
"100","73","19","651.430583871","1","0","4","328","0","right","2","out","Female","Right-handed","2","no","right","d","1090.39667792","704.401731085","10","red","1"
"100","75","19","646.6370525","1","1","4","329","0","left","3","out","Female","Right-handed","2","no","left","d","479.002875519","632.117037401","10","green","2"
"100","76","19","657.5410415","1","1","4","330","2","left","2","in","Female","Right-handed","2","no","left","d","919.68752225","831.554120754","10","green","0"
"100","77","19","650.007218973","1","1","4","331","1","right","2","out","Female","Right-handed","2","no","right","d","479.293442111","504.300449705","10","red","0"
"100","78","19","648.130013365","1","1","4","332","0","right","2","out","Female","Right-handed","2","no","right","s","429.888462197","783.77451776","10","green","0"
"100","75","19","656.770732108","1","0","4","333","2","left","2","out","Female","Right-handed","2","no","left","s","967.613691395","743.40083501","10","red","0"
"100","76","19","655.417617316","1","1","4","334","0","left","2","in","Female","Right-handed","2","no","left","s","677.958567641","567.927156944","10","red","1"
"100","73","19","652.774223887","1","0","4","335","3","left","2","in","Female","Right-handed","2","no","left","d","517.723279259","655.655497065","10","red","0"
"100","70","19","655.714003554","1","0","4","336","3","right","3","in","Female","Right-handed","2","no","right","s","928.178096154","536.118453672","10","red","2"
"100","67","19","651.48562937","1","0","4","337","0","left","1","out","Female","Right-handed","2","no","left","d","682.778252791","391.860800001","10","green","2"
"100","68","19","652.157998288","1","1","4","338","1","left","0","in","Female","Right-handed","2","no","left","s","622.424749346","719.543906664","10","red","1"
"100","70","19","648.922188234","1","1","4","339","2","left","0","out","Female","Right-handed","2","no","left","s","502.147178073","608.020215224","10","red","2"
"100","70","19","659.168827466","1","1","4","340","3","left","2","out","Female","Right-handed","2","no","left","d","573.727584518","1359.40842438","10","red","0"
"100","68","19","656.751034943","1","0","4","341","1","right","2","out","Female","Right-handed","2","no","right","s","619.370272279","544.228661155","10","green","1"
"100","69","19","654.949402169","1","1","4","342","1","left","1","in","Female","Right-handed","2","no","left","s","586.7969876","607.797319219","10","red","2"
"100","70","19","653.035851148","1","1","4","343","2","left","2","in","Female","Right-handed","2","no","left","s","580.36731979","599.410015118","10","red","0"
"100","71","19","652.308061798","1","1","4","344","2","left","1","out","Female","Right-handed","2","no","left","d","599.069096479","656.057351302","10","red","3"
"100","72","19","647.195546862","1","1","4","345","2","left","2","out","Female","Right-handed","2","no","left","s","480.739860798","455.775187409","10","red","3"
"100","72","19","648.009492293","1","1","4","346","3","left","2","out","Female","Right-handed","2","no","left","d","427.285229275","927.337826318","10","red","3"
"100","73","19","647.63975242","1","1","4","347","3","left","1","in","Female","Right-handed","2","no","left","d","675.85949662","592.059257625","10","green","2"
"100","74","19","645.30610369","1","1","4","348","1","left","2","in","Female","Right-handed","2","no","left","s","497.578611733","615.676292139","10","green","0"
"100","75","19","642.314858408","1","1","4","349","1","left","3","in","Female","Right-handed","2","no","left","s","555.095081985","496.217502885","10","green","1"
"100","73","19","644.38921668","1","0","4","350","0","left","2","out","Female","Right-handed","2","no","left","d","534.913532385","919.813562725","10","green","0"
"100","73","19","644.567757072","1","1","4","351","2","left","1","out","Female","Right-handed","2","no","left","s","648.485622085","655.290204186","10","green","2"
"100","74","19","647.030797717","1","1","4","352","2","left","0","out","Female","Right-handed","2","no","left","s","909.027320315","591.929689299","10","red","2"
"100","75","19","648.316667933","1","1","4","353","0","left","3","in","Female","Right-handed","2","no","left","d","543.711670707","863.506503753","10","green","0"
"100","75","19","649.743724827","1","1","4","354","0","right","0","in","Female","Right-handed","2","no","right","s","761.957649117","663.110807217","10","green","1"
"100","76","19","649.165681495","1","1","4","355","3","left","2","out","Female","Right-handed","2","no","left","d","430.689925678","815.617537393","10","green","1"
"100","76","19","650.721429724","1","1","4","356","3","right","1","out","Female","Right-handed","2","no","right","d","573.345935242","871.225761262","10","green","3"
"100","77","19","649.707136964","1","1","4","357","1","left","2","in","Female","Right-handed","2","no","left","d","645.028328639","559.042425929","10","green","0"
"100","77","19","647.104753347","1","1","4","358","1","right","2","in","Female","Right-handed","2","no","right","d","452.620968388","591.759711049","10","red","3"
"100","76","19","647.067413374","1","0","4","359","0","right","1","in","Female","Right-handed","2","no","right","s","699.218677338","591.256832004","10","green","2"
"100","74","19","646.836704154","1","0","4","360","0","right","2","out","Female","Right-handed","2","no","right","s","486.798142169","783.804344131","10","green","3"
"100","73","19","645.906158981","1","0","4","361","1","left","0","in","Female","Right-handed","2","no","left","d","621.473833292","575.42287702","10","red","2"
"100","73","19","642.124541617","1","1","4","362","2","left","3","out","Female","Right-handed","2","no","left","d","435.862395872","455.09848155","10","red","2"
"100","74","19","643.181994844","1","1","4","363","3","right","3","out","Female","Right-handed","2","no","right","s","710.746730484","687.707301303","10","red","0"
"100","74","19","640.884124807","1","1","4","364","0","right","0","in","Female","Right-handed","2","no","right","d","570.330264532","463.268021062","10","green","2"
"100","75","19","646.258783889","1","1","4","365","1","left","2","in","Female","Right-handed","2","no","left","s","1275.88079201","607.849274835","10","red","1"
"100","73","19","643.972761461","1","0","4","366","2","left","2","out","Female","Right-handed","2","no","left","s","496.383311857","535.527699078","10","red","3"
"100","72","19","644.80309087","1","0","4","367","1","right","3","in","Female","Right-handed","2","no","right","s","753.063296694","631.200437711","10","green","0"
"100","72","19","643.064881453","1","1","4","368","0","right","2","out","Female","Right-handed","2","no","right","s","492.731024494","591.766446038","10","red","0"
"100","73","19","641.726626761","1","1","4","369","2","left","2","out","Female","Right-handed","2","no","left","d","502.286367809","623.252832063","10","green","1"
"100","73","19","641.622496594","1","1","4","370","3","left","2","out","Female","Right-handed","2","no","left","d","550.720226706","720.029146458","10","green","0"
"100","74","19","639.509084194","1","1","4","371","3","right","2","out","Female","Right-handed","2","no","right","d","501.603889103","519.577966458","10","green","3"
"100","74","19","644.392058156","1","1","4","372","2","right","2","out","Female","Right-handed","2","no","right","s","743.00315005","1151.26973752","10","green","1"
"100","75","19","643.023001224","1","1","4","373","1","right","1","out","Female","Right-handed","2","no","right","s","609.759445499","503.785383538","10","green","2"
"100","75","19","642.312678172","1","1","4","374","0","right","0","in","Female","Right-handed","2","no","right","s","506.423574252","687.280431399","10","red","2"
"100","75","19","641.089148315","1","1","4","375","2","left","2","out","Female","Right-handed","2","no","left","d","523.973668125","599.145747048","10","green","3"
"100","74","19","640.559592809","1","0","4","376","2","left","2","out","Female","Right-handed","2","no","left","s","523.66289657","687.554962306","10","red","1"
"100","75","19","639.501884872","1","1","4","377","3","left","0","in","Female","Right-handed","2","no","left","s","586.152353107","551.118553094","10","green","2"
"100","73","19","638.045053244","1","0","4","378","0","right","2","out","Female","Right-handed","2","no","right","s","479.034305459","598.926699606","10","green","3"
"100","74","19","636.623213476","1","1","4","379","3","right","2","out","Female","Right-handed","2","no","right","d","533.566214225","543.466324743","10","red","0"
"100","73","19","635.932827758","1","0","4","380","2","left","2","in","Female","Right-handed","2","no","left","s","552.061451307","623.150203685","10","green","1"
"100","72","19","637.743110322","1","0","4","381","0","right","2","in","Female","Right-handed","2","no","right","s","549.788553473","982.757791257","10","green","1"
"100","72","19","638.292539623","1","1","4","382","3","right","0","in","Female","Right-handed","2","no","right","d","708.38756067","647.315337875","10","green","1"
"100","72","19","637.773642228","1","1","4","383","3","right","0","out","Female","Right-handed","2","no","right","s","536.881431512","662.906833318","10","red","2"
"100","73","19","637.837372081","1","1","4","384","1","left","1","in","Female","Right-handed","2","no","left","d","725.60860231","559.498160065","10","red","0"
"100","73","19","635.941638736","1","1","4","385","2","left","3","in","Female","Right-handed","2","no","left","s","556.160813536","431.36246226","10","green","1"
"100","74","19","634.720166195","1","1","4","386","3","right","3","in","Female","Right-handed","2","no","right","s","556.910321401","526.866184784","10","red","1"
"100","73","19","634.986030946","1","0","4","387","0","left","2","out","Female","Right-handed","2","no","left","s","631.446425101","679.46880835","10","red","3"
"100","72","19","634.005381267","1","0","4","388","1","left","2","in","Female","Right-handed","2","no","left","s","579.972200538","535.057212113","10","red","0"
"100","72","19","635.420117679","1","1","4","389","3","left","2","in","Female","Right-handed","2","no","left","s","687.652779979","806.715808554","10","green","1"
"100","72","19","635.356558341","1","1","4","390","0","right","1","out","Female","Right-handed","2","no","right","d","557.262785732","703.28083678","10","red","0"
"100","73","19","634.593975624","1","1","4","391","2","right","2","in","Female","Right-handed","2","no","right","s","570.751682304","574.897868729","10","green","0"
"100","73","19","635.066341634","1","1","4","392","0","right","3","in","Female","Right-handed","2","no","right","s","940.307166732","407.293542173","10","red","1"
"100","73","19","634.822854793","1","1","4","393","2","right","0","in","Female","Right-handed","2","no","right","d","670.177733106","559.049160916","10","green","1"
"100","74","19","634.186265071","1","1","4","394","2","right","2","out","Female","Right-handed","2","no","right","d","498.839978628","662.585478213","10","green","3"
"100","74","19","635.99033005","1","1","4","395","2","right","3","out","Female","Right-handed","2","no","right","s","547.289552495","1031.38215408","10","red","2"
"100","74","19","636.501858764","1","1","4","396","1","right","2","in","Female","Right-handed","2","no","right","d","634.028170207","726.95848618","10","green","3"
"100","75","19","634.525434942","1","1","4","397","0","left","0","in","Female","Right-handed","2","no","left","s","461.386714629","463.766410117","10","green","3"
"100","74","19","633.189181424","1","0","4","398","2","left","3","out","Female","Right-handed","2","no","left","s","536.153411463","495.044332252","10","green","0"
"100","73","19","632.323728458","1","0","4","399","0","right","2","out","Female","Right-handed","2","no","right","s","511.940490935","598.656337976","10","green","3"
"100","73","19","632.747280307","1","1","4","400","1","right","2","out","Female","Right-handed","2","no","right","s","686.408090195","655.325803404","10","red","1"
"100","73","19","631.516169868","1","1","4","401","3","right","2","in","Female","Right-handed","2","no","right","d","495.928219147","543.042020548","10","green","3"
"100","74","19","629.888094583","1","1","4","402","0","left","3","in","Female","Right-handed","2","no","left","s","497.498433314","462.711903545","10","green","2"
"100","74","19","628.711285031","1","1","4","403","3","left","1","out","Female","Right-handed","2","no","left","s","447.173967286","591.36202609","10","green","2"
"100","74","19","629.996905619","1","1","4","404","3","right","2","in","Female","Right-handed","2","no","right","s","918.828971735","582.861510061","10","red","1"
"100","75","19","629.490515989","1","1","4","405","0","right","2","out","Female","Right-handed","2","no","right","s","556.285571156","606.481430998","10","red","0"
"100","100","19","618.155408868","1","1","5","406","0","right","2","in","Female","Right-handed","2","no","right","s","668.211437547","568.099380189","10","red","1"
"100","100","19","553.940913636","1","1","5","407","0","left","2","in","Female","Right-handed","2","no","left","s","547.760360174","431.692476634","10","green","0"
"100","100","19","563.075988402","1","1","5","408","1","right","0","out","Female","Right-handed","2","no","right","s","595.31674645","567.375529418","10","green","1"
"100","100","19","550.171525693","1","1","5","409","1","left","2","in","Female","Right-handed","2","no","left","d","542.951900004","479.964375125","10","red","3"
"100","100","19","556.756891977","1","1","5","410","2","right","3","in","Female","Right-handed","2","no","right","s","662.627812419","503.568901806","10","red","1"
"100","100","19","533.349973028","1","1","5","411","0","left","0","in","Female","Right-handed","2","no","left","s","416.222852389","416.40790418","10","red","2"
"100","100","19","531.637923238","1","1","5","412","1","right","2","out","Female","Right-handed","2","no","right","s","634.978444834","407.75280416","10","green","1"
"100","100","19","542.493700382","1","1","5","413","1","right","0","out","Female","Right-handed","2","no","right","s","573.496349957","663.471930819","10","red","2"
"100","100","19","542.951793099","1","1","5","414","3","right","2","out","Female","Right-handed","2","no","right","d","461.181457875","632.051611811","10","red","1"
"100","100","19","561.57362656","1","1","5","415","2","right","2","in","Female","Right-handed","2","no","right","s","642.747733678","815.592521726","10","green","1"
"100","90","19","564.407703356","1","0","5","416","1","right","2","out","Female","Right-handed","2","no","right","s","602.198299833","583.298642803","10","red","3"
"100","83","19","604.569496409","1","0","5","417","3","right","1","out","Female","Right-handed","2","no","right","d","540.885221065","1551.81321892","10","red","0"
"100","84","19","614.894231836","1","1","5","418","3","right","2","out","Female","Right-handed","2","no","right","s","454.314657321","1023.26745661","10","red","3"
"100","85","19","612.48325531","1","1","5","419","3","right","3","in","Female","Right-handed","2","no","right","d","642.204765421","520.076355512","10","red","2"
"100","86","19","622.457782855","1","1","5","420","0","right","0","in","Female","Right-handed","2","no","right","d","812.63137234","711.570964637","10","red","2"
"100","87","19","620.574822742","1","1","5","421","2","right","3","in","Female","Right-handed","2","no","right","d","585.324270393","599.336571687","10","red","2"
"100","82","19","646.947196304","1","0","5","422","0","left","2","in","Female","Right-handed","2","no","left","d","817.872475262","1319.93787135","10","red","3"
"100","83","19","646.415923092","1","1","5","423","3","right","3","out","Female","Right-handed","2","no","right","s","667.459363973","607.309193001","10","green","1"
"100","84","19","644.131824192","1","1","5","424","1","left","3","out","Female","Right-handed","2","no","left","s","614.962062779","591.074025207","10","red","2"
"100","85","19","639.658972318","1","1","5","425","3","left","2","out","Female","Right-handed","2","no","left","s","533.741323893","575.608249526","10","red","3"
"100","85","19","642.495011299","1","1","5","426","1","left","1","in","Female","Right-handed","2","no","left","s","503.273203795","895.158378035","10","red","3"
"100","86","19","646.24056074","1","1","5","427","0","right","2","in","Female","Right-handed","2","no","right","s","578.858682649","870.935515383","10","green","0"
"100","86","19","642.578508408","1","1","5","428","2","left","2","out","Female","Right-handed","2","no","left","s","548.519810163","575.506904005","10","red","0"
"100","87","19","639.726082991","1","1","5","429","1","right","2","out","Female","Right-handed","2","no","right","d","557.113012445","591.127584391","10","green","0"
"100","88","19","643.703152551","1","1","5","430","1","left","1","out","Female","Right-handed","2","no","left","d","846.758514788","631.547129197","10","green","2"
"100","88","19","646.130325506","1","1","5","431","1","right","3","out","Female","Right-handed","2","no","right","d","558.29420092","855.325097833","10","green","0"
"100","88","19","658.844097779","1","1","5","432","3","right","0","out","Female","Right-handed","2","no","right","s","603.887498774","1374.91685498","10","red","2"
"100","89","19","658.208171766","1","1","5","433","3","right","3","out","Female","Right-handed","2","no","right","d","562.610365595","719.465973242","10","red","0"
"100","86","19","660.515912851","1","0","5","434","1","left","2","in","Female","Right-handed","2","no","left","d","627.159124657","823.106201768","10","red","1"
"100","86","19","662.586397592","1","1","5","435","3","right","2","out","Female","Right-handed","2","no","right","d","565.65522125","879.605688948","10","green","1"
"100","87","19","663.670809508","1","1","5","436","2","left","2","in","Female","Right-handed","2","no","left","s","713.112635285","679.293698682","10","green","1"
"100","87","19","664.195085039","1","1","5","437","1","right","2","in","Female","Right-handed","2","no","right","d","562.04398524","798.851267749","10","red","0"
"100","87","19","663.049920211","1","1","5","438","2","left","2","out","Female","Right-handed","2","no","left","s","533.425741634","719.383549826","10","green","0"
"100","88","19","661.276037281","1","1","5","439","2","right","0","in","Female","Right-handed","2","no","right","s","806.219343781","399.25645741","10","green","2"
"100","85","19","661.270712491","1","0","5","440","3","left","2","out","Female","Right-handed","2","no","left","s","666.55912068","655.62021856","10","green","0"
"100","86","19","662.78610689","1","1","5","441","3","right","2","out","Female","Right-handed","2","no","right","d","512.408091478","919.241730237","10","green","0"
"100","86","19","661.221556619","1","1","5","442","2","left","2","out","Female","Right-handed","2","no","left","d","466.892727048","742.902766669","10","green","0"
"100","86","19","666.688165736","1","1","5","443","2","right","2","out","Female","Right-handed","2","no","right","s","1178.49319734","559.4122088","10","green","3"
"100","84","19","662.469589559","1","0","5","444","3","left","0","in","Female","Right-handed","2","no","left","d","445.097666936","559.229722718","10","green","3"
"100","85","19","661.639533221","1","1","5","445","3","right","2","in","Female","Right-handed","2","no","right","s","762.817161774","495.717510262","10","green","1"
"100","85","19","662.77900154","1","1","5","446","0","left","2","in","Female","Right-handed","2","no","left","d","465.394032032","951.321436567","10","red","3"
"100","83","19","663.475573209","1","0","5","447","1","right","0","out","Female","Right-handed","2","no","right","s","753.10049948","630.969523862","10","red","2"
"100","83","19","662.629016959","1","1","5","448","1","right","2","in","Female","Right-handed","2","no","right","d","790.57396844","463.573340483","10","red","0"
"100","84","19","661.450046104","1","1","5","449","3","left","1","out","Female","Right-handed","2","no","left","s","606.246668587","615.261930068","10","green","3"
"100","82","19","661.61318481","1","0","5","450","2","left","0","out","Female","Right-handed","2","no","left","s","690.672940681","646.909635073","10","red","1"
"100","80","19","660.247712552","1","0","5","451","2","left","1","in","Female","Right-handed","2","no","left","s","566.34924565","631.253676181","10","green","3"
"100","80","19","658.3604474","1","1","5","452","3","right","1","out","Female","Right-handed","2","no","right","d","520.013174918","623.079325963","10","green","2"
"100","79","19","659.260976934","1","0","5","453","0","right","2","in","Female","Right-handed","2","no","right","s","779.492990161","623.678739827","10","red","1"
"100","79","19","657.760242754","1","1","5","454","3","left","2","in","Female","Right-handed","2","no","left","s","476.318181322","695.131822943","10","red","3"
"100","80","19","659.943987356","1","1","5","455","2","left","1","out","Female","Right-handed","2","no","left","d","694.953185424","838.94176032","10","red","2"
"100","80","19","656.434384818","1","1","5","456","2","left","3","in","Female","Right-handed","2","no","left","s","522.448033159","439.460482623","10","green","0"
"100","78","19","655.381222111","1","0","5","457","1","left","3","in","Female","Right-handed","2","no","left","s","580.113314557","623.22653354","10","green","2"
"100","79","19","660.348518464","1","1","5","458","0","left","2","in","Female","Right-handed","2","no","left","d","494.652740851","1342.64311687","10","green","3"
"100","79","19","656.995352693","1","1","5","459","1","left","1","in","Female","Right-handed","2","no","left","s","519.373671844","439.181461723","10","red","0"
"100","80","19","657.874004775","1","1","5","460","2","right","2","in","Female","Right-handed","2","no","right","d","771.842365379","638.800069018","10","red","1"
"100","80","19","659.178986386","1","1","5","461","2","right","2","in","Female","Right-handed","2","no","right","d","551.436701062","910.469249011","10","green","3"
"100","78","19","657.870019383","1","0","5","462","3","left","0","in","Female","Right-handed","2","no","left","s","562.130577933","607.005156435","10","green","1"
"100","79","19","657.952536897","1","1","5","463","1","left","2","in","Female","Right-handed","2","no","left","d","478.708139649","846.603930795","10","red","3"
"100","79","19","658.289053737","1","1","5","464","0","left","1","out","Female","Right-handed","2","no","left","d","477.233818872","878.380241985","10","red","0"
"100","80","19","658.799076409","1","1","5","465","2","left","0","in","Female","Right-handed","2","no","left","s","642.930540474","734.850287648","10","red","3"
"100","78","19","661.58037732","1","0","5","466","2","right","2","out","Female","Right-handed","2","no","right","s","682.424826317","974.492037641","10","red","1"
"100","79","19","661.943820668","1","1","5","467","3","right","2","out","Female","Right-handed","2","no","right","d","545.070855272","823.15687453","10","red","1"
"100","79","19","662.535044715","1","1","5","468","3","left","3","out","Female","Right-handed","2","no","left","s","575.732686433","822.649184777","10","green","2"
"100","79","19","663.249518388","1","1","5","469","0","right","3","in","Female","Right-handed","2","no","right","s","553.291708974","863.231010704","10","red","0"
"100","78","19","661.697747687","1","0","5","470","3","right","2","in","Female","Right-handed","2","no","right","s","517.887163948","606.881681669","10","green","0"
"100","77","19","660.232295055","1","0","5","471","3","left","0","in","Female","Right-handed","2","no","left","s","595.392114164","534.563633763","10","green","2"
"100","76","19","661.110434634","1","0","5","472","1","right","2","in","Female","Right-handed","2","no","right","s","543.256577998","894.878715709","10","red","0"
"100","76","19","663.522195613","1","1","5","473","1","left","1","out","Female","Right-handed","2","no","left","d","595.65606152","1054.56430085","10","red","2"
"100","76","19","661.902341811","1","1","5","474","1","left","2","out","Female","Right-handed","2","no","left","d","496.181582953","607.322983689","10","green","1"
"100","77","19","667.62290275","1","1","5","475","2","right","0","out","Female","Right-handed","2","no","right","s","645.817284286","1478.86593078","10","green","2"
"100","77","19","666.282141507","1","1","5","476","2","left","1","in","Female","Right-handed","2","no","left","s","562.316912578","582.540796383","10","red","0"
"100","77","19","669.557043008","1","1","5","477","1","right","2","out","Female","Right-handed","2","no","right","d","869.031758992","935.118340139","10","red","1"
"100","78","19","668.078657692","1","1","5","478","0","right","2","in","Female","Right-handed","2","no","right","s","500.652652334","622.617177553","10","green","0"
"100","78","19","666.667016996","1","1","5","479","1","left","0","out","Female","Right-handed","2","no","left","s","448.146691871","679.087800501","10","red","3"
"100","78","19","665.38321329","1","1","5","480","0","right","1","in","Female","Right-handed","2","no","right","s","597.947240034","542.816238117","10","green","3"
"100","78","19","662.824679978","1","1","5","481","0","left","0","in","Female","Right-handed","2","no","left","s","551.416175386","390.45318767","10","red","3"
"100","79","19","660.57605083","1","1","5","482","2","left","2","out","Female","Right-handed","2","no","left","d","429.258580534","550.101890735","10","red","3"
"100","79","19","667.910879491","1","1","5","483","0","right","2","in","Female","Right-handed","2","no","right","s","1266.76194001","1198.62343275","10","red","1"
"100","79","19","665.695040899","1","1","5","484","3","left","2","out","Female","Right-handed","2","no","left","s","515.335886642","470.383374716","10","green","3"
"100","80","19","665.772528292","1","1","5","485","2","left","3","out","Female","Right-handed","2","no","left","d","704.954641465","638.83342324","10","red","2"
"100","80","19","666.928068111","1","1","5","486","0","left","0","in","Female","Right-handed","2","no","left","s","728.332102863","790.410404465","10","green","1"
"100","80","19","664.68024111","1","1","5","487","0","left","1","in","Female","Right-handed","2","no","left","s","519.068031709","446.144476381","10","green","2"
"100","80","19","663.65813602","1","1","5","488","3","left","1","out","Female","Right-handed","2","no","left","d","448.865090509","710.825946763","10","green","2"
"100","80","19","664.196153846","1","1","5","489","0","left","3","in","Female","Right-handed","2","no","left","d","531.212496545","886.490770181","10","green","1"
"100","81","19","663.275680459","1","1","5","490","0","right","3","in","Female","Right-handed","2","no","right","d","572.961399544","598.950432418","10","green","2"
"100","81","19","661.267348727","1","1","5","491","2","left","2","out","Female","Right-handed","2","no","left","s","582.420528755","398.697774183","10","red","0"
"100","80","19","660.08866878","1","0","5","492","2","right","2","in","Female","Right-handed","2","no","right","s","495.23515689","622.209229755","10","green","3"
"100","80","19","659.54645007","1","1","5","493","0","left","2","out","Female","Right-handed","2","no","left","d","449.845832936","774.901011724","10","green","3"
"100","80","19","659.467759292","1","1","5","494","0","right","1","in","Female","Right-handed","2","no","right","s","634.553178498","670.532763147","10","green","2"
"100","81","19","658.795663481","1","1","5","495","3","right","2","out","Female","Right-handed","2","no","right","d","463.84947496","734.108797626","10","red","0"
"100","81","19","658.443459303","1","1","5","496","0","left","2","out","Female","Right-handed","2","no","left","s","638.732077719","614.75808888","10","green","0"
"100","81","19","657.459513245","1","1","5","497","1","right","2","out","Female","Right-handed","2","no","right","s","465.458174767","670.382669146","10","green","3"
"100","81","19","659.980172722","1","1","5","498","1","right","3","in","Female","Right-handed","2","no","right","d","848.739883889","935.021805323","10","green","1"
"100","81","19","659.3117797","1","1","5","499","2","right","1","out","Female","Right-handed","2","no","right","s","563.521513152","630.78094422","10","green","2"
"100","82","19","658.383929855","1","1","5","500","0","left","2","out","Female","Right-handed","2","no","left","d","480.184063994","662.148024757","10","green","1"
"100","82","19","656.377330012","1","1","5","501","0","left","3","out","Female","Right-handed","2","no","left","s","364.822071259","566.678618596","10","red","2"
dis_reply=No
dis_loc=0
