"acc_1","acc_2","age","avg_rt","correct_1","correct_2","count_block_loop","count_trial_sequence","cue_position","detection","dis_shape","gender","hand","high_loc","low_loc","practice","response_keyboard_response_1","response_keyboard_response_2","response_time_keyboard_response_1","response_time_keyboard_response_2","subject_nr","tar_color","tar_position"
"100","100","18","1490.07454872","1","1","0","0","3","right","out","Female","Right-handed","3","1","yes","right","s","1607.75313132","1372.39596613","22","red","2"
"100","100","18","1666.54575951","1","1","0","1","1","right","in","Female","Right-handed","3","1","yes","right","d","2421.10519404","1264.92874656","22","green","2"
"100","100","18","1485.59473012","1","1","0","2","0","right","in","Female","Right-handed","3","1","yes","right","s","941.770215468","1305.61512718","22","red","3"
"100","75","18","1660.22639625","1","0","0","3","1","left","in","Female","Right-handed","3","1","yes","left","s","1567.20401399","2801.03877528","22","red","1"
"100","60","18","1680.2855269","1","0","0","4","3","left","in","Female","Right-handed","3","1","yes","left","s","2135.61357175","1385.43052729","22","green","3"
"100","50","18","1628.82128351","1","0","0","5","2","left","out","Female","Right-handed","3","1","yes","left","s","1262.04942441","1480.95070869","22","red","3"
"100","57","18","1593.12943594","1","1","0","6","0","right","out","Female","Right-handed","3","1","yes","right","d","1540.42772911","1217.52897202","22","green","2"
"100","62","18","1549.75568015","1","1","0","7","3","right","in","Female","Right-handed","3","1","yes","right","s","1354.09568984","1138.18308936","22","red","2"
"100","66","18","1522.11918566","1","1","0","8","0","left","out","Female","Right-handed","3","1","yes","left","s","1096.5191888","1505.53527073","22","red","0"
"100","70","18","1487.77179656","1","1","0","9","2","right","in","Female","Right-handed","3","1","yes","right","s","908.112485347","1449.17810394","22","red","3"
"100","72","18","1436.81041265","1","1","0","10","0","right","out","Female","Right-handed","3","1","yes","right","d","948.726385821","905.666761275","22","red","2"
"100","75","18","1416.25905935","1","1","0","11","0","right","out","Female","Right-handed","3","1","yes","right","d","1251.20145474","1129.18689135","22","red","1"
"100","76","18","1394.80032619","1","1","0","12","3","left","in","Female","Right-handed","3","1","yes","left","s","1256.79589621","1017.79516019","22","green","1"
"100","78","18","1352.16185111","1","1","0","13","0","right","in","Female","Right-handed","3","1","yes","right","s","706.325817526","889.397532788","22","green","3"
"100","80","18","1319.11459828","1","1","0","14","2","left","in","Female","Right-handed","3","1","yes","left","d","974.918339561","737.987777793","22","green","1"
"100","81","18","1309.48065846","1","1","0","15","3","right","out","Female","Right-handed","3","1","yes","right","s","984.432802721","1345.5103196","22","green","0"
"100","76","18","1290.60450088","1","0","0","16","1","left","out","Female","Right-handed","3","1","yes","left","d","1112.11428773","865.057671432","22","red","3"
"100","77","18","1293.735616","1","1","0","17","2","left","out","Female","Right-handed","3","1","yes","left","d","1196.54789222","1497.38125362","22","red","0"
"100","78","18","1285.30650589","1","1","0","18","0","right","out","Female","Right-handed","3","1","yes","right","d","1122.11751085","1145.04753704","22","red","1"
"100","80","18","1276.92293692","1","1","0","19","0","right","out","Female","Right-handed","3","1","yes","right","s","1297.64551753","937.624735616","22","green","0"
"100","80","18","1247.93998533","1","1","0","20","1","right","out","Female","Right-handed","3","1","yes","right","d","527.280278504","809.281628688","22","green","0"
"100","81","18","1248.00350126","1","1","0","21","2","right","out","Female","Right-handed","3","1","yes","right","s","1464.80848082","1033.86619074","22","red","1"
"100","100","18","1178.65042598","1","1","1","22","0","right","out","Female","Right-handed","3","1","no","right","s","1123.68064475","1233.62020721","22","green","1"
"100","100","18","1198.16474482","1","1","1","23","0","right","out","Female","Right-handed","3","1","no","right","s","1146.22036853","1289.13775879","22","red","2"
"100","66","18","1076.3639872","1","0","1","24","2","right","out","Female","Right-handed","3","1","no","right","d","631.736043964","1033.78889995","22","red","3"
"100","75","18","1062.8771734","1","1","1","25","1","left","out","Female","Right-handed","3","1","no","left","d","843.476545775","1201.35691825","22","green","3"
"100","80","18","1031.29128522","1","1","1","26","2","right","out","Female","Right-handed","3","1","no","right","d","1047.92766096","761.967804057","22","red","2"
"100","83","18","980.846264573","1","1","1","27","0","right","out","Female","Right-handed","3","1","no","right","d","615.735569314","841.506753321","22","green","0"
"100","85","18","975.733397658","1","1","1","28","3","right","out","Female","Right-handed","3","1","no","right","d","1008.99138737","881.121004972","22","green","1"
"100","75","18","1008.91830589","1","0","1","29","1","left","in","Female","Right-handed","3","1","no","left","d","1184.75447348","1297.67085352","22","green","2"
"100","77","18","1003.77420615","1","1","1","30","0","left","in","Female","Right-handed","3","1","no","left","s","1004.02136561","921.221450917","22","red","3"
"100","80","18","976.382615026","1","1","1","31","1","left","in","Female","Right-handed","3","1","no","left","d","633.93097388","825.785615896","22","green","0"
"100","81","18","1012.37387222","1","1","1","32","2","right","in","Female","Right-handed","3","1","no","right","d","1831.1619755","913.410912752","22","green","0"
"100","75","18","1061.57846377","1","0","1","33","1","right","in","Female","Right-handed","3","1","no","right","s","2443.81617622","761.841765565","22","green","3"
"100","76","18","1056.28836246","1","1","1","34","3","right","in","Female","Right-handed","3","1","no","right","d","608.349970094","1377.26432325","22","green","3"
"100","71","18","1044.97999351","1","0","1","35","3","left","in","Female","Right-handed","3","1","no","left","d","843.036854236","952.905540082","22","red","2"
"100","73","18","1054.23807378","1","1","1","36","0","left","out","Female","Right-handed","3","1","no","left","d","1254.36620757","1113.33618764","22","red","2"
"100","75","18","1066.34299147","1","1","1","37","2","left","out","Female","Right-handed","3","1","no","left","s","694.912117815","1800.92139592","22","green","2"
"100","76","18","1047.71730439","1","1","1","38","0","right","in","Female","Right-handed","3","1","no","right","d","801.682437512","697.730184613","22","red","0"
"100","72","18","1036.93789352","1","0","1","39","3","right","out","Female","Right-handed","3","1","no","right","d","1010.16004965","697.215767963","22","green","0"
"100","73","18","1042.42890037","1","1","1","40","3","left","out","Female","Right-handed","3","1","no","left","s","1032.81875632","1249.71529091","22","green","3"
"100","75","18","1045.57284175","1","1","1","41","2","left","out","Female","Right-handed","3","1","no","left","s","897.314225513","1313.3012304","22","red","3"
"100","76","18","1032.85026977","1","1","1","42","2","left","in","Female","Right-handed","3","1","no","left","s","739.82543829","816.972221819","22","green","3"
"100","77","18","1014.89927052","1","1","1","43","1","left","out","Female","Right-handed","3","1","no","left","s","666.461733846","609.394838833","22","red","0"
"100","78","18","1009.19210914","1","1","1","44","3","left","in","Female","Right-handed","3","1","no","left","s","942.153462289","825.115655552","22","red","2"
"100","75","18","994.487679977","1","0","1","45","3","left","in","Female","Right-handed","3","1","no","left","s","654.72860833","657.843009914","22","green","3"
"100","76","18","980.820205927","1","1","1","46","2","left","in","Female","Right-handed","3","1","no","left","s","664.303364712","641.29829271","22","green","3"
"100","73","18","975.3427111","1","0","1","47","0","right","in","Female","Right-handed","3","1","no","right","d","667.971309405","1008.83937148","22","green","3"
"100","74","18","964.549823364","1","1","1","48","0","left","in","Female","Right-handed","3","1","no","left","s","526.404102504","841.465381909","22","green","3"
"100","75","18","953.671924914","1","1","1","49","1","left","out","Female","Right-handed","3","1","no","left","d","671.042094611","648.895238919","22","red","3"
"100","72","18","988.315677493","1","0","1","50","3","right","in","Female","Right-handed","3","1","no","right","None","916.594266691","3000.08723275","22","red","3"
"100","73","18","984.023204339","1","1","1","51","2","left","in","Female","Right-handed","3","1","no","left","d","830.104599121","888.978366602","22","red","2"
"100","74","18","975.512126433","1","1","1","52","1","right","out","Female","Right-handed","3","1","no","right","d","503.604604735","936.754973791","22","green","3"
"100","75","18","978.298202709","1","1","1","53","0","left","in","Female","Right-handed","3","1","no","left","s","1152.15059195","977.182542549","22","green","0"
"100","75","18","978.418417578","1","1","1","54","1","right","in","Female","Right-handed","3","1","no","right","s","955.820460891","1008.71012589","22","red","2"
"100","76","18","976.814798213","1","1","1","55","2","right","in","Female","Right-handed","3","1","no","right","s","1222.44447331","625.346245062","22","green","1"
"100","77","18","975.260393651","1","1","1","56","1","right","in","Female","Right-handed","3","1","no","right","d","979.888040612","864.93323648","22","red","0"
"100","77","18","963.243088595","1","1","1","57","2","right","in","Female","Right-handed","3","1","no","right","s","563.644468817","521.630354433","22","green","3"
"100","75","18","955.7140723","1","0","1","58","1","right","out","Female","Right-handed","3","1","no","right","d","688.157673198","681.181298194","22","green","3"
"100","76","18","946.310934957","1","1","1","59","1","right","in","Female","Right-handed","3","1","no","right","d","547.852134074","648.93757246","22","red","3"
"100","76","18","945.671586707","1","1","1","60","0","left","out","Female","Right-handed","3","1","no","left","s","1161.30650285","681.446203533","22","green","2"
"100","77","18","944.268547783","1","1","1","61","0","left","out","Female","Right-handed","3","1","no","left","d","906.066684947","873.033374544","22","red","1"
"100","78","18","948.689566906","1","1","1","62","3","left","out","Female","Right-handed","3","1","no","left","d","1537.41210579","713.648557856","22","red","0"
"100","78","18","961.411592197","1","1","1","63","0","right","out","Female","Right-handed","3","1","no","right","s","1845.0848996","1120.94435866","22","green","3"
"100","79","18","968.182775731","1","1","1","64","3","left","out","Female","Right-handed","3","1","no","left","d","1856.56594812","648.579020202","22","green","2"
"100","79","18","963.953118082","1","1","1","65","1","right","in","Female","Right-handed","3","1","no","right","d","915.044281846","649.111396542","22","red","2"
"100","80","18","962.468009759","1","1","1","66","3","left","out","Female","Right-handed","3","1","no","left","d","1057.63390788","736.612579156","22","red","2"
"100","80","18","958.172471807","1","1","1","67","0","left","out","Female","Right-handed","3","1","no","left","d","928.309753232","601.436774698","22","red","0"
"100","78","18","954.018221641","1","0","1","68","0","left","in","Female","Right-handed","3","1","no","left","s","853.000950898","672.844477154","22","red","2"
"100","79","18","960.036152549","1","1","1","69","1","right","out","Female","Right-handed","3","1","no","right","s","1541.39915557","944.358654884","22","red","1"
"100","79","18","959.882232516","1","1","1","70","3","left","out","Female","Right-handed","3","1","no","left","d","968.031442277","936.956699523","22","green","3"
"100","80","18","961.676055412","1","1","1","71","2","left","in","Female","Right-handed","3","1","no","left","s","1298.63105518","800.515699491","22","red","0"
"100","80","18","958.635845686","1","1","1","72","3","right","out","Female","Right-handed","3","1","no","right","d","908.065341177","705.18537761","22","red","0"
"100","80","18","957.01240538","1","1","1","73","1","right","out","Female","Right-handed","3","1","no","right","d","771.703876886","976.730022659","22","red","0"
"100","81","18","955.301908304","1","1","1","74","2","left","out","Female","Right-handed","3","1","no","left","s","1012.39250247","720.319618227","22","green","0"
"100","81","18","948.525259933","1","1","1","75","2","right","in","Female","Right-handed","3","1","no","right","d","681.903213339","496.822579171","22","red","0"
"100","81","18","942.78899602","1","1","1","76","0","right","in","Female","Right-handed","3","1","no","right","d","825.574910323","440.486579148","22","green","3"
"100","82","18","934.841170765","1","1","1","77","2","right","in","Female","Right-handed","3","1","no","right","d","506.149427776","489.27213571","22","red","3"
"100","80","18","937.848165447","1","0","1","78","0","left","in","Female","Right-handed","3","1","no","left","s","971.745248298","1240.73448692","22","green","3"
"100","81","18","933.614724751","1","1","1","79","2","left","out","Female","Right-handed","3","1","no","left","d","832.301132585","552.316077607","22","green","2"
"100","81","18","933.161256842","1","1","1","80","1","left","in","Female","Right-handed","3","1","no","left","s","1028.81855748","784.901678751","22","red","1"
"100","81","18","927.426339907","1","1","1","81","3","right","out","Female","Right-handed","3","1","no","right","d","609.610034331","568.5224472","22","green","0"
"100","81","18","929.667349697","1","1","1","82","3","right","out","Female","Right-handed","3","1","no","right","s","1439.17391869","689.081955487","22","red","1"
"100","82","18","929.643280438","1","1","1","83","2","right","in","Female","Right-handed","3","1","no","right","s","1063.62634878","792.723762424","22","green","1"
"100","82","18","936.564625578","1","1","1","84","3","left","in","Female","Right-handed","3","1","no","left","s","1778.1388957","953.237152815","22","red","3"
"100","81","18","932.068380794","1","0","1","85","1","right","out","Female","Right-handed","3","1","no","right","d","688.824426452","608.785492423","22","red","2"
"100","0","18","1175.61620156","1","0","2","86","2","right","in","Female","Right-handed","3","1","no","right","s","1429.61423561","921.618167504","22","red","3"
"100","0","18","905.979612552","1","0","2","87","1","right","in","Female","Right-handed","3","1","no","right","s","927.401827077","345.284220013","22","green","1"
"100","33","18","880.939270078","1","1","2","88","2","right","out","Female","Right-handed","3","1","no","right","s","1164.86476519","496.852405075","22","red","2"
"100","25","18","897.956805357","1","0","2","89","2","left","in","Female","Right-handed","3","1","no","left","d","1216.48955532","681.529267069","22","red","1"
"100","40","18","875.454660618","1","1","2","90","2","right","out","Female","Right-handed","3","1","no","right","d","882.01834774","688.873815583","22","green","0"
"100","50","18","818.15785493","1","1","2","91","1","right","in","Female","Right-handed","3","1","no","right","d","541.65443965","521.693213326","22","red","0"
"100","57","18","807.3238399","1","1","2","92","0","right","out","Female","Right-handed","3","1","no","right","s","691.293882963","793.345616472","22","green","0"
"100","62","18","779.512390578","1","1","2","93","2","right","in","Female","Right-handed","3","1","no","right","d","616.861577339","552.802913317","22","green","0"
"100","66","18","842.718622179","1","1","2","94","2","left","in","Female","Right-handed","3","1","no","left","s","1263.46439092","1433.27255905","22","green","2"
"100","70","18","819.886645532","1","1","2","95","0","left","out","Female","Right-handed","3","1","no","left","s","699.904589179","528.893122242","22","green","0"
"100","72","18","813.224843432","1","1","2","96","3","left","out","Female","Right-handed","3","1","no","left","s","820.596870846","672.616774023","22","green","0"
"100","75","18","810.936338266","1","1","2","97","1","left","in","Female","Right-handed","3","1","no","left","s","1058.22240823","513.30315465","22","red","2"
"100","76","18","801.657841628","1","1","2","98","2","left","out","Female","Right-handed","3","1","no","left","d","627.867656374","752.764107572","22","red","3"
"100","71","18","790.319260867","1","0","2","99","3","left","out","Female","Right-handed","3","1","no","left","s","692.414759655","593.420662299","22","red","2"
"100","73","18","797.725202942","1","1","2","100","2","left","in","Female","Right-handed","3","1","no","left","s","1386.03859087","416.778193095","22","green","1"
"100","75","18","781.530640102","1","1","2","101","0","right","out","Female","Right-handed","3","1","no","right","d","556.568032727","520.656362296","22","green","3"
"100","76","18","776.922777982","1","1","2","102","0","right","out","Female","Right-handed","3","1","no","right","d","637.153454274","769.24051384","22","red","0"
"100","72","18","788.747474197","1","0","2","103","3","left","out","Female","Right-handed","3","1","no","left","d","714.832934853","1264.70168484","22","green","3"
"100","73","18","773.122008284","1","1","2","104","2","right","out","Female","Right-handed","3","1","no","right","d","518.359126323","465.368117395","22","red","3"
"100","75","18","770.069417385","1","1","2","105","0","left","in","Female","Right-handed","3","1","no","left","s","807.091188693","617.049191893","22","red","2"
"100","76","18","759.497591593","1","1","2","106","3","right","in","Female","Right-handed","3","1","no","right","s","639.563579687","456.558571819","22","red","3"
"100","77","18","754.211028325","1","1","2","107","2","right","in","Female","Right-handed","3","1","no","right","s","725.161035825","561.225363566","22","red","3"
"100","78","18","742.958343364","1","1","2","108","1","right","out","Female","Right-handed","3","1","no","right","d","517.934508091","472.864040385","22","green","3"
"100","79","18","743.773528656","1","1","2","109","0","right","in","Female","Right-handed","3","1","no","right","d","1004.4851103","520.560470417","22","green","1"
"100","76","18","742.064561856","1","0","2","110","2","right","in","Female","Right-handed","3","1","no","right","s","761.047690979","641.051026349","22","red","2"
"100","76","18","753.279110137","1","1","2","111","2","right","in","Female","Right-handed","3","1","no","right","s","778.698852988","1288.58678135","22","red","0"
"100","74","18","750.372256613","1","0","2","112","1","right","in","Female","Right-handed","3","1","no","right","d","692.314057142","657.27407279","22","red","0"
"100","75","18","744.050339344","1","1","2","113","1","right","out","Female","Right-handed","3","1","no","right","s","601.87197632","544.845169887","22","green","3"
"100","72","18","740.425550504","1","0","2","114","1","left","out","Female","Right-handed","3","1","no","left","d","589.422387708","688.440538215","22","red","3"
"100","73","18","744.375508123","1","1","2","115","3","left","in","Female","Right-handed","3","1","no","left","s","1172.93379451","544.914763664","22","red","1"
"100","74","18","739.495268746","1","1","2","116","1","left","in","Female","Right-handed","3","1","no","left","s","809.544289059","376.631885814","22","green","2"
"100","75","18","752.377287855","1","1","2","117","3","left","out","Female","Right-handed","3","1","no","left","s","830.229354782","1473.21040571","22","red","0"
"100","75","18","748.66152493","1","1","2","118","1","left","in","Female","Right-handed","3","1","no","left","d","690.715965997","568.798256627","22","red","3"
"100","73","18","749.712508288","1","0","2","119","0","right","in","Female","Right-handed","3","1","no","right","d","888.356191841","680.433726364","22","green","1"
"100","74","18","755.960321928","1","1","2","120","0","left","in","Female","Right-handed","3","1","no","left","s","1319.85619424","616.915777104","22","green","2"
"100","75","18","753.825688798","1","1","2","121","3","right","out","Female","Right-handed","3","1","no","right","d","653.635312585","704.591745922","22","red","0"
"100","75","18","754.698063002","1","1","2","122","3","right","out","Female","Right-handed","3","1","no","right","s","939.147139521","633.05992922","22","red","3"
"100","76","18","750.343685724","1","1","2","123","2","right","out","Female","Right-handed","3","1","no","right","s","497.815493112","680.647959732","22","red","3"
"100","76","18","749.329959479","1","1","2","124","0","right","in","Female","Right-handed","3","1","no","right","d","725.260134794","696.35658952","22","red","2"
"100","77","18","750.046113893","1","1","2","125","3","left","out","Female","Right-handed","3","1","no","left","d","779.009940364","776.942331777","22","green","0"
"100","78","18","748.14594621","1","1","2","126","1","right","out","Female","Right-handed","3","1","no","right","d","799.646258372","544.632219353","22","green","3"
"100","76","18","749.609392151","1","0","2","127","1","left","in","Female","Right-handed","3","1","no","left","d","842.107761309","777.113590189","22","green","2"
"100","74","18","752.589500365","1","0","2","128","1","left","out","Female","Right-handed","3","1","no","left","d","666.763841382","1088.74424929","22","green","3"
"100","75","18","759.751896882","1","1","2","129","1","right","out","Female","Right-handed","3","1","no","right","d","1607.24448742","528.225406859","22","green","1"
"100","75","18","759.394491402","1","1","2","130","1","right","out","Female","Right-handed","3","1","no","right","d","974.678128794","512.659171709","22","red","2"
"100","76","18","757.741571864","1","1","2","131","2","right","out","Female","Right-handed","3","1","no","right","s","878.262208178","488.458177187","22","red","2"
"100","76","18","758.014476447","1","1","2","132","3","left","out","Female","Right-handed","3","1","no","left","s","988.039492062","553.09668243","22","green","3"
"100","77","18","757.829593604","1","1","2","133","3","left","out","Female","Right-handed","3","1","no","left","s","1041.62028418","456.659915751","22","red","1"
"100","77","18","755.523877396","1","1","2","134","3","left","in","Female","Right-handed","3","1","no","left","d","809.3230001","480.375998806","22","red","3"
"100","78","18","752.050835526","1","1","2","135","2","left","out","Female","Right-handed","3","1","no","left","s","682.889392399","480.854175385","22","green","0"
"100","78","18","748.314511038","1","1","2","136","3","left","in","Female","Right-handed","3","1","no","left","d","546.522155353","576.474417874","22","green","2"
"100","78","18","744.80137774","1","1","2","137","3","right","in","Female","Right-handed","3","1","no","right","d","547.150744285","584.112414792","22","green","3"
"100","79","18","744.045328596","1","1","2","138","0","left","in","Female","Right-handed","3","1","no","left","s","784.861590171","624.599956063","22","red","3"
"100","79","18","740.532250431","1","1","2","139","0","left","in","Female","Right-handed","3","1","no","left","s","772.346576996","336.331638391","22","green","0"
"100","78","18","737.039865104","1","0","2","140","0","left","out","Female","Right-handed","3","1","no","left","s","543.823071457","553.079043453","22","green","3"
"100","78","18","738.942246789","1","1","2","141","3","right","in","Female","Right-handed","3","1","no","right","s","1030.55230838","656.59417048","22","green","2"
"100","78","18","740.770226243","1","1","2","142","1","right","in","Female","Right-handed","3","1","no","right","d","1206.10148184","480.172669529","22","green","0"
"100","79","18","739.148955947","1","1","2","143","0","left","out","Female","Right-handed","3","1","no","left","d","796.790989371","496.682108787","22","red","3"
"100","79","18","737.940872797","1","1","2","144","3","right","in","Female","Right-handed","3","1","no","right","d","903.355414121","432.38868604","22","green","2"
"100","80","18","736.109659905","1","1","2","145","0","left","out","Female","Right-handed","3","1","no","left","d","592.117943808","664.018254738","22","red","3"
"100","80","18","733.470218089","1","1","2","146","0","left","in","Female","Right-handed","3","1","no","left","d","573.679762805","576.527655507","22","green","2"
"100","80","18","730.626896416","1","1","2","147","2","left","out","Female","Right-handed","3","1","no","left","d","530.180767422","584.187781322","22","red","3"
"100","80","18","732.837861396","1","1","2","148","0","right","out","Female","Right-handed","3","1","no","right","d","675.905320397","1063.93005986","22","green","3"
"100","81","18","733.722919162","1","1","2","149","1","left","in","Female","Right-handed","3","1","no","left","d","922.486646494","656.476470409","22","red","0"
"100","100","18","1233.76869531","1","1","3","150","3","right","in","Female","Right-handed","3","1","no","right","d","874.871355751","1592.66603487","22","green","2"
"100","50","18","1018.78871555","1","0","3","151","0","left","out","Female","Right-handed","3","1","no","left","s","838.25123994","769.366231623","22","red","2"
"100","66","18","881.165423119","1","1","3","152","2","right","in","Female","Right-handed","3","1","no","right","d","610.835462037","601.002214495","22","red","2"
"100","75","18","822.650167811","1","1","3","153","3","left","out","Female","Right-handed","3","1","no","left","s","813.626910021","480.581893753","22","green","3"
"100","80","18","798.837527401","1","1","3","154","0","right","in","Female","Right-handed","3","1","no","right","d","574.078724352","833.09520717","22","red","3"
"100","83","18","800.901859416","1","1","3","155","0","left","in","Female","Right-handed","3","1","no","left","s","717.800772589","904.64626639","22","red","3"
"100","85","18","809.537073118","1","1","3","156","1","left","in","Female","Right-handed","3","1","no","left","s","1265.31744543","457.379265226","22","red","0"
"100","75","18","770.525272643","1","0","3","157","2","left","out","Female","Right-handed","3","1","no","left","d","529.976476024","464.908862625","22","red","3"
"100","66","18","773.35753971","1","0","3","158","0","left","in","Female","Right-handed","3","1","no","left","d","999.519899167","592.511453309","22","red","2"
"100","70","18","752.787599481","1","1","3","159","1","right","in","Female","Right-handed","3","1","no","right","s","694.228046294","441.088228552","22","red","0"
"100","72","18","727.599485643","1","1","3","160","2","right","out","Female","Right-handed","3","1","no","right","d","518.730506927","432.706187592","22","red","3"
"100","75","18","710.501925054","1","1","3","161","2","left","out","Female","Right-handed","3","1","no","left","d","532.482814026","512.374703147","22","green","3"
"100","76","18","717.464817955","1","1","3","162","3","left","in","Female","Right-handed","3","1","no","left","d","1161.03069342","441.008372098","22","green","1"
"100","78","18","709.732533578","1","1","3","163","1","right","out","Female","Right-handed","3","1","no","right","s","569.683412468","648.742260899","22","red","3"
"100","80","18","727.229050644","1","1","3","164","3","left","out","Female","Right-handed","3","1","no","left","d","1399.15461203","545.205967104","22","red","0"
"100","81","18","725.451106766","1","1","3","165","3","left","in","Female","Right-handed","3","1","no","left","s","748.68918362","648.874713566","22","green","0"
"100","76","18","718.301219552","1","0","3","166","1","left","out","Female","Right-handed","3","1","no","left","s","759.423943146","448.3821051","22","red","2"
"100","77","18","706.92141801","1","1","3","167","2","right","out","Female","Right-handed","3","1","no","right","d","577.865651943","449.063931665","22","red","0"
"100","78","18","695.906483387","1","1","3","168","3","right","out","Female","Right-handed","3","1","no","right","s","522.622306249","472.653014102","22","red","0"
"100","80","18","699.021638212","1","1","3","169","1","right","out","Female","Right-handed","3","1","no","right","d","956.216536059","560.202623717","22","red","1"
"100","80","18","696.963538254","1","1","3","170","2","left","in","Female","Right-handed","3","1","no","left","d","886.772853297","424.830224863","22","green","0"
"100","81","18","693.92128848","1","1","3","171","1","left","in","Female","Right-handed","3","1","no","left","s","883.477572042","376.590514403","22","red","2"
"100","82","18","688.858888688","1","1","3","172","0","right","out","Female","Right-handed","3","1","no","right","s","610.979139507","543.993047038","22","green","0"
"100","83","18","682.167771241","1","1","3","173","0","right","in","Female","Right-handed","3","1","no","right","d","471.714620628","584.829519306","22","green","3"
"100","84","18","681.955758244","1","1","3","174","0","left","in","Female","Right-handed","3","1","no","left","s","833.340228568","520.39466405","22","red","3"
"100","84","18","716.012624573","1","1","3","175","2","left","out","Female","Right-handed","3","1","no","left","s","1101.95359667","2032.91496892","22","red","2"
"100","85","18","720.30456274","1","1","3","176","0","right","in","Female","Right-handed","3","1","no","right","d","1119.4088057","544.38110449","22","green","0"
"100","82","18","714.490521113","1","0","3","177","2","right","in","Female","Right-handed","3","1","no","right","s","545.96251878","569.060275582","22","green","3"
"100","82","18","719.186278139","1","1","3","178","0","left","in","Female","Right-handed","3","1","no","left","d","948.627607562","752.707342144","22","green","1"
"100","83","18","722.754507694","1","1","3","179","0","right","out","Female","Right-handed","3","1","no","right","d","1188.27200582","464.194323777","22","red","1"
"100","80","18","730.432409905","1","0","3","180","2","right","in","Female","Right-handed","3","1","no","right","d","1032.79085467","888.748097797","22","green","1"
"100","81","18","723.11904384","1","1","3","181","3","right","out","Female","Right-handed","3","1","no","right","d","528.433546766","464.375844869","22","green","3"
"100","81","18","722.449138162","1","1","3","182","1","right","out","Female","Right-handed","3","1","no","right","s","1016.99467142","385.029641497","22","green","2"
"100","82","18","718.776585214","1","1","3","183","1","right","in","Female","Right-handed","3","1","no","right","s","746.627668497","448.537007371","22","red","3"
"100","82","18","717.030938992","1","1","3","184","0","left","in","Female","Right-handed","3","1","no","left","d","747.188908612","568.169026283","22","green","3"
"100","83","18","711.803694778","1","1","3","185","0","right","in","Female","Right-handed","3","1","no","right","d","576.861833906","480.838460662","22","red","0"
"100","83","18","706.173194886","1","1","3","186","1","left","out","Female","Right-handed","3","1","no","left","s","630.379446425","376.570951175","22","red","0"
"100","84","18","711.049172146","1","1","3","187","3","right","out","Female","Right-handed","3","1","no","right","d","1230.92593395","551.99472755","22","green","2"
"100","82","18","713.844963113","1","0","3","188","3","right","in","Female","Right-handed","3","1","no","right","s","919.69583993","720.474199792","22","red","2"
"100","82","18","716.841933938","1","1","3","189","1","left","in","Female","Right-handed","3","1","no","left","d","955.195079048","712.252513153","22","red","2"
"100","82","18","719.654836156","1","1","3","190","3","left","in","Female","Right-handed","3","1","no","left","s","1247.62010138","416.721748374","22","green","0"
"100","80","18","720.469690782","1","0","3","191","0","left","out","Female","Right-handed","3","1","no","left","s","1067.44406441","440.313396481","22","green","2"
"100","81","18","716.994227655","1","1","3","192","0","right","out","Female","Right-handed","3","1","no","right","s","574.037994353","568.011558338","22","red","3"
"100","81","18","718.711395609","1","1","3","193","2","right","in","Female","Right-handed","3","1","no","right","s","1000.53269705","584.566538222","22","red","1"
"100","82","18","714.42267011","1","1","3","194","1","right","in","Female","Right-handed","3","1","no","right","d","531.251934277","520.185562018","22","green","3"
"100","82","18","713.115655135","1","1","3","195","1","right","in","Female","Right-handed","3","1","no","right","s","787.749571453","520.850391025","22","red","0"
"100","82","18","712.304249598","1","1","3","196","1","left","out","Female","Right-handed","3","1","no","left","d","877.484489727","472.474700098","22","green","3"
"100","83","18","708.674604072","1","1","3","197","3","left","out","Female","Right-handed","3","1","no","left","s","636.081966714","440.08056201","22","green","3"
"100","83","18","709.368537455","1","1","3","198","0","right","out","Female","Right-handed","3","1","no","right","s","1148.62311764","336.73156206","22","green","2"
"100","84","18","713.714194084","1","1","3","199","0","left","out","Female","Right-handed","3","1","no","left","s","1525.20593503","328.096802696","22","green","0"
"100","84","18","708.26455155","1","1","3","200","3","left","out","Female","Right-handed","3","1","no","left","s","551.802302369","319.762547326","22","green","3"
"100","84","18","706.353247367","1","1","3","201","3","left","out","Female","Right-handed","3","1","no","left","s","761.477761262","456.275706802","22","red","1"
"100","84","18","703.301353539","1","1","3","202","1","left","in","Female","Right-handed","3","1","no","left","d","601.008628666","488.197120358","22","red","3"
"100","85","18","700.021140045","1","1","3","203","3","left","out","Female","Right-handed","3","1","no","left","s","491.623571441","560.716078246","22","green","2"
"100","85","18","697.345010627","1","1","3","204","3","left","in","Female","Right-handed","3","1","no","left","d","681.358650072","424.309394035","22","red","3"
"98","85","18","696.241105776","0","1","3","205","2","left","out","Female","Right-handed","3","1","no","right","s","548.076950829","722.975727167","22","red","0"
"98","85","18","697.764745192","1","1","3","206","2","right","in","Female","Right-handed","3","1","no","right","s","918.624031659","647.553073271","22","green","2"
"98","86","18","694.160227473","1","1","3","207","3","right","in","Female","Right-handed","3","1","no","right","d","529.099658608","448.305776445","22","green","3"
"98","86","18","691.849257917","1","1","3","208","2","right","out","Female","Right-handed","3","1","no","right","s","755.802821914","359.823225401","22","red","3"
"98","86","18","692.04160179","1","1","3","209","1","right","out","Female","Right-handed","3","1","no","right","s","982.397906417","424.381874189","22","green","1"
"98","86","18","692.066128334","1","1","3","210","2","right","out","Female","Right-handed","3","1","no","right","s","763.13357996","623.941861941","22","green","2"
"98","87","18","690.059744399","1","1","3","211","2","left","in","Female","Right-handed","3","1","no","left","d","615.62075562","519.719893076","22","green","3"
"98","87","18","693.443249347","1","1","3","212","2","right","out","Female","Right-handed","3","1","no","right","d","1190.19080561","616.250306681","22","green","0"
"98","87","18","689.980628698","1","1","3","213","1","left","in","Female","Right-handed","3","1","no","left","d","591.714492341","351.956563219","22","green","3"
"100","100","18","463.422538442","1","1","4","214","2","left","in","Female","Right-handed","3","1","no","left","s","550.434480029","376.410596855","22","red","3"
"100","100","18","525.250273005","1","1","4","215","2","right","in","Female","Right-handed","3","1","no","right","d","741.072674184","433.083340951","22","green","2"
"100","100","18","628.700750512","1","1","4","216","3","left","out","Female","Right-handed","3","1","no","left","d","1166.63668041","504.566730647","22","green","0"
"100","100","18","607.972295585","1","1","4","217","2","right","out","Female","Right-handed","3","1","no","right","s","771.290162745","320.283698864","22","red","2"
"100","100","18","604.749887352","1","1","4","218","2","right","in","Female","Right-handed","3","1","no","right","s","806.855788549","376.864720285","22","red","2"
"100","100","18","622.282381818","1","1","4","219","2","left","in","Female","Right-handed","3","1","no","left","d","947.394482846","472.495225451","22","red","0"
"100","100","18","627.752888497","1","1","4","220","0","right","in","Female","Right-handed","3","1","no","right","d","745.030860187","576.120996953","22","red","2"
"100","87","18","631.317358836","1","0","4","221","0","left","out","Female","Right-handed","3","1","no","left","s","663.828715933","648.70858649","22","red","2"
"100","88","18","641.422424768","1","1","4","222","0","left","in","Female","Right-handed","3","1","no","left","d","964.277868378","480.24803606","22","red","3"
"100","90","18","642.761734328","1","1","4","223","0","left","in","Female","Right-handed","3","1","no","left","d","892.828473796","416.80256695","22","red","1"
"100","90","18","656.880038497","1","1","4","224","3","left","out","Female","Right-handed","3","1","no","left","d","811.597145054","784.529015313","22","green","3"
"100","91","18","659.481537071","1","1","4","225","0","left","out","Female","Right-handed","3","1","no","left","s","712.119739779","664.076302997","22","green","2"
"100","92","18","645.694023977","1","1","4","226","1","right","out","Female","Right-handed","3","1","no","right","d","551.781135597","408.7065981","22","red","0"
"100","92","18","635.633490045","1","1","4","227","0","left","in","Female","Right-handed","3","1","no","left","s","529.358791184","480.334306685","22","green","0"
"100","93","18","626.493676428","1","1","4","228","0","right","out","Female","Right-handed","3","1","no","right","s","485.071493975","512.001077583","22","green","3"
"100","87","18","617.314488093","1","0","4","229","2","left","out","Female","Right-handed","3","1","no","left","s","518.600619929","440.65270622","22","red","3"
"100","82","18","616.044751306","1","0","4","230","3","right","out","Female","Right-handed","3","1","no","right","s","703.182231457","488.275693974","22","green","2"
"100","83","18","620.171335026","1","1","4","231","1","right","out","Female","Right-handed","3","1","no","right","d","515.859202493","864.787314051","22","red","0"
"100","78","18","623.685750772","1","0","4","232","2","left","in","Female","Right-handed","3","1","no","left","d","589.47338038","784.417087998","22","red","3"
"100","80","18","639.852209442","1","1","4","233","3","right","out","Female","Right-handed","3","1","no","right","d","1414.02106094","480.008787417","22","green","2"
"100","80","18","648.859930426","1","1","4","234","1","right","in","Female","Right-handed","3","1","no","right","d","993.523289056","664.505411154","22","red","2"
"100","81","18","670.96349913","1","1","4","235","3","right","in","Female","Right-handed","3","1","no","right","s","1678.18010677","592.09677704","22","red","1"
"100","82","18","664.41062781","1","1","4","236","0","right","in","Female","Right-handed","3","1","no","right","d","503.776825273","536.718092295","22","green","3"
"100","83","18","662.307948977","1","1","4","237","0","right","in","Female","Right-handed","3","1","no","right","d","435.467809672","792.424861975","22","green","3"
"100","84","18","666.37859334","1","1","4","238","1","right","out","Female","Right-handed","3","1","no","right","d","888.046066589","640.102049485","22","red","2"
"100","84","18","664.653202331","1","1","4","239","0","right","out","Female","Right-handed","3","1","no","right","d","714.560653221","528.476201012","22","red","0"
"100","85","18","675.930353487","1","1","4","240","2","left","out","Female","Right-handed","3","1","no","left","s","1138.11574054","800.156826525","22","red","2"
"100","85","18","676.62066674","1","1","4","241","3","left","out","Female","Right-handed","3","1","no","left","s","846.799728683","543.718520442","22","green","2"
"100","86","18","679.367231905","1","1","4","242","1","left","in","Female","Right-handed","3","1","no","left","d","904.284827757","608.257285297","22","green","3"
"100","86","18","679.035554294","1","1","4","243","2","right","in","Female","Right-handed","3","1","no","right","d","858.899103459","479.934703722","22","red","0"
"100","87","18","672.730139355","1","1","4","244","3","right","out","Female","Right-handed","3","1","no","right","s","502.564225913","464.571156426","22","red","3"
"100","87","18","666.900453242","1","1","4","245","3","right","in","Female","Right-handed","3","1","no","right","s","476.093897076","496.266470393","22","green","3"
"100","87","18","663.899952122","1","1","4","246","3","left","out","Female","Right-handed","3","1","no","left","s","623.866495407","511.901337195","22","red","3"
"100","85","18","665.194147105","1","0","4","247","1","left","out","Female","Right-handed","3","1","no","left","s","1023.43867008","392.366493004","22","green","1"
"100","82","18","663.131211296","1","0","4","248","1","left","out","Female","Right-handed","3","1","no","left","s","593.997617132","591.985170431","22","red","0"
"100","83","18","661.65984359","1","1","4","249","1","left","out","Female","Right-handed","3","1","no","left","s","708.66987696","511.654070833","22","green","1"
"100","83","18","660.405463263","1","1","4","250","3","left","in","Female","Right-handed","3","1","no","left","s","846.219566753","384.275976197","22","green","3"
"100","84","18","659.719784204","1","1","4","251","0","left","out","Female","Right-handed","3","1","no","left","d","532.797429198","735.901888817","22","red","3"
"100","84","18","661.445826082","1","1","4","252","0","right","out","Female","Right-handed","3","1","no","right","s","1045.60059909","408.470235831","22","red","1"
"100","85","18","660.57537134","1","1","4","253","1","left","in","Female","Right-handed","3","1","no","left","d","677.183665026","576.071607826","22","green","0"
"100","85","18","657.688400974","1","1","4","254","3","right","out","Female","Right-handed","3","1","no","right","s","636.5938177","447.825354903","22","green","0"
"100","85","18","659.001237706","1","1","4","255","3","left","out","Female","Right-handed","3","1","no","left","d","753.223041633","672.432045849","22","red","2"
"100","86","18","655.454968647","1","1","4","256","1","right","in","Female","Right-handed","3","1","no","right","s","564.984068798","448.039267565","22","red","3"
"100","86","18","650.628519686","1","1","4","257","2","right","out","Female","Right-handed","3","1","no","right","d","541.61242682","344.570001875","22","green","0"
"100","86","18","648.352193674","1","1","4","258","1","right","in","Female","Right-handed","3","1","no","right","s","536.288663432","560.099034828","22","green","3"
"100","84","18","644.255006732","1","0","4","259","2","right","out","Female","Right-handed","3","1","no","right","d","423.86906108","495.894127664","22","red","3"
"100","85","18","640.962367468","1","1","4","260","2","left","in","Female","Right-handed","3","1","no","left","s","530.494099763","448.507822887","22","green","3"
"100","83","18","638.662415139","1","0","4","261","0","left","in","Female","Right-handed","3","1","no","left","d","556.894834826","504.234476499","22","red","2"
"100","81","18","639.254423104","1","0","4","262","0","left","in","Female","Right-handed","3","1","no","left","d","751.635213168","583.706397654","22","red","0"
"100","82","18","640.20493282","1","1","4","263","3","right","in","Female","Right-handed","3","1","no","right","s","973.245844015","400.313973758","22","red","1"
"100","82","18","638.972372177","1","1","4","264","3","left","in","Female","Right-handed","3","1","no","left","s","706.786355128","447.902324977","22","green","0"
"100","82","18","641.251444576","1","1","4","265","1","right","in","Female","Right-handed","3","1","no","right","s","1155.45902226","359.509251641","22","red","2"
"100","83","18","642.031774541","1","1","4","266","0","left","out","Female","Right-handed","3","1","no","left","d","845.073354085","520.144511312","22","red","0"
"100","83","18","639.314068365","1","1","4","267","1","right","out","Female","Right-handed","3","1","no","right","d","526.762013342","463.789268768","22","green","3"
"100","81","18","639.532931602","1","0","4","268","2","left","out","Female","Right-handed","3","1","no","left","s","782.388926574","520.314166184","22","green","1"
"100","82","18","635.996738393","1","1","4","269","0","right","out","Female","Right-handed","3","1","no","right","s","467.081663643","415.930560168","22","green","3"
"100","80","18","642.770553534","1","0","4","270","3","left","in","Female","Right-handed","3","1","no","left","s","1580.56794292","463.640459959","22","green","0"
"100","81","18","643.595606093","1","1","4","271","2","left","in","Female","Right-handed","3","1","no","left","d","925.093045593","456.154158226","22","red","1"
"100","81","18","643.970831169","1","1","4","272","1","right","in","Female","Right-handed","3","1","no","right","s","747.652653303","583.815117883","22","green","2"
"100","81","18","641.252458098","1","1","4","273","2","left","in","Female","Right-handed","3","1","no","left","d","530.307768047","431.429125798","22","green","3"
"100","81","18","642.265029465","1","1","4","274","3","right","out","Female","Right-handed","3","1","no","right","s","958.022125687","448.016497252","22","green","3"
"100","80","18","643.519869892","1","0","4","275","1","left","out","Female","Right-handed","3","1","no","left","d","944.612014708","495.518257139","22","green","3"
"100","80","18","642.935021605","1","1","4","276","2","right","in","Female","Right-handed","3","1","no","right","s","845.089068803","368.259786825","22","green","0"
"100","81","18","639.238175673","1","1","4","277","1","right","in","Female","Right-handed","3","1","no","right","s","476.84178962","335.831974328","22","green","3"
"100","100","18","671.834405303","1","1","5","278","2","left","out","Female","Right-handed","3","1","no","left","d","726.903445855","616.76536475","22","green","3"
"100","50","18","718.339723453","1","0","5","279","0","right","out","Female","Right-handed","3","1","no","right","d","985.330145489","544.359937718","22","green","1"
"100","66","18","638.197735049","1","1","5","280","3","left","out","Female","Right-handed","3","1","no","left","d","547.879394311","407.948122171","22","green","3"
"100","75","18","605.937760075","1","1","5","281","1","left","in","Female","Right-handed","3","1","no","left","d","513.725848636","504.589821671","22","green","3"
"100","80","18","609.89398976","1","1","5","282","1","right","in","Female","Right-handed","3","1","no","right","d","563.221774836","688.216042166","22","green","3"
"100","66","18","632.960108657","1","0","5","283","0","left","in","Female","Right-handed","3","1","no","left","s","1048.80415767","447.77724861","22","red","0"
"100","71","18","621.94778726","1","1","5","284","3","right","in","Female","Right-handed","3","1","no","right","d","511.349718337","600.39799942","22","red","3"
"100","75","18","636.02676474","1","1","5","285","1","right","in","Female","Right-handed","3","1","no","right","d","1013.04995518","456.109259019","22","green","2"
"100","77","18","650.142261007","1","1","5","286","3","left","in","Female","Right-handed","3","1","no","left","d","1029.59306884","496.539393444","22","green","1"
"100","80","18","643.704986539","1","1","5","287","2","left","out","Female","Right-handed","3","1","no","left","s","747.273254987","424.265777663","22","red","0"
"100","81","18","627.903765251","1","1","5","288","2","left","in","Female","Right-handed","3","1","no","left","s","563.920919667","375.862185087","22","red","3"
"100","83","18","634.414709409","1","1","5","289","2","right","in","Female","Right-handed","3","1","no","right","d","875.553503021","536.516687273","22","red","0"
"100","84","18","621.271876184","1","1","5","290","0","left","in","Female","Right-handed","3","1","no","left","s","543.034448918","384.081306056","22","red","3"
"100","85","18","615.44474385","1","1","5","291","0","right","out","Female","Right-handed","3","1","no","right","d","599.628298689","479.755748304","22","green","3"
"100","86","18","619.768640789","1","1","5","292","0","right","in","Female","Right-handed","3","1","no","right","s","736.227087371","624.37930852","22","green","0"
"100","87","18","610.152512993","1","1","5","293","0","right","in","Female","Right-handed","3","1","no","right","d","475.965934329","455.855257777","22","red","3"
"100","88","18","607.767336825","1","1","5","294","0","right","out","Female","Right-handed","3","1","no","right","s","530.606027074","608.603009209","22","green","2"
"100","83","18","611.738746824","1","0","5","295","3","right","out","Female","Right-handed","3","1","no","right","s","950.178875242","408.326558365","22","red","3"
"100","78","18","606.030090404","1","0","5","296","1","right","out","Female","Right-handed","3","1","no","right","s","382.844332838","623.70421684","22","red","3"
"100","80","18","632.321409386","1","1","5","297","3","right","in","Female","Right-handed","3","1","no","right","d","848.379860137","1415.33307997","22","green","0"
"100","80","18","634.281714591","1","1","5","298","3","left","out","Female","Right-handed","3","1","no","left","d","826.995328876","519.980308491","22","green","3"
"100","81","18","629.117756777","1","1","5","299","3","right","out","Female","Right-handed","3","1","no","right","s","561.715406362","479.633879018","22","red","2"
"100","82","18","621.140485931","1","1","5","300","2","left","out","Female","Right-handed","3","1","no","left","s","515.037546964","376.243507653","22","green","2"
"100","83","18","622.858962497","1","1","5","301","2","left","in","Female","Right-handed","3","1","no","left","s","956.922095061","367.845751975","22","red","1"
"100","84","18","625.723205996","1","1","5","302","3","left","out","Female","Right-handed","3","1","no","left","s","964.462275842","424.467824105","22","red","0"
"100","84","18","618.871890098","1","1","5","303","2","right","in","Female","Right-handed","3","1","no","right","s","519.071420211","376.106565065","22","red","0"
"100","85","18","618.349142785","1","1","5","304","3","left","out","Female","Right-handed","3","1","no","left","s","857.785923777","351.729501508","22","red","2"
"100","85","18","619.666936062","1","1","5","305","0","left","in","Female","Right-handed","3","1","no","left","s","958.202043235","352.292665873","22","green","0"
"100","86","18","616.590904781","1","1","5","306","1","left","out","Female","Right-handed","3","1","no","left","s","517.034599652","543.889458145","22","green","2"
"100","83","18","615.756671942","1","0","5","307","0","left","out","Female","Right-handed","3","1","no","left","s","671.52508182","511.602757455","22","red","3"
"100","83","18","613.480915172","1","1","5","308","1","right","out","Female","Right-handed","3","1","no","right","s","490.215019105","600.201405025","22","green","0"
"100","84","18","608.520276403","1","1","5","309","2","right","out","Female","Right-handed","3","1","no","right","d","421.781568551","487.699380552","22","red","3"
"100","84","18","606.850827285","1","1","5","310","0","left","in","Female","Right-handed","3","1","no","left","s","515.42464229","591.432268742","22","green","2"
"100","85","18","609.152897183","1","1","5","311","1","left","out","Female","Right-handed","3","1","no","left","d","698.115997108","672.126410518","22","red","3"
"100","85","18","619.365436726","1","1","5","312","3","left","out","Female","Right-handed","3","1","no","left","d","1237.61078479","695.572777611","22","green","0"
"100","86","18","616.848437196","1","1","5","313","1","right","out","Female","Right-handed","3","1","no","right","d","545.203722144","512.303185118","22","green","0"
"100","86","18","611.391037745","1","1","5","314","2","right","in","Female","Right-handed","3","1","no","right","s","501.883361477","327.965953573","22","red","3"
"100","86","18","610.065773966","1","1","5","315","2","left","out","Female","Right-handed","3","1","no","left","d","738.562166964","383.499861294","22","red","2"
"100","87","18","611.693814036","1","1","5","316","1","left","in","Female","Right-handed","3","1","no","left","d","547.046193267","800.072480153","22","red","0"
"100","87","18","611.158415635","1","1","5","317","1","left","in","Female","Right-handed","3","1","no","left","s","700.714057781","479.841698216","22","red","2"
"100","87","18","606.431162492","1","1","5","318","1","right","in","Female","Right-handed","3","1","no","right","d","379.33096971","455.351103799","22","green","0"
"100","88","18","606.50349393","1","1","5","319","3","right","out","Female","Right-handed","3","1","no","right","s","738.992878665","479.945287108","22","red","2"
"100","88","18","605.170859951","1","1","5","320","1","right","in","Female","Right-handed","3","1","no","right","s","666.693606192","431.706859479","22","green","3"
"100","88","18","604.331494507","1","1","5","321","0","left","in","Female","Right-handed","3","1","no","left","d","449.209533385","687.268027432","22","green","2"
"100","88","18","602.910263407","1","1","5","322","1","left","out","Female","Right-handed","3","1","no","left","s","504.898343377","575.853846662","22","red","3"
"100","86","18","610.671224355","1","0","5","323","1","left","in","Female","Right-handed","3","1","no","left","d","1440.39646002","479.432473996","22","red","1"
"100","87","18","616.976571859","1","1","5","324","3","left","out","Female","Right-handed","3","1","no","left","d","1054.05993082","759.98518326","22","red","1"
"100","87","18","615.281739866","1","1","5","325","0","left","out","Female","Right-handed","3","1","no","left","d","551.624950491","519.624321903","22","green","2"
"100","85","18","616.127000752","1","0","5","326","3","right","in","Female","Right-handed","3","1","no","right","d","730.247154112","583.15189242","22","red","3"
"100","84","18","616.981641034","1","0","5","327","0","left","in","Female","Right-handed","3","1","no","left","d","701.913187379","615.804842378","22","red","3"
"100","84","18","618.223526312","1","1","5","328","1","right","out","Female","Right-handed","3","1","no","right","d","945.341626859","415.293953519","22","red","1"
"100","82","18","620.429565784","1","0","5","329","2","right","in","Female","Right-handed","3","1","no","right","d","578.913407066","886.961750686","22","green","2"
"100","83","18","616.99937011","1","1","5","330","2","right","out","Female","Right-handed","3","1","no","right","d","437.600842822","439.657547318","22","red","3"
"100","83","18","620.180044642","1","1","5","331","2","right","out","Female","Right-handed","3","1","no","right","s","986.29355424","591.218035374","22","red","1"
"100","81","18","617.482104823","1","0","5","332","1","left","out","Female","Right-handed","3","1","no","left","d","495.769372006","447.81733719","22","green","2"
"100","82","18","619.124789564","1","1","5","333","3","right","in","Female","Right-handed","3","1","no","right","s","787.458368009","631.486532642","22","red","0"
"100","80","18","623.500777845","1","0","5","334","0","left","in","Female","Right-handed","3","1","no","left","s","1178.01221579","559.100027422","22","green","0"
"100","81","18","623.434384755","1","1","5","335","3","left","in","Female","Right-handed","3","1","no","left","s","551.586465456","687.71349173","22","green","3"
"100","79","18","643.862581132","1","0","5","336","0","right","out","Female","Right-handed","3","1","no","right","None","657.283373345","3000.11256873","22","green","3"
"100","80","18","641.942083227","1","1","5","337","2","left","in","Female","Right-handed","3","1","no","left","s","713.744129025","343.521284631","22","green","0"
"100","80","18","640.930403098","1","1","5","338","0","right","out","Female","Right-handed","3","1","no","right","s","769.208763686","391.250426943","22","green","1"
"100","79","18","642.76049391","1","0","5","339","2","right","in","Female","Right-handed","3","1","no","right","s","492.945532449","1015.8465345","22","green","3"
"100","79","18","641.992654907","1","1","5","340","3","right","out","Female","Right-handed","3","1","no","right","d","829.410585633","359.362687795","22","green","2"
"100","78","18","640.721528289","1","0","5","341","2","right","in","Female","Right-handed","3","1","no","right","s","698.014653175","423.266449547","22","red","2"
"100","0","18","958.234434807","1","0","6","342","3","right","in","Female","Right-handed","3","1","no","right","s","772.763818935","1143.70505068","22","red","0"
"100","50","18","820.520301659","1","1","6","343","3","right","out","Female","Right-handed","3","1","no","right","s","941.36708471","424.245252311","22","red","1"
"100","66","18","699.824625826","1","1","6","344","2","right","out","Female","Right-handed","3","1","no","right","s","492.926610637","423.939937686","22","red","0"
"100","75","18","651.662272958","1","1","6","345","3","left","out","Female","Right-handed","3","1","no","left","d","518.714792204","495.635636504","22","green","0"
"100","80","18","654.962116292","1","1","6","346","1","left","in","Female","Right-handed","3","1","no","left","s","752.132952974","584.190026282","22","red","0"
"100","83","18","647.192329505","1","1","6","347","1","left","out","Female","Right-handed","3","1","no","left","s","768.868812531","447.817978606","22","red","3"
"100","71","18","633.742374293","1","0","6","348","1","right","in","Female","Right-handed","3","1","no","right","d","586.51901241","519.566273637","22","green","0"
"100","75","18","618.156498599","1","1","6","349","2","right","out","Female","Right-handed","3","1","no","right","d","434.037769854","584.072967631","22","green","3"
"100","77","18","602.161540585","1","1","6","350","0","right","out","Female","Right-handed","3","1","no","right","d","444.647453012","503.756299921","22","red","3"
"100","80","18","591.577613896","1","1","6","351","2","right","out","Female","Right-handed","3","1","no","right","s","568.297309735","424.347237658","22","red","3"
"100","81","18","590.433829863","1","1","6","352","0","left","in","Female","Right-handed","3","1","no","left","d","710.06592166","447.926057419","22","green","3"
"100","83","18","580.159293308","1","1","6","353","1","right","out","Female","Right-handed","3","1","no","right","s","566.657205763","367.621576636","22","green","3"
"100","84","18","585.780247728","1","1","6","354","3","right","in","Female","Right-handed","3","1","no","right","s","410.18249925","896.280902281","22","green","3"
"100","85","18","587.705691639","1","1","6","355","3","right","out","Female","Right-handed","3","1","no","right","s","505.760728905","719.712196071","22","green","2"
"100","86","18","584.616034256","1","1","6","356","3","left","out","Female","Right-handed","3","1","no","left","s","515.307583639","567.414078149","22","green","3"
"100","87","18","579.339358246","1","1","6","357","0","right","out","Female","Right-handed","3","1","no","right","s","352.241993907","648.136442284","22","green","3"
"100","82","18","589.832960793","1","0","6","358","1","left","in","Female","Right-handed","3","1","no","left","d","1003.75613957","511.705063509","22","red","2"
"100","83","18","596.497264801","1","1","6","359","2","left","in","Female","Right-handed","3","1","no","left","s","596.382406566","823.198459315","22","green","3"
"100","84","18","595.622934753","1","1","6","360","0","left","out","Female","Right-handed","3","1","no","left","s","727.896680506","431.873307258","22","red","2"
"100","85","18","589.593325412","1","1","6","361","1","left","in","Female","Right-handed","3","1","no","left","d","486.54066024","463.520835638","22","green","3"
"100","85","18","585.26333119","1","1","6","362","0","right","out","Female","Right-handed","3","1","no","right","s","517.12696374","480.199929767","22","green","2"
"100","81","18","597.811513411","1","0","6","363","1","right","in","Female","Right-handed","3","1","no","right","s","1186.86537774","535.781302365","22","red","1"
"100","82","18","597.0094547","1","1","6","364","0","left","in","Female","Right-handed","3","1","no","left","s","743.270169765","415.458156341","22","red","3"
"100","83","18","592.924439174","1","1","6","365","0","right","in","Female","Right-handed","3","1","no","right","d","509.956560014","487.981604154","22","red","0"
"100","84","18","593.029718466","1","1","6","366","2","right","in","Female","Right-handed","3","1","no","right","d","479.536704301","711.576138637","22","green","3"
"100","84","18","585.794075204","1","1","6","367","3","right","in","Female","Right-handed","3","1","no","right","d","418.354476049","391.451511259","22","red","3"
"100","85","18","583.297286276","1","1","6","368","2","right","out","Female","Right-handed","3","1","no","right","s","500.906803674","535.854744641","22","red","0"
"100","85","18","591.998680284","1","1","6","369","3","left","in","Female","Right-handed","3","1","no","left","d","1086.3831923","567.489444675","22","red","0"
"100","86","18","596.900046895","1","1","6","370","2","left","out","Female","Right-handed","3","1","no","left","d","1013.09068518","455.185938849","22","red","1"
"100","86","18","595.378524387","1","1","6","371","3","right","in","Female","Right-handed","3","1","no","right","s","462.658129403","639.850613916","22","green","3"
"100","87","18","603.228946293","1","1","6","372","0","left","out","Female","Right-handed","3","1","no","left","d","1126.25721795","551.225988947","22","green","1"
"100","87","18","604.265850824","1","1","6","373","0","right","in","Female","Right-handed","3","1","no","right","s","784.979290242","487.840492355","22","green","1"
"100","87","18","601.92429556","1","1","6","374","3","left","out","Female","Right-handed","3","1","no","left","d","534.439136718","519.549917499","22","green","3"
"100","88","18","609.26704116","1","1","6","375","0","right","out","Female","Right-handed","3","1","no","right","d","1072.10588516","631.049406769","22","red","0"
"100","88","18","608.120910822","1","1","6","376","1","right","in","Female","Right-handed","3","1","no","right","d","522.529621452","615.775337184","22","red","0"
"100","88","18","611.377940698","1","1","6","377","2","left","out","Female","Right-handed","3","1","no","left","s","843.411762631","607.336210091","22","green","1"
"100","89","18","611.419212432","1","1","6","378","2","left","in","Female","Right-handed","3","1","no","left","d","786.909314822","438.90067493","22","green","2"
"100","89","18","609.951179706","1","1","6","379","1","right","in","Female","Right-handed","3","1","no","right","d","655.577524099","455.690413535","22","green","3"
"100","89","18","612.609914148","1","1","6","380","3","left","in","Female","Right-handed","3","1","no","left","s","852.16069427","575.122951672","22","red","1"
"100","90","18","610.775974593","1","1","6","381","3","right","in","Female","Right-handed","3","1","no","right","d","646.744246085","431.760417821","22","green","2"
"100","90","18","606.964348424","1","1","6","382","0","right","out","Female","Right-handed","3","1","no","right","d","445.420360829","463.578242485","22","red","0"
"100","90","18","604.15697573","1","1","6","383","1","left","in","Female","Right-handed","3","1","no","left","d","499.031299562","479.07809095","22","red","3"
"100","90","18","602.705225839","1","1","6","384","2","right","in","Female","Right-handed","3","1","no","right","d","659.662390015","423.801070847","22","green","0"
"100","90","18","603.810299237","1","1","6","385","1","left","out","Female","Right-handed","3","1","no","left","s","679.283023772","623.373886941","22","green","2"
"100","91","18","600.235018853","1","1","6","386","2","right","in","Female","Right-handed","3","1","no","right","s","469.877922256","415.967441658","22","red","0"
"100","91","18","596.319795176","1","1","6","387","3","right","out","Female","Right-handed","3","1","no","right","d","424.658004326","415.611455072","22","green","3"
"100","91","18","594.776686652","1","1","6","388","3","right","out","Female","Right-handed","3","1","no","right","d","616.287188171","431.300200926","22","green","2"
"100","91","18","593.900255338","1","1","6","389","2","right","out","Female","Right-handed","3","1","no","right","d","513.731621387","591.684345731","22","green","2"
"100","91","18","597.910884298","1","1","6","390","0","left","out","Female","Right-handed","3","1","no","left","s","917.381927109","663.460221705","22","red","0"
"100","92","18","598.143648606","1","1","6","391","3","left","in","Female","Right-handed","3","1","no","left","d","580.076938","639.021261377","22","green","2"
"100","90","18","598.507708122","1","0","6","392","0","left","in","Female","Right-handed","3","1","no","left","d","601.6782683","631.743099551","22","green","2"
"100","90","18","605.185167916","1","1","6","393","1","left","in","Female","Right-handed","3","1","no","left","s","1172.22438701","719.246847835","22","green","0"
"100","90","18","606.882843047","1","1","6","394","2","right","out","Female","Right-handed","3","1","no","right","s","958.705876506","431.618023183","22","red","2"
"100","90","18","604.551105011","1","1","6","395","0","left","out","Female","Right-handed","3","1","no","left","s","530.404622052","431.533356103","22","red","2"
"100","89","18","606.323470522","1","0","6","396","2","left","in","Female","Right-handed","3","1","no","left","s","813.023657072","591.038759245","22","red","3"
"100","89","18","606.435580058","1","1","6","397","2","left","out","Female","Right-handed","3","1","no","left","s","545.618398414","679.584810597","22","red","2"
"100","89","18","604.362070712","1","1","6","398","1","left","in","Female","Right-handed","3","1","no","left","s","489.215690989","487.275403732","22","red","2"
"100","89","18","603.845561981","1","1","6","399","0","left","in","Female","Right-handed","3","1","no","left","d","701.962897219","446.846231433","22","green","3"
"100","89","18","601.381626401","1","1","6","400","0","right","in","Female","Right-handed","3","1","no","right","d","509.480949106","407.465776377","22","red","3"
"100","88","18","605.168719469","1","0","6","401","1","left","out","Female","Right-handed","3","1","no","left","s","1122.04470999","535.169710991","22","red","1"
"100","88","18","604.515900958","1","1","6","402","2","right","in","Female","Right-handed","3","1","no","right","s","475.871645991","654.821934546","22","red","3"
"100","87","18","611.400198912","1","0","6","403","3","left","out","Female","Right-handed","3","1","no","left","s","1479.36159739","583.323150837","22","green","0"
"100","87","18","609.947577628","1","1","6","404","1","left","out","Female","Right-handed","3","1","no","left","s","656.918086203","382.852029845","22","red","3"
"100","87","18","609.486559001","1","1","6","405","1","left","out","Female","Right-handed","3","1","no","left","d","545.513205979","615.37156501","22","green","2"
"100","100","18","659.66287108","1","1","7","406","1","right","in","Female","Right-handed","3","1","no","right","s","799.494563187","519.831178972","22","red","0"
"100","100","18","633.21290724","1","1","7","407","1","right","in","Female","Right-handed","3","1","no","right","s","758.423332194","455.102554606","22","green","1"
"100","66","18","671.939758089","1","0","7","408","0","left","in","Female","Right-handed","3","1","no","left","d","970.85015049","527.936769085","22","green","3"
"100","75","18","671.810352154","1","1","7","409","2","right","in","Female","Right-handed","3","1","no","right","d","831.409241863","511.435026834","22","red","1"
"100","80","18","689.846909732","1","1","7","410","3","right","out","Female","Right-handed","3","1","no","right","d","1059.98919212","463.997087965","22","red","0"
"100","83","18","692.313709706","1","1","7","411","3","right","out","Female","Right-handed","3","1","no","right","s","889.619783873","519.675635281","22","red","1"
"100","85","18","661.59976799","1","1","7","412","1","right","out","Female","Right-handed","3","1","no","right","s","451.358922677","503.273312712","22","red","3"
"100","87","18","683.825480782","1","1","7","413","0","left","out","Female","Right-handed","3","1","no","left","d","1094.90474152","583.906199136","22","red","2"
"100","77","18","674.839320518","1","0","7","414","1","left","out","Female","Right-handed","3","1","no","left","s","542.412594871","663.48748194","22","red","2"
"100","80","18","657.579515698","1","1","7","415","0","right","in","Female","Right-handed","3","1","no","right","s","541.232066375","463.25047826","22","green","3"
"100","81","18","661.315497268","1","1","7","416","1","left","out","Female","Right-handed","3","1","no","left","s","901.621983936","495.728642007","22","red","0"
"100","83","18","669.118310485","1","1","7","417","0","left","out","Female","Right-handed","3","1","no","left","d","742.470643134","767.427868617","22","green","2"
"100","84","18","650.176469928","1","1","7","418","3","right","out","Female","Right-handed","3","1","no","right","s","373.804518465","471.944248009","22","red","3"
"100","85","18","669.884450968","1","1","7","419","3","left","out","Female","Right-handed","3","1","no","left","s","1444.57593498","407.600474009","22","green","0"
"100","86","18","666.737425682","1","1","7","420","3","left","in","Female","Right-handed","3","1","no","left","s","646.149972981","599.208170373","22","red","0"
"100","87","18","657.681222429","1","1","7","421","1","left","out","Female","Right-handed","3","1","no","left","d","579.840575734","463.835771523","22","green","0"
"100","88","18","664.867877945","1","1","7","422","2","right","in","Female","Right-handed","3","1","no","right","s","1088.45208372","471.256648693","22","green","1"
"100","88","18","668.155948495","1","1","7","423","1","right","in","Female","Right-handed","3","1","no","right","d","977.035016571","471.071279098","22","red","1"
"100","84","18","664.603007859","1","0","7","424","0","right","out","Female","Right-handed","3","1","no","right","d","745.664259746","455.635893067","22","red","1"
"100","85","18","659.458884351","1","1","7","425","1","right","out","Female","Right-handed","3","1","no","right","s","460.188993598","663.252081798","22","green","0"
"100","85","18","656.264634718","1","1","7","426","2","right","out","Female","Right-handed","3","1","no","right","s","656.947912106","527.811372009","22","red","3"
"100","86","18","650.77270373","1","1","7","427","2","left","in","Female","Right-handed","3","1","no","left","s","607.458720791","463.425585174","22","green","3"
"100","86","18","648.9597153","1","1","7","428","2","left","out","Female","Right-handed","3","1","no","left","d","747.10776933","471.040170359","22","green","2"
"100","87","18","655.761263421","1","1","7","429","2","right","in","Female","Right-handed","3","1","no","right","d","1096.65901777","527.734722644","22","red","0"
"100","88","18","648.340708028","1","1","7","430","0","left","out","Female","Right-handed","3","1","no","left","d","469.284611278","471.210145941","22","green","3"
"100","88","18","641.864947866","1","1","7","431","3","left","in","Female","Right-handed","3","1","no","left","d","448.980226709","510.961660886","22","red","3"
"100","88","18","643.686520848","1","1","7","432","3","right","out","Female","Right-handed","3","1","no","right","s","534.639900321","847.454936425","22","green","3"
"96","89","18","640.525018366","0","1","7","433","3","left","out","Female","Right-handed","3","1","no","right","s","516.209416328","594.119486417","22","red","0"
"96","89","18","644.982145652","1","1","7","434","2","left","in","Female","Right-handed","3","1","no","left","d","748.76904007","790.794379259","22","green","0"
"96","90","18","638.697126504","1","1","7","435","3","left","out","Female","Right-handed","3","1","no","left","s","433.444779588","479.418362815","22","red","3"
"96","90","18","634.853321577","1","1","7","436","3","left","in","Female","Right-handed","3","1","no","left","d","503.991058646","535.087288874","22","green","2"
"96","87","18","631.815940502","1","0","7","437","3","right","in","Female","Right-handed","3","1","no","right","s","491.65949081","583.654763566","22","green","3"
"96","87","18","634.479925024","1","1","7","438","1","right","in","Female","Right-handed","3","1","no","right","d","368.229640211","1071.22521924","22","green","3"
"97","85","18","630.224336635","1","0","7","439","2","left","in","Female","Right-handed","3","1","no","left","s","508.866471355","470.71336826","22","green","3"
"97","85","18","626.461156572","1","1","7","440","3","left","in","Female","Right-handed","3","1","no","left","s","501.498831818","495.527236984","22","green","2"
"97","86","18","624.256949266","1","1","7","441","1","left","in","Female","Right-handed","3","1","no","left","s","527.10709584","567.112291316","22","red","3"
"97","86","18","632.199775651","1","1","7","442","0","right","out","Female","Right-handed","3","1","no","right","d","1053.73088376","782.552167268","22","green","1"
"97","86","18","632.581571187","1","1","7","443","1","right","out","Female","Right-handed","3","1","no","right","s","614.223107379","679.192904645","22","green","2"
"97","87","18","635.690661059","1","1","7","444","0","left","in","Female","Right-handed","3","1","no","left","d","1020.77839194","486.893760455","22","red","0"
"97","87","18","635.472291576","1","1","7","445","1","left","out","Female","Right-handed","3","1","no","left","s","750.39342932","503.51833411","22","red","2"
"97","87","18","632.355762561","1","1","7","446","2","right","out","Female","Right-handed","3","1","no","right","d","520.214105087","495.175098898","22","green","3"
"97","88","18","633.235078134","1","1","7","447","0","left","out","Female","Right-handed","3","1","no","left","d","499.689714394","838.884318793","22","red","2"
"97","86","18","631.203223853","1","0","7","448","1","right","in","Female","Right-handed","3","1","no","right","d","460.42631799","631.304370134","22","green","3"
"97","86","18","629.689099215","1","1","7","449","3","right","out","Female","Right-handed","3","1","no","right","s","498.085209077","631.078270548","22","green","3"
"97","86","18","632.82085162","1","1","7","450","0","right","in","Female","Right-handed","3","1","no","right","d","949.621483629","591.614431247","22","red","0"
"97","86","18","635.372562693","1","1","7","451","2","left","in","Female","Right-handed","3","1","no","left","d","1069.22111097","431.178010931","22","green","0"
"97","87","18","640.328138843","1","1","7","452","0","right","in","Female","Right-handed","3","1","no","right","s","1137.72126892","598.848014572","22","red","2"
"97","87","18","640.578458829","1","1","7","453","2","left","out","Female","Right-handed","3","1","no","left","s","809.329734981","495.357261403","22","green","2"
"97","87","18","638.432469773","1","1","7","454","1","right","out","Female","Right-handed","3","1","no","right","d","535.8864948","534.963495338","22","red","2"
"98","86","18","638.58520988","1","0","7","455","0","right","out","Female","Right-handed","3","1","no","right","s","749.576263712","542.562686515","22","green","0"
"98","86","18","635.579105002","1","1","7","456","2","right","in","Female","Right-handed","3","1","no","right","d","507.291791942","463.255930303","22","red","2"
"98","86","18","640.199877958","1","1","7","457","0","left","in","Female","Right-handed","3","1","no","left","d","1256.85971723","494.858880182","22","red","0"
"98","86","18","637.355092265","1","1","7","458","3","left","out","Female","Right-handed","3","1","no","left","s","556.398057146","422.454415279","22","green","2"
"98","87","18","638.247245929","1","1","7","459","3","right","in","Female","Right-handed","3","1","no","right","s","820.136333241","550.926447074","22","green","1"
"98","87","18","635.600008688","1","1","7","460","2","right","out","Female","Right-handed","3","1","no","right","d","522.711463247","462.586932084","22","red","2"
"98","87","18","636.406088608","1","1","7","461","1","left","in","Female","Right-handed","3","1","no","left","s","882.256634261","479.224334089","22","green","3"
"98","87","18","635.372682989","1","1","7","462","1","left","in","Female","Right-handed","3","1","no","left","s","507.947641108","647.056295591","22","red","3"
"98","87","18","632.807379461","1","1","7","463","2","left","in","Female","Right-handed","3","1","no","left","s","446.654768377","526.515388403","22","red","3"
"98","88","18","632.922812688","1","1","7","464","2","left","out","Female","Right-handed","3","1","no","left","d","864.086244968","415.149634631","22","green","0"
"98","88","18","631.536972094","1","1","7","465","2","right","in","Female","Right-handed","3","1","no","right","d","508.771220892","590.773533197","22","green","3"
"98","88","18","629.780872669","1","1","7","466","0","left","out","Female","Right-handed","3","1","no","left","d","465.395056919","583.434757442","22","red","3"
"98","88","18","628.067744941","1","1","7","467","0","right","in","Female","Right-handed","3","1","no","right","s","520.127513756","527.006393327","22","red","3"
"98","87","18","637.361385463","1","0","7","468","3","right","out","Female","Right-handed","3","1","no","right","s","1564.5758067","862.558389017","22","green","2"
"98","87","18","638.647856303","1","1","7","469","0","left","in","Female","Right-handed","3","1","no","left","d","608.189936483","831.201101955","22","red","3"
"100","100","18","708.470235832","1","1","8","470","3","right","out","Female","Right-handed","3","1","no","right","s","842.035922575","574.904549088","22","red","0"
"100","100","18","609.843670573","1","1","8","471","1","left","in","Female","Right-handed","3","1","no","left","s","582.679809308","439.754401323","22","red","2"
"100","100","18","564.67266071","1","1","8","472","0","left","out","Female","Right-handed","3","1","no","left","d","565.270461611","383.390820356","22","green","3"
"100","100","18","555.24915854","1","1","8","473","3","left","out","Female","Right-handed","3","1","no","left","d","599.008368892","454.948935167","22","green","3"
"100","100","18","582.800427825","1","1","8","474","3","left","in","Female","Right-handed","3","1","no","left","s","914.53692078","471.474089147","22","red","0"
"100","100","18","577.770962718","1","1","8","475","2","right","out","Female","Right-handed","3","1","no","right","s","466.180793079","639.066481297","22","red","3"
"100","100","18","561.490910315","1","1","8","476","2","left","out","Female","Right-handed","3","1","no","left","d","471.834565659","455.786626131","22","red","3"
"100","100","18","564.927283325","1","1","8","477","1","left","in","Female","Right-handed","3","1","no","left","d","722.534752789","455.429035996","22","red","0"
"100","88","18","570.645716553","1","0","8","478","0","left","in","Female","Right-handed","3","1","no","left","d","753.975744807","478.810619945","22","red","0"
"100","90","18","584.243761014","1","1","8","479","2","right","out","Female","Right-handed","3","1","no","right","d","869.609809837","543.642512497","22","red","2"
"100","81","18","596.743174627","1","0","8","480","1","left","in","Female","Right-handed","3","1","no","left","d","900.258651516","543.215970007","22","red","0"
"100","83","18","608.37125713","1","1","8","481","1","right","out","Female","Right-handed","3","1","no","right","s","809.779047784","662.78128152","22","green","2"
"100","84","18","600.299726892","1","1","8","482","0","right","out","Female","Right-handed","3","1","no","right","s","543.431486211","463.451241863","22","red","3"
"100","85","18","618.666937894","1","1","8","483","0","left","out","Female","Right-handed","3","1","no","left","s","675.902113311","1038.97924855","22","red","2"
"100","86","18","646.060677005","1","1","8","484","0","right","out","Female","Right-handed","3","1","no","right","d","1116.52467292","942.621376195","22","green","0"
"100","87","18","642.323999108","1","1","8","485","0","left","in","Female","Right-handed","3","1","no","left","d","725.236402356","447.311258959","22","green","2"
"100","88","18","635.180162322","1","1","8","486","3","left","out","Female","Right-handed","3","1","no","left","d","562.87412667","478.883420805","22","green","3"
"100","88","18","638.363701769","1","1","8","487","3","left","in","Female","Right-handed","3","1","no","left","s","1017.52127501","367.446469721","22","green","0"
"100","89","18","639.482246287","1","1","8","488","3","left","out","Female","Right-handed","3","1","no","left","s","792.093249246","527.138845995","22","red","0"
"100","90","18","628.921160196","1","1","8","489","0","left","out","Female","Right-handed","3","1","no","left","s","393.718921332","462.802127578","22","green","3"
"100","90","18","635.319077223","1","1","8","490","3","left","in","Female","Right-handed","3","1","no","left","s","1015.27567313","511.279162438","22","green","1"
"100","90","18","641.893979847","1","1","8","491","2","right","out","Female","Right-handed","3","1","no","right","s","1056.95977833","502.974091553","22","green","2"
"100","91","18","644.578270581","1","1","8","492","1","left","out","Female","Right-handed","3","1","no","left","s","808.731613375","598.533720109","22","green","3"
"100","91","18","643.417348306","1","1","8","493","2","right","out","Female","Right-handed","3","1","no","right","s","770.195904872","463.236367076","22","green","2"
"100","92","18","636.510401383","1","1","8","494","3","left","in","Female","Right-handed","3","1","no","left","d","470.77879282","470.70855763","22","green","2"
"100","92","18","635.105328734","1","1","8","495","1","left","out","Female","Right-handed","3","1","no","left","s","816.466143591","383.490881453","22","red","3"
"100","92","18","632.457383019","1","1","8","496","2","right","in","Female","Right-handed","3","1","no","right","d","552.241673202","574.979915622","22","green","2"
"100","92","18","625.58898714","1","1","8","497","2","left","in","Female","Right-handed","3","1","no","left","s","457.728837639","422.555759207","22","green","3"
"100","93","18","619.958179594","1","1","8","498","0","right","in","Female","Right-handed","3","1","no","right","s","477.380259421","447.210877155","22","red","3"
"100","93","18","622.342188633","1","1","8","499","0","left","in","Female","Right-handed","3","1","no","left","s","871.987864383","510.969037183","22","green","3"
"100","93","18","617.365343366","1","1","8","500","3","right","out","Female","Right-handed","3","1","no","right","d","385.575166889","550.544803798","22","red","3"
"100","93","18","613.751565459","1","1","8","501","3","left","in","Female","Right-handed","3","1","no","left","s","444.1346399","559.31426079","22","red","3"
"100","93","18","618.904729466","1","1","8","502","2","right","in","Female","Right-handed","3","1","no","right","s","976.908657369","590.70329801","22","green","0"
"100","94","18","617.741672588","1","1","8","503","0","right","in","Female","Right-handed","3","1","no","right","d","696.463064789","462.258526441","22","green","2"
"100","94","18","612.948153096","1","1","8","504","1","right","in","Female","Right-handed","3","1","no","right","d","476.933512288","423.003468466","22","green","3"
"100","94","18","619.467700275","1","1","8","505","2","left","in","Female","Right-handed","3","1","no","left","d","1280.56425478","414.739448286","22","green","0"
"100","94","18","618.378312503","1","1","8","506","1","left","out","Female","Right-handed","3","1","no","left","d","743.240985281","415.079720147","22","green","0"
"100","94","18","626.179749933","1","1","8","507","1","right","in","Female","Right-handed","3","1","no","right","s","1286.8879877","542.777882009","22","red","1"
"100","94","18","626.07053674","1","1","8","508","1","left","out","Female","Right-handed","3","1","no","left","d","541.355218491","702.485652294","22","red","0"
"100","92","18","625.69788204","1","0","8","509","0","right","out","Female","Right-handed","3","1","no","right","d","727.09298466","495.235712831","22","red","2"
"100","92","18","621.356132902","1","1","8","510","2","right","out","Female","Right-handed","3","1","no","right","s","456.788519914","438.583814797","22","red","3"
"100","92","18","618.082194417","1","1","8","511","1","right","in","Female","Right-handed","3","1","no","right","d","400.403772175","567.297660913","22","red","3"
"100","93","18","616.414166417","1","1","8","512","3","right","in","Female","Right-handed","3","1","no","right","d","629.812112845","462.901867966","22","red","2"
"100","93","18","620.203565435","1","1","8","513","0","right","in","Female","Right-handed","3","1","no","right","s","1015.66405129","550.63139513","22","green","0"
"100","93","18","617.157972701","1","1","8","514","1","right","out","Female","Right-handed","3","1","no","right","s","511.102772686","455.201012155","22","green","3"
"100","93","18","615.856208051","1","1","8","515","0","right","out","Female","Right-handed","3","1","no","right","d","531.874750447","582.678847179","22","green","3"
"100","93","18","618.025647343","1","1","8","516","1","right","out","Female","Right-handed","3","1","no","right","s","885.241148841","550.398560659","22","green","1"
"100","93","18","616.754631033","1","1","8","517","1","right","in","Female","Right-handed","3","1","no","right","d","618.952276953","495.081451977","22","green","2"
"100","93","18","614.905441185","1","1","8","518","0","right","in","Female","Right-handed","3","1","no","right","d","557.60007312","494.688583895","22","red","0"
"100","94","18","614.632395742","1","1","8","519","3","right","in","Female","Right-handed","3","1","no","right","s","644.213534226","558.29280378","22","red","2"
"100","94","18","615.146719957","1","1","8","520","2","right","out","Female","Right-handed","3","1","no","right","d","538.936433942","742.789427517","22","red","0"
"100","94","18","619.960498564","1","1","8","521","2","right","in","Female","Right-handed","3","1","no","right","d","1220.58083541","510.345579594","22","green","1"
"100","94","18","617.643452898","1","1","8","522","3","right","in","Female","Right-handed","3","1","no","right","s","548.156165863","446.157990696","22","red","3"
"100","94","18","619.134620598","1","1","8","523","0","left","out","Female","Right-handed","3","1","no","left","d","965.652746309","430.680271125","22","red","1"
"100","94","18","621.083382934","1","1","8","524","3","left","out","Female","Right-handed","3","1","no","left","d","990.346670002","462.28642809","22","red","1"
"100","94","18","619.706274412","1","1","8","525","3","left","out","Female","Right-handed","3","1","no","left","s","552.910030001","535.020581475","22","green","3"
"100","94","18","618.957655854","1","1","8","526","2","left","in","Female","Right-handed","3","1","no","left","d","683.496493854","470.573539292","22","red","0"
"100","94","18","621.254962206","1","1","8","527","2","right","in","Female","Right-handed","3","1","no","right","s","962.106029482","542.296819051","22","green","1"
"100","94","18","618.610599948","1","1","8","528","2","left","out","Female","Right-handed","3","1","no","left","d","459.78618355","470.688994399","22","red","3"
"100","95","18","621.73092866","1","1","8","529","0","left","in","Female","Right-handed","3","1","no","left","d","1157.27872306","454.381922296","22","green","1"
"100","95","18","619.841835963","1","1","8","530","2","right","out","Female","Right-handed","3","1","no","right","d","485.94350076","527.049047574","22","green","3"
"100","95","18","619.039809718","1","1","8","531","3","left","in","Female","Right-handed","3","1","no","left","d","701.592158032","438.640259518","22","red","2"
"100","95","18","619.27378227","1","1","8","532","1","right","in","Female","Right-handed","3","1","no","right","d","621.310126855","646.250034075","22","red","2"
"100","95","18","621.097186343","1","1","8","533","1","left","out","Female","Right-handed","3","1","no","left","d","976.952915159","494.990370724","22","green","3"
dis_reply=Yes
dis_loc=2
tar_loc=0
