"acc_1","acc_2","age","avg_rt","correct_1","correct_2","count_block_loop","count_trial_sequence","cue_position","detection","dis_shape","gender","hand","high_loc","low_loc","practice","response_keyboard_response_1","response_keyboard_response_2","response_time_keyboard_response_1","response_time_keyboard_response_2","subject_nr","tar_color","tar_position"
"0","100","19","2529.18895359","0","1","0","0","1","left","in","Female","Right-handed","1","2","yes","None","s","3000.16709183","2058.21081536","28","green","3"
"50","100","19","1762.47632331","1","1","0","1","1","left","in","Female","Right-handed","1","2","yes","left","s","1166.16303929","825.364346773","28","green","2"
"66","100","19","1540.73758587","1","1","0","2","1","right","out","Female","Right-handed","1","2","yes","right","s","1640.80773664","553.712485319","28","red","0"
"75","75","19","1457.92621405","1","0","0","3","3","right","in","Female","Right-handed","1","2","yes","right","s","1305.47753304","1113.50666411","28","red","3"
"80","80","19","1426.01841025","1","1","0","4","2","left","in","Female","Right-handed","1","2","yes","left","s","1778.91281912","817.861570997","28","red","1"
"83","83","19","1365.57919607","1","1","0","5","2","left","in","Female","Right-handed","1","2","yes","left","d","1261.4624672","865.303783203","28","red","0"
"85","85","19","1299.27774822","1","1","0","6","2","right","in","Female","Right-handed","1","2","yes","right","s","1337.03094823","465.907173916","28","red","2"
"87","75","19","1315.05805238","1","0","0","7","0","right","in","Female","Right-handed","1","2","yes","right","s","1833.61534756","1017.42501554","28","green","1"
"88","77","19","1272.224371","1","1","0","8","0","left","in","Female","Right-handed","1","2","yes","left","d","946.077767935","913.032072009","28","green","2"
"90","70","19","1226.81188796","1","0","0","9","3","right","out","Female","Right-handed","1","2","yes","right","s","954.704324439","681.494756652","28","green","0"
"90","72","19","1194.80016127","1","1","0","10","3","right","in","Female","Right-handed","1","2","yes","right","d","892.122181648","857.243607054","28","red","0"
"91","75","19","1166.2602289","1","1","0","11","2","right","in","Female","Right-handed","1","2","yes","right","d","1006.82029707","697.821648558","28","green","1"
"92","69","19","1160.61212695","1","0","0","12","2","right","in","Female","Right-handed","1","2","yes","right","d","1632.48297171","553.186835602","28","green","3"
"92","71","19","1171.94968763","1","1","0","13","0","left","out","Female","Right-handed","1","2","yes","left","d","2004.80749803","633.868454795","28","green","0"
"93","66","19","1178.47366588","1","0","0","14","1","right","out","Female","Right-handed","1","2","yes","right","s","1770.41166166","769.207061088","28","red","1"
"93","68","19","1180.66315611","1","1","0","15","1","left","in","Female","Right-handed","1","2","yes","left","s","1473.02990398","953.981115095","28","green","3"
"94","70","19","1168.76855494","1","1","0","16","3","left","in","Female","Right-handed","1","2","yes","left","s","1091.43514881","865.474723593","28","red","1"
"94","72","19","1159.59063607","1","1","0","17","0","left","out","Female","Right-handed","1","2","yes","left","d","1422.08453628","585.047494488","28","red","0"
"94","73","19","1181.9001303","1","1","0","18","2","left","in","Female","Right-handed","1","2","yes","left","d","2605.45161938","561.490433432","28","green","2"
"95","75","19","1182.03713961","1","1","0","19","0","left","out","Female","Right-handed","1","2","yes","left","d","1240.14013905","1129.14049376","28","green","2"
"95","76","19","1166.21125324","1","1","0","20","0","right","out","Female","Right-handed","1","2","yes","right","s","881.722719934","817.664332085","28","green","1"
"95","72","19","1147.16841457","1","0","0","21","0","right","in","Female","Right-handed","1","2","yes","right","s","933.280650766","561.256953874","28","red","3"
"100","100","19","663.314300045","1","1","1","22","1","left","in","Female","Right-handed","1","2","no","left","d","821.342597254","505.286002836","28","green","2"
"100","100","19","800.587210708","1","1","1","23","3","left","out","Female","Right-handed","1","2","no","left","d","1217.84059632","657.87964642","28","green","0"
"100","100","19","754.526980466","1","1","1","24","1","left","out","Female","Right-handed","1","2","no","left","s","715.343840341","609.46919962","28","red","0"
"100","75","19","728.04915322","1","0","1","25","3","right","in","Female","Right-handed","1","2","no","right","d","528.095159596","769.136183366","28","red","0"
"100","60","19","713.46705597","1","0","1","26","1","right","out","Female","Right-handed","1","2","no","right","d","708.636434485","601.64089946","28","red","0"
"100","66","19","717.257271595","1","1","1","27","3","right","out","Female","Right-handed","1","2","no","right","d","935.135337964","537.281361469","28","green","1"
"100","57","19","721.692367592","1","0","1","28","2","right","out","Female","Right-handed","1","2","no","right","d","670.738019901","825.867867247","28","green","1"
"100","50","19","710.536743204","1","0","1","29","2","left","in","Female","Right-handed","1","2","no","left","d","791.50179311","473.392951868","28","red","1"
"100","55","19","741.35375524","1","1","1","30","3","left","in","Female","Right-handed","1","2","no","left","d","1054.92638659","920.853316468","28","green","2"
"100","60","19","721.628721962","1","1","1","31","2","right","in","Female","Right-handed","1","2","no","right","d","574.652202052","513.554642876","28","green","2"
"100","63","19","727.263659822","1","1","1","32","0","left","in","Female","Right-handed","1","2","no","left","s","1230.01552896","337.210547887","28","green","0"
"100","66","19","727.264179767","1","1","1","33","1","right","in","Female","Right-handed","1","2","no","right","d","996.778110394","457.761687929","28","red","1"
"100","61","19","732.809191792","1","0","1","34","0","right","out","Female","Right-handed","1","2","no","right","d","1013.41352886","585.285143324","28","red","3"
"100","57","19","756.822290077","1","0","1","35","2","right","in","Female","Right-handed","1","2","no","right","s","1048.9450765","1089.04005906","28","red","1"
"100","60","19","774.063820739","1","1","1","36","2","left","out","Female","Right-handed","1","2","no","left","d","1317.51006881","713.380431206","28","red","1"
"100","56","19","839.057798538","1","0","1","37","1","left","out","Female","Right-handed","1","2","no","left","s","834.926425076","2793.00850597","28","green","1"
"100","58","19","840.792580089","1","1","1","38","2","right","out","Female","Right-handed","1","2","no","right","d","975.581822719","761.516347096","28","red","2"
"100","61","19","829.314354424","1","1","1","39","0","left","in","Female","Right-handed","1","2","no","left","d","731.170098196","537.198938053","28","green","1"
"100","63","19","817.890874099","1","1","1","40","3","left","in","Female","Right-handed","1","2","no","left","s","830.78472864","393.751727845","28","green","1"
"100","65","19","839.559462881","1","1","1","41","3","right","out","Female","Right-handed","1","2","no","right","s","1925.20764607","577.317653428","28","red","3"
"100","66","19","848.502945205","1","1","1","42","0","right","out","Female","Right-handed","1","2","no","right","d","1213.83776891","840.907414451","28","red","0"
"100","68","19","851.445788921","1","1","1","43","2","left","out","Female","Right-handed","1","2","no","left","s","1153.19337816","673.297635763","28","red","0"
"100","69","19","842.552431597","1","1","1","44","3","right","in","Female","Right-handed","1","2","no","right","d","868.920150632","424.876990269","28","green","1"
"100","70","19","843.367582347","1","1","1","45","1","left","in","Female","Right-handed","1","2","no","left","d","1210.56937582","513.662723385","28","red","3"
"100","72","19","842.337868011","1","1","1","46","0","right","out","Female","Right-handed","1","2","no","right","s","970.07933815","665.170109742","28","green","1"
"96","69","19","843.528261955","0","0","1","47","3","left","out","Female","Right-handed","1","2","no","right","s","758.822993631","987.753227502","28","green","3"
"96","66","19","847.517822237","1","0","1","48","0","left","out","Female","Right-handed","1","2","no","left","d","1181.26576709","721.227012045","28","green","0"
"96","67","19","851.546111388","1","1","1","49","3","right","in","Female","Right-handed","1","2","no","right","d","975.820754408","944.799082502","28","green","2"
"96","65","19","865.958144167","1","0","1","50","2","left","out","Female","Right-handed","1","2","no","left","s","969.44624935","1569.54387459","28","green","0"
"96","66","19","862.225535907","1","1","1","51","0","left","out","Female","Right-handed","1","2","no","left","s","1042.86659017","465.093202602","28","red","1"
"96","64","19","864.219853737","1","0","1","52","0","left","out","Female","Right-handed","1","2","no","left","d","1382.63354678","465.465230468","28","green","3"
"96","65","19","870.980545588","1","1","1","53","1","left","out","Female","Right-handed","1","2","no","left","d","1656.05382345","505.070162531","28","red","3"
"96","66","19","871.136136367","1","1","1","54","3","left","in","Female","Right-handed","1","2","no","left","d","1143.67459621","608.555486352","28","red","1"
"97","64","19","872.770733375","1","0","1","55","3","left","out","Female","Right-handed","1","2","no","left","s","1196.09909539","657.325773898","28","red","1"
"97","65","19","868.187755133","1","1","1","56","2","left","out","Female","Right-handed","1","2","no","left","d","847.798589244","576.934400583","28","green","1"
"97","66","19","863.24778581","1","1","1","57","3","right","out","Female","Right-handed","1","2","no","right","s","843.31501203","537.382706991","28","red","1"
"97","67","19","875.956439697","1","1","1","58","0","left","in","Female","Right-handed","1","2","no","left","d","1466.03225225","1200.903707","28","red","2"
"97","68","19","883.813950349","1","1","1","59","2","left","in","Female","Right-handed","1","2","no","left","s","1700.62276182","648.460927132","28","red","3"
"97","69","19","879.359249268","1","1","1","60","1","right","out","Female","Right-handed","1","2","no","right","d","803.119325372","617.041890979","28","green","1"
"97","67","19","877.443284993","1","0","1","61","2","right","in","Female","Right-handed","1","2","no","right","d","1020.67961794","584.761738602","28","red","0"
"97","65","19","876.95019534","1","0","1","62","1","left","in","Female","Right-handed","1","2","no","left","s","753.210824984","961.242393473","28","green","1"
"97","66","19","875.686518171","1","1","1","63","3","right","in","Female","Right-handed","1","2","no","right","s","878.790114065","768.961394412","28","green","0"
"97","65","19","876.248476815","1","0","1","64","1","right","out","Female","Right-handed","1","2","no","right","s","1142.2980931","657.403386608","28","green","2"
"97","65","19","891.922129203","1","1","1","65","0","left","in","Female","Right-handed","1","2","no","left","s","1498.9095735","1632.86879026","28","green","3"
"97","66","19","887.456834612","1","1","1","66","1","left","in","Female","Right-handed","1","2","no","left","s","845.45417226","536.513572923","28","green","1"
"97","65","19","889.808344016","1","0","1","67","2","left","out","Female","Right-handed","1","2","no","left","d","1254.15757176","737.094962678","28","red","3"
"97","63","19","901.294227764","1","0","1","68","3","right","out","Female","Right-handed","1","2","no","right","s","1130.64335805","1728.64640227","28","green","3"
"97","64","19","894.926338349","1","1","1","69","0","right","out","Female","Right-handed","1","2","no","right","s","798.139924812","393.131146879","28","red","1"
"97","65","19","893.21916642","1","1","1","70","0","left","in","Female","Right-handed","1","2","no","left","s","901.724028447","720.825799235","28","red","2"
"98","66","19","888.412152996","1","1","1","71","0","right","in","Female","Right-handed","1","2","no","right","d","816.375704528","489.361285882","28","green","1"
"98","66","19","886.675837694","1","1","1","72","0","left","out","Female","Right-handed","1","2","no","left","d","1046.81393411","552.906211134","28","red","1"
"98","67","19","881.934159678","1","1","1","73","2","right","in","Female","Right-handed","1","2","no","right","s","615.691044969","664.526116677","28","green","0"
"98","67","19","878.721971485","1","1","1","74","1","right","out","Female","Right-handed","1","2","no","right","d","758.125762096","665.250608875","28","red","0"
"98","66","19","877.740064819","1","0","1","75","2","left","in","Female","Right-handed","1","2","no","left","d","1050.74748737","600.650535624","28","red","3"
"98","67","19","876.659476072","1","1","1","76","2","right","in","Female","Right-handed","1","2","no","right","d","963.279887468","673.335479977","28","red","3"
"98","66","19","890.073880748","1","0","1","77","3","left","in","Female","Right-handed","1","2","no","left","d","2590.86427846","664.867997457","28","red","3"
"98","64","19","899.737201586","1","0","1","78","1","left","out","Female","Right-handed","1","2","no","left","d","1521.42174939","1360.3445876","28","green","3"
"98","65","19","898.996726332","1","1","1","79","3","right","in","Female","Right-handed","1","2","no","right","d","776.751850357","936.827423328","28","red","0"
"98","66","19","896.342170271","1","1","1","80","1","right","in","Female","Right-handed","1","2","no","right","d","604.385567114","880.370270355","28","red","3"
"98","65","19","896.961892694","1","0","1","81","2","right","in","Female","Right-handed","1","2","no","right","d","1218.08498014","648.966051174","28","green","1"
"98","63","19","912.290374311","1","0","1","82","1","right","out","Female","Right-handed","1","2","no","right","d","1631.49260787","2032.50593481","28","green","1"
"98","64","19","913.043886687","1","1","1","83","1","right","in","Female","Right-handed","1","2","no","right","s","933.000667726","985.015615549","28","green","0"
"98","65","19","907.584755284","1","1","1","84","0","right","in","Female","Right-handed","1","2","no","right","s","545.561226486","592.675990028","28","red","3"
"98","65","19","905.930353697","1","1","1","85","0","right","out","Female","Right-handed","1","2","no","right","s","1139.21539323","464.190714313","28","green","0"
"100","100","19","1043.88453538","1","1","2","86","0","right","in","Female","Right-handed","1","2","no","right","s","1678.37549542","409.393575335","28","green","0"
"100","50","19","969.94792572","1","0","2","87","0","left","in","Female","Right-handed","1","2","no","left","s","822.975350588","969.047281535","28","green","3"
"100","66","19","936.461863188","1","1","2","88","2","left","in","Female","Right-handed","1","2","no","left","s","969.343941686","769.635534562","28","red","3"
"100","75","19","855.638114383","1","1","2","89","2","right","out","Female","Right-handed","1","2","no","right","d","729.126831355","497.206904581","28","green","1"
"100","80","19","780.958747882","1","1","2","90","3","right","out","Female","Right-handed","1","2","no","right","s","523.738905712","440.743658048","28","red","3"
"100","66","19","770.457229731","1","0","2","91","3","right","in","Female","Right-handed","1","2","no","right","d","906.396185303","529.503092642","28","red","0"
"100","71","19","771.475331483","1","1","2","92","1","right","in","Female","Right-handed","1","2","no","right","s","890.068972683","665.098911305","28","green","0"
"100","75","19","744.986142764","1","1","2","93","3","right","in","Female","Right-handed","1","2","no","right","s","613.591011807","505.532631654","28","red","0"
"100","77","19","753.517783609","1","1","2","94","1","right","in","Female","Right-handed","1","2","no","right","d","874.319686112","769.222134631","28","red","2"
"100","80","19","763.352080117","1","1","2","95","2","left","in","Female","Right-handed","1","2","no","left","s","742.902766668","960.818730705","28","green","0"
"100","72","19","759.985857693","1","0","2","96","1","left","out","Female","Right-handed","1","2","no","left","d","859.270517497","593.376749413","28","red","1"
"100","75","19","744.981579275","1","1","2","97","1","left","out","Female","Right-handed","1","2","no","left","d","662.950771092","496.918262271","28","red","0"
"100","76","19","747.605749044","1","1","2","98","1","right","out","Female","Right-handed","1","2","no","right","d","949.556228485","608.635344059","28","red","1"
"100","78","19","742.295678585","1","1","2","99","3","left","in","Female","Right-handed","1","2","no","left","s","969.370240207","377.159285014","28","red","3"
"100","80","19","745.625166103","1","1","2","100","2","left","in","Female","Right-handed","1","2","no","left","d","919.698747228","664.777235486","28","red","0"
"100","75","19","733.391611686","1","0","2","101","0","left","in","Female","Right-handed","1","2","no","left","s","682.302313693","417.474277159","28","red","1"
"100","76","19","732.454188598","1","1","2","102","2","right","out","Female","Right-handed","1","2","no","right","d","913.940974572","520.969863819","28","green","2"
"100","77","19","725.683471137","1","1","2","103","1","right","in","Female","Right-handed","1","2","no","right","d","540.482404685","680.680143911","28","red","3"
"100","78","19","710.738526966","1","1","2","104","3","right","out","Female","Right-handed","1","2","no","right","s","514.218520189","369.240543597","28","green","3"
"100","80","19","705.894212273","1","1","2","105","0","right","in","Female","Right-handed","1","2","no","right","s","690.810847563","536.893618631","28","red","1"
"100","80","19","697.708490082","1","1","2","106","0","left","out","Female","Right-handed","1","2","no","left","s","547.560555553","520.427536989","28","green","2"
"100","81","19","701.452841707","1","1","2","107","3","left","out","Female","Right-handed","1","2","no","left","s","871.11479433","689.053657323","28","red","1"
"100","82","19","703.726977394","1","1","2","108","0","left","out","Female","Right-handed","1","2","no","left","d","874.689148268","632.82677677","28","red","1"
"100","83","19","710.353896318","1","1","2","109","0","right","out","Female","Right-handed","1","2","no","right","d","844.371763598","881.174299545","28","green","1"
"100","84","19","704.614338595","1","1","2","110","2","right","in","Female","Right-handed","1","2","no","right","s","548.859766662","584.870139824","28","red","1"
"100","84","19","708.380128748","1","1","2","111","2","right","out","Female","Right-handed","1","2","no","right","d","732.643136118","872.406629024","28","red","1"
"100","85","19","709.146280145","1","1","2","112","1","left","out","Female","Right-handed","1","2","no","left","d","921.104755992","537.027676949","28","red","1"
"100","82","19","701.554417872","1","0","2","113","0","left","in","Female","Right-handed","1","2","no","left","s","609.622500759","383.52577223","28","green","1"
"100","82","19","702.560309267","1","1","2","114","3","right","out","Female","Right-handed","1","2","no","right","d","932.257574135","529.192962515","28","red","2"
"100","83","19","704.17056601","1","1","2","115","2","right","in","Female","Right-handed","1","2","no","right","d","820.714960588","681.02106255","28","green","2"
"100","83","19","708.228724636","1","1","2","116","0","right","in","Female","Right-handed","1","2","no","right","s","1099.41642939","560.530537395","28","red","0"
"100","81","19","709.132984448","1","0","2","117","2","left","out","Female","Right-handed","1","2","no","left","d","641.182009502","833.148067732","28","green","0"
"100","81","19","703.590097093","1","1","2","118","3","right","out","Female","Right-handed","1","2","no","right","s","643.689349035","408.746054421","28","green","1"
"100","82","19","705.97858591","1","1","2","119","0","right","out","Female","Right-handed","1","2","no","right","d","945.361614293","624.235819485","28","red","2"
"100","82","19","703.287782522","1","1","2","120","2","left","in","Female","Right-handed","1","2","no","left","d","630.764908536","592.836026152","28","red","1"
"100","83","19","700.212569026","1","1","2","121","1","right","out","Female","Right-handed","1","2","no","right","s","536.593430629","648.566762645","28","red","2"
"100","81","19","712.020843581","1","0","2","122","3","left","in","Female","Right-handed","1","2","no","left","d","1305.03077889","969.206676233","28","green","0"
"100","78","19","710.694563873","1","0","2","123","0","right","out","Female","Right-handed","1","2","no","right","s","714.601388177","608.643041186","28","green","3"
"100","79","19","712.297035732","1","1","2","124","1","left","out","Female","Right-handed","1","2","no","left","d","993.127105887","553.254826901","28","red","3"
"100","80","19","716.473923092","1","1","2","125","0","right","in","Female","Right-handed","1","2","no","right","s","1285.87358878","472.871471428","28","green","3"
"100","80","19","717.205508929","1","1","2","126","2","left","out","Female","Right-handed","1","2","no","left","d","924.4462718","568.491613017","28","red","1"
"100","80","19","717.381143435","1","1","2","127","3","left","in","Female","Right-handed","1","2","no","left","d","792.123015504","657.041300866","28","red","1"
"100","81","19","714.351846831","1","1","2","128","0","left","out","Female","Right-handed","1","2","no","left","s","757.61678949","416.625989482","28","green","1"
"100","81","19","709.758768356","1","1","2","129","0","left","out","Female","Right-handed","1","2","no","left","s","688.189013247","336.323774569","28","green","0"
"100","82","19","711.93763302","1","1","2","130","2","left","in","Female","Right-handed","1","2","no","left","s","950.85960887","664.75574767","28","red","3"
"100","82","19","710.438929018","1","1","2","131","3","left","out","Female","Right-handed","1","2","no","left","s","789.410419218","496.584078618","28","green","1"
"100","82","19","711.857614427","1","1","2","132","3","right","in","Female","Right-handed","1","2","no","right","d","1025.07435747","529.159929007","28","green","2"
"100","83","19","712.001686446","1","1","2","133","2","left","in","Female","Right-handed","1","2","no","left","d","676.801753406","760.744389274","28","green","0"
"100","83","19","710.486648055","1","1","2","134","3","right","in","Female","Right-handed","1","2","no","right","d","779.210441411","496.319169121","28","green","1"
"100","84","19","709.973525086","1","1","2","135","2","right","out","Female","Right-handed","1","2","no","right","s","776.825935217","592.835064012","28","green","1"
"100","84","19","708.835660564","1","1","2","136","0","left","out","Female","Right-handed","1","2","no","left","d","815.467443393","488.417425528","28","red","3"
"100","84","19","712.1179634","1","1","2","137","1","left","in","Female","Right-handed","1","2","no","left","d","694.968900395","1064.0619157","28","green","0"
"100","84","19","715.938770264","1","1","2","138","1","right","out","Female","Right-handed","1","2","no","right","d","1108.65362474","720.587829685","28","red","3"
"100","85","19","715.360716414","1","1","2","139","1","right","out","Female","Right-handed","1","2","no","right","d","745.199397315","624.248327318","28","red","1"
"100","85","19","738.813320324","1","1","2","140","3","left","in","Female","Right-handed","1","2","no","left","d","1457.77547862","2552.73238432","28","red","3"
"100","83","19","741.482712364","1","0","2","141","3","left","out","Female","Right-handed","1","2","no","left","d","752.299677426","1024.29887179","28","green","1"
"100","82","19","743.656460691","1","0","2","142","1","left","in","Female","Right-handed","1","2","no","left","d","697.867831328","1032.90490262","28","green","0"
"100","82","19","738.272648186","1","1","2","143","1","right","in","Female","Right-handed","1","2","no","right","d","446.336904587","416.453766236","28","red","3"
"100","83","19","736.447580377","1","1","2","144","2","left","out","Female","Right-handed","1","2","no","left","d","733.15435372","528.032941143","28","green","3"
"100","81","19","742.883459705","1","0","2","145","1","left","out","Female","Right-handed","1","2","no","left","d","1340.65725778","904.543422386","28","green","1"
"100","81","19","742.896386569","1","1","2","146","0","left","in","Female","Right-handed","1","2","no","left","s","847.126373376","640.217623472","28","green","0"
"100","82","19","742.177348539","1","1","2","147","1","right","in","Female","Right-handed","1","2","no","right","s","683.675288947","712.956768437","28","green","1"
"100","80","19","742.839176273","1","0","2","148","2","right","out","Female","Right-handed","1","2","no","right","d","943.369661641","624.375329934","28","green","3"
"100","81","19","743.887239897","1","1","2","149","3","right","in","Female","Right-handed","1","2","no","right","s","739.835781768","879.994714639","28","green","0"
"100","100","19","549.097575853","1","1","3","150","0","right","out","Female","Right-handed","1","2","no","right","d","649.592404987","448.60274672","28","red","0"
"100","100","19","755.162608249","1","1","3","151","3","right","out","Female","Right-handed","1","2","no","right","d","993.138010151","929.317271138","28","green","1"
"100","66","19","690.377135766","1","0","3","152","2","right","in","Female","Right-handed","1","2","no","right","s","592.779580546","528.832801056","28","green","1"
"100","75","19","722.994505213","1","1","3","153","0","left","out","Female","Right-handed","1","2","no","left","d","945.399458507","696.293768598","28","green","1"
"100","80","19","764.881275004","1","1","3","154","0","left","in","Female","Right-handed","1","2","no","left","s","703.96267406","1160.89403428","28","red","1"
"100","83","19","779.396989867","1","1","3","155","1","right","in","Female","Right-handed","1","2","no","right","s","1135.61153363","568.339594733","28","red","3"
"100","71","19","780.919982762","1","0","3","156","2","right","out","Female","Right-handed","1","2","no","right","s","819.02864807","761.087232197","28","green","1"
"100","75","19","780.150012219","1","1","3","157","2","right","in","Female","Right-handed","1","2","no","right","d","652.804031755","896.716405082","28","red","2"
"100","66","19","786.551132059","1","0","3","158","2","right","in","Female","Right-handed","1","2","no","right","s","723.300746686","952.219434864","28","red","1"
"100","70","19","764.838588013","1","1","3","159","0","right","out","Female","Right-handed","1","2","no","right","s","537.862815366","600.988567841","28","green","3"
"100","72","19","784.937848313","1","1","3","160","2","right","out","Female","Right-handed","1","2","no","right","d","1155.50091307","816.359989558","28","red","2"
"100","75","19","784.478751543","1","1","3","161","3","left","out","Female","Right-handed","1","2","no","left","s","909.867269437","648.9901047","28","red","1"
"100","76","19","771.876250012","1","1","3","162","3","left","in","Female","Right-handed","1","2","no","left","s","712.688331089","528.604132203","28","green","1"
"100","78","19","775.752895976","1","1","3","163","2","right","in","Female","Right-handed","1","2","no","right","d","948.091529118","704.207057882","28","green","1"
"100","80","19","784.460224983","1","1","3","164","2","left","in","Female","Right-handed","1","2","no","left","d","955.88166435","856.843997812","28","green","0"
"100","81","19","773.241518887","1","1","3","165","3","right","out","Female","Right-handed","1","2","no","right","s","609.451560368","600.470294537","28","green","2"
"100","82","19","763.583563703","1","1","3","166","0","right","out","Female","Right-handed","1","2","no","right","d","577.058516777","641.054044744","28","green","3"
"100","83","19","765.758462547","1","1","3","167","2","right","out","Female","Right-handed","1","2","no","right","d","1076.71086315","528.752622636","28","red","0"
"100","78","19","764.517391577","1","0","3","168","1","left","in","Female","Right-handed","1","2","no","left","d","820.123564566","664.232663661","28","red","2"
"100","80","19","767.330958235","1","1","3","169","1","right","out","Female","Right-handed","1","2","no","right","d","856.917441244","784.660008223","28","red","0"
"100","80","19","766.212725473","1","1","3","170","3","left","out","Female","Right-handed","1","2","no","left","d","871.343142468","616.352998","28","red","1"
"100","81","19","755.679015582","1","1","3","171","3","left","in","Female","Right-handed","1","2","no","left","s","699.946055959","368.996159774","28","red","1"
"100","82","19","755.527611788","1","1","3","172","2","right","out","Female","Right-handed","1","2","no","right","d","919.571744612","584.821712059","28","red","1"
"100","79","19","750.994693471","1","0","3","173","1","left","out","Female","Right-handed","1","2","no","left","d","645.312480958","648.162663411","28","green","1"
"100","80","19","755.909239312","1","1","3","174","0","left","in","Female","Right-handed","1","2","no","left","s","1114.87996008","632.836718895","28","red","3"
"100","80","19","748.527504824","1","1","3","175","3","left","in","Female","Right-handed","1","2","no","left","s","783.410507734","344.557777531","28","green","3"
"100","81","19","742.325006917","1","1","3","176","0","left","out","Female","Right-handed","1","2","no","left","s","825.984607027","336.13551564","28","red","0"
"100","78","19","739.407600374","1","0","3","177","0","left","out","Female","Right-handed","1","2","no","left","s","696.612557994","624.66268939","28","red","0"
"100","75","19","735.538511553","1","0","3","178","0","left","in","Female","Right-handed","1","2","no","left","d","750.156347918","504.251701226","28","red","1"
"100","73","19","732.502171766","1","0","3","179","2","right","out","Female","Right-handed","1","2","no","right","d","687.942063716","600.954572191","28","green","1"
"100","70","19","730.308356063","1","0","3","180","2","right","in","Female","Right-handed","1","2","no","right","s","704.534827261","624.452942644","28","green","3"
"100","68","19","728.818094329","1","0","3","181","1","right","in","Female","Right-handed","1","2","no","right","d","613.118921274","752.121039907","28","red","3"
"100","69","19","723.616115135","1","1","3","182","2","right","out","Female","Right-handed","1","2","no","right","d","569.681140047","544.624421833","28","red","3"
"100","70","19","725.163946946","1","1","3","183","0","right","in","Female","Right-handed","1","2","no","right","d","872.203937979","680.280855382","28","red","1"
"100","71","19","731.983121114","1","1","3","184","3","left","in","Female","Right-handed","1","2","no","left","s","1278.85252495","648.817560742","28","green","0"
"100","72","19","732.941208301","1","1","3","185","0","left","in","Female","Right-handed","1","2","no","left","s","812.531630386","720.416889295","28","green","0"
"100","70","19","733.078730302","1","0","3","186","2","left","in","Female","Right-handed","1","2","no","left","d","756.091154524","719.967890146","28","red","3"
"100","71","19","738.25197103","1","1","3","187","0","right","in","Female","Right-handed","1","2","no","right","s","938.610270664","920.713485304","28","red","2"
"100","71","19","733.927224343","1","1","3","188","1","left","out","Female","Right-handed","1","2","no","left","d","651.095589995","488.078110458","28","green","3"
"100","72","19","756.563172897","1","1","3","189","3","left","out","Female","Right-handed","1","2","no","left","s","1053.82762153","2224.90271151","28","red","0"
"100","73","19","752.163863006","1","1","3","190","1","left","in","Female","Right-handed","1","2","no","left","s","696.08819113","456.294743567","28","green","3"
"100","73","19","749.849470745","1","1","3","191","1","right","out","Female","Right-handed","1","2","no","right","d","789.912656837","520.006119216","28","green","2"
"100","74","19","753.259950116","1","1","3","192","1","right","in","Female","Right-handed","1","2","no","right","d","896.537767563","896.462399849","28","green","1"
"100","72","19","757.084135093","1","0","3","193","1","left","out","Female","Right-handed","1","2","no","left","d","795.084806318","1047.96337193","28","green","0"
"100","73","19","754.841425973","1","1","3","194","3","right","in","Female","Right-handed","1","2","no","right","s","615.643900058","696.680549292","28","green","1"
"100","73","19","756.523738013","1","1","3","195","0","left","out","Female","Right-handed","1","2","no","left","d","912.331633337","752.123926332","28","red","1"
"100","74","19","751.597345179","1","1","3","196","0","left","out","Female","Right-handed","1","2","no","left","s","554.018446168","495.948103396","28","red","1"
"100","75","19","752.960394373","1","1","3","197","1","left","out","Female","Right-handed","1","2","no","left","d","841.584761739","792.462651289","28","green","0"
"100","75","19","748.637006141","1","1","3","198","1","right","out","Female","Right-handed","1","2","no","right","d","602.097595738","480.131146237","28","green","1"
"100","76","19","745.738991663","1","1","3","199","3","right","in","Female","Right-handed","1","2","no","right","d","655.827720309","551.64484424","28","red","3"
"100","76","19","742.789617625","1","1","3","200","2","right","out","Female","Right-handed","1","2","no","right","d","598.244541613","592.397289841","28","red","3"
"100","76","19","741.640613409","1","1","3","201","1","left","out","Female","Right-handed","1","2","no","left","d","798.012922195","568.069874531","28","green","0"
"100","77","19","739.904683774","1","1","3","202","3","left","in","Female","Right-handed","1","2","no","left","s","938.622778496","360.649907026","28","green","3"
"100","75","19","741.18579036","1","0","3","203","0","left","in","Female","Right-handed","1","2","no","left","s","754.030569145","864.138309697","28","red","2"
"100","76","19","739.432038235","1","1","3","204","3","left","out","Female","Right-handed","1","2","no","left","s","601.680988671","687.777858313","28","red","2"
"100","75","19","743.771110405","1","0","3","205","2","right","in","Female","Right-handed","1","2","no","right","s","1116.43606284","848.404096668","28","green","0"
"100","75","19","745.937936209","1","1","3","206","2","right","in","Female","Right-handed","1","2","no","right","s","590.784420756","1143.77594173","28","red","0"
"100","74","19","745.397957788","1","0","3","207","1","left","in","Female","Right-handed","1","2","no","left","d","708.60724954","720.631126032","28","red","1"
"100","74","19","744.732848605","1","1","3","208","3","right","in","Female","Right-handed","1","2","no","right","s","860.142217273","552.17081467","28","green","3"
"100","75","19","742.65817171","1","1","3","209","1","right","in","Female","Right-handed","1","2","no","right","d","688.761166449","551.743303338","28","green","1"
"100","73","19","742.946607177","1","0","3","210","1","left","in","Female","Right-handed","1","2","no","left","d","680.255519002","840.249951412","28","green","1"
"100","72","19","760.606407388","1","0","3","211","3","left","out","Female","Right-handed","1","2","no","left","d","851.917515008","2823.79092547","28","green","0"
"100","73","19","766.435934556","1","1","3","212","0","left","out","Female","Right-handed","1","2","no","left","d","831.384142504","1424.34909556","28","green","3"
"100","71","19","767.496707573","1","0","3","213","3","right","out","Female","Right-handed","1","2","no","right","d","916.820021257","751.83079403","28","red","0"
"100","0","19","942.309542579","1","0","4","214","1","left","in","Female","Right-handed","1","2","no","left","d","1379.74487868","504.874206474","28","green","3"
"100","0","19","934.337803226","1","0","4","215","1","left","in","Female","Right-handed","1","2","no","left","s","916.237605218","936.494522531","28","red","3"
"100","33","19","868.542884443","1","1","4","216","3","left","out","Female","Right-handed","1","2","no","left","d","809.004421358","664.901672393","28","green","3"
"100","50","19","814.711841967","1","1","4","217","0","left","in","Female","Right-handed","1","2","no","left","d","761.707492448","544.729936633","28","red","0"
"100","60","19","767.820166861","1","1","4","218","2","left","out","Female","Right-handed","1","2","no","left","d","648.26368822","512.243244648","28","green","0"
"100","66","19","780.79995185","1","1","4","219","1","right","out","Female","Right-handed","1","2","no","right","d","682.715713623","1008.68203997","28","green","1"
"100","71","19","784.101874791","1","1","4","220","1","right","out","Female","Right-handed","1","2","no","right","s","703.432855064","904.393969813","28","green","1"
"100","75","19","757.403975919","1","1","4","221","3","right","out","Female","Right-handed","1","2","no","right","s","635.992862196","505.044505438","28","green","1"
"100","77","19","766.698973224","1","1","4","222","0","right","out","Female","Right-handed","1","2","no","right","d","1009.50595341","672.61194992","28","green","3"
"100","80","19","752.743513085","1","1","4","223","0","left","out","Female","Right-handed","1","2","no","left","s","782.055171732","472.233571922","28","red","0"
"100","81","19","750.792789633","1","1","4","224","3","left","in","Female","Right-handed","1","2","no","left","d","877.677237603","584.893872637","28","green","3"
"100","83","19","765.186540972","1","1","4","225","1","right","out","Female","Right-handed","1","2","no","right","d","846.484625307","1000.5509861","28","red","1"
"100","84","19","755.831401116","1","1","4","226","3","left","out","Female","Right-handed","1","2","no","left","s","727.075546672","560.063898993","28","red","1"
"100","78","19","770.454980917","1","0","4","227","1","right","in","Female","Right-handed","1","2","no","right","d","1184.60311362","736.519923054","28","green","0"
"100","73","19","770.102226416","1","0","4","228","1","right","out","Female","Right-handed","1","2","no","right","s","626.164912256","904.162414538","28","green","2"
"100","68","19","770.606004129","1","0","4","229","0","left","in","Female","Right-handed","1","2","no","left","s","667.668790005","888.656549647","28","red","0"
"100","64","19","770.211083555","1","0","4","230","0","left","in","Female","Right-handed","1","2","no","left","d","887.408011299","640.376697457","28","green","2"
"100","66","19","766.168414806","1","1","4","231","0","right","in","Female","Right-handed","1","2","no","right","s","747.018806009","647.867286114","28","red","1"
"100","68","19","759.208618069","1","1","4","232","1","right","out","Female","Right-handed","1","2","no","right","d","675.383236809","592.481316824","28","red","0"
"100","70","19","759.15380979","1","1","4","233","0","right","out","Female","Right-handed","1","2","no","right","d","708.09539051","808.129514446","28","red","3"
"100","71","19","754.321067012","1","1","4","234","2","right","in","Female","Right-handed","1","2","no","right","d","690.597572968","624.734849967","28","green","2"
"100","72","19","771.638136367","1","1","4","235","0","left","out","Female","Right-handed","1","2","no","left","s","1342.25826046","928.334925143","28","red","0"
"100","73","19","771.6269922","1","1","4","236","1","right","out","Female","Right-handed","1","2","no","right","d","806.907916048","735.855725028","28","red","1"
"100","75","19","774.052837632","1","1","4","237","2","left","in","Female","Right-handed","1","2","no","left","s","1019.4031775","640.291387619","28","red","3"
"100","76","19","783.491462281","1","1","4","238","1","left","out","Female","Right-handed","1","2","no","left","s","716.103931757","1303.93297597","28","green","0"
"100","76","19","776.072338253","1","1","4","239","2","left","in","Female","Right-handed","1","2","no","left","d","660.553757065","520.634718025","28","green","0"
"100","77","19","769.207839116","1","1","4","240","2","right","out","Female","Right-handed","1","2","no","right","s","677.245621137","504.216102007","28","red","1"
"100","78","19","770.069603344","1","1","4","241","3","right","out","Female","Right-handed","1","2","no","right","d","690.840032507","895.834442468","28","green","0"
"100","75","19","806.730251729","1","0","4","242","3","right","in","Female","Right-handed","1","2","no","right","None","666.378879593","3000.07793342","28","red","2"
"100","73","19","806.868131516","1","0","4","243","1","right","in","Female","Right-handed","1","2","no","right","s","853.875151296","767.85813936","28","green","1"
"100","74","19","826.5911128","1","1","4","244","2","left","out","Female","Right-handed","1","2","no","left","d","1948.24611311","888.31498958","28","red","3"
"100","75","19","824.649460952","1","1","4","245","2","left","out","Female","Right-handed","1","2","no","left","d","720.979100373","807.937406953","28","green","1"
"100","75","19","820.449181275","1","1","4","246","3","left","out","Female","Right-handed","1","2","no","left","s","715.584054886","656.496408327","28","green","2"
"100","76","19","813.805981469","1","1","4","247","0","right","in","Female","Right-handed","1","2","no","right","s","645.022555794","544.138219898","28","red","1"
"100","77","19","810.94587077","1","1","4","248","1","left","out","Female","Right-handed","1","2","no","left","s","835.758997783","591.645216266","28","green","3"
"100","77","19","809.482440641","1","1","4","249","3","right","out","Female","Right-handed","1","2","no","right","d","764.159989942","752.364782303","28","green","0"
"100","78","19","811.804789177","1","1","4","250","0","left","out","Female","Right-handed","1","2","no","left","s","654.963076234","1135.85559674","28","red","1"
"100","78","19","804.929538867","1","1","4","251","0","left","out","Female","Right-handed","1","2","no","left","s","644.451364733","456.639190057","28","red","3"
"100","79","19","801.666253933","1","1","4","252","2","right","in","Female","Right-handed","1","2","no","right","s","771.149303121","584.173549717","28","green","1"
"100","80","19","795.793643679","1","1","4","253","1","left","in","Female","Right-handed","1","2","no","left","d","589.744025586","543.779662007","28","red","0"
"100","80","19","793.052924813","1","1","4","254","2","left","out","Female","Right-handed","1","2","no","left","d","654.400544444","712.447795831","28","green","1"
"100","80","19","790.160507422","1","1","4","255","1","right","in","Female","Right-handed","1","2","no","right","s","679.124041147","664.018747639","28","red","3"
"100","81","19","786.718397087","1","1","4","256","1","left","in","Female","Right-handed","1","2","no","left","d","556.700253941","727.599272108","28","green","2"
"100","81","19","781.547540292","1","1","4","257","3","right","out","Female","Right-handed","1","2","no","right","s","534.218866559","584.1825297","28","red","3"
"100","82","19","783.673033261","1","1","4","258","1","right","in","Female","Right-handed","1","2","no","right","d","834.656704872","919.732742878","28","red","1"
"100","82","19","779.711905134","1","1","4","259","3","right","in","Female","Right-handed","1","2","no","right","s","778.399035807","424.523243082","28","green","1"
"100","82","19","776.879890176","1","1","4","260","0","left","in","Female","Right-handed","1","2","no","left","d","589.097787524","704.116616624","28","green","1"
"100","83","19","773.010070516","1","1","4","261","2","right","in","Female","Right-handed","1","2","no","right","s","614.529740741","567.727352323","28","red","1"
"100","83","19","773.037959789","1","1","4","262","2","right","in","Female","Right-handed","1","2","no","right","s","996.378180437","552.375109283","28","red","3"
"100","82","19","771.956488134","1","0","4","263","0","left","in","Female","Right-handed","1","2","no","left","s","709.950077709","727.978676389","28","green","1"
"100","82","19","775.131881552","1","1","4","264","3","right","in","Female","Right-handed","1","2","no","right","d","988.343661382","879.459443511","28","green","0"
"100","82","19","771.553501036","1","1","4","265","3","left","out","Female","Right-handed","1","2","no","left","s","673.998395148","504.113794344","28","red","1"
"100","83","19","769.301850134","1","1","4","266","2","right","out","Female","Right-handed","1","2","no","right","d","712.71976103","591.712245426","28","red","2"
"100","83","19","765.922050279","1","1","4","267","0","right","in","Female","Right-handed","1","2","no","right","d","613.246886031","560.338429902","28","red","3"
"100","83","19","764.121699645","1","1","4","268","0","left","in","Female","Right-handed","1","2","no","left","s","877.844329429","455.961201343","28","red","1"
"100","82","19","760.922505633","1","0","4","269","2","right","out","Female","Right-handed","1","2","no","right","d","586.467614654","583.466055343","28","green","1"
"100","82","19","757.328321603","1","1","4","270","0","right","in","Female","Right-handed","1","2","no","right","s","720.141396247","391.966635515","28","green","2"
"100","82","19","759.318114725","1","1","4","271","2","left","out","Female","Right-handed","1","2","no","left","s","1089.72574491","655.746900462","28","green","3"
"100","83","19","756.986845314","1","1","4","272","2","left","in","Female","Right-handed","1","2","no","left","s","724.26994342","519.2764956","28","red","0"
"100","83","19","755.970683777","1","1","4","273","3","left","in","Female","Right-handed","1","2","no","left","d","727.979317816","664.054988284","28","green","1"
"100","81","19","752.998181301","1","0","4","274","3","left","in","Female","Right-handed","1","2","no","left","d","621.65503652","527.64102903","28","red","3"
"100","82","19","751.445205665","1","1","4","275","2","left","out","Female","Right-handed","1","2","no","left","s","609.17702946","704.250354228","28","red","0"
"100","82","19","749.64809819","1","1","4","276","3","right","in","Female","Right-handed","1","2","no","right","s","604.765612823","671.689256669","28","green","0"
"100","82","19","746.277118045","1","1","4","277","3","right","out","Female","Right-handed","1","2","no","right","d","588.383558164","479.427179715","28","red","1"
"100","0","19","523.056266649","1","0","5","278","1","right","out","Female","Right-handed","1","2","no","right","d","606.048467535","440.064065764","28","green","1"
"100","0","19","785.275056879","1","0","5","279","1","left","in","Female","Right-handed","1","2","no","left","d","1422.6008853","672.386808919","28","green","3"
"100","33","19","719.598374538","1","1","5","280","1","right","out","Female","Right-handed","1","2","no","right","d","624.212407387","552.277612325","28","green","0"
"100","50","19","725.026066005","1","1","5","281","2","right","in","Female","Right-handed","1","2","no","right","d","705.867392591","776.750888217","28","green","1"
"100","60","19","673.076054684","1","1","5","282","3","right","out","Female","Right-handed","1","2","no","right","d","498.327478172","432.224540627","28","green","3"
"100","66","19","648.135723463","1","1","5","283","2","right","out","Female","Right-handed","1","2","no","right","d","526.919743967","519.948390755","28","red","2"
"100","71","19","648.422830929","1","1","5","284","3","right","in","Female","Right-handed","1","2","no","right","d","787.635910438","512.65504101","28","red","1"
"100","75","19","655.223956767","1","1","5","285","3","left","in","Female","Right-handed","1","2","no","left","d","605.291583255","800.37209201","28","green","1"
"100","77","19","662.581059491","1","1","5","286","2","right","out","Female","Right-handed","1","2","no","right","s","570.891192752","871.984569823","28","green","0"
"100","80","19","651.112523677","1","1","5","287","1","left","in","Female","Right-handed","1","2","no","left","d","623.516779418","472.274623272","28","red","3"
"100","81","19","657.70586334","1","1","5","288","3","right","out","Female","Right-handed","1","2","no","right","s","583.220709379","864.057810564","28","green","1"
"100","83","19","646.872111572","1","1","5","289","0","right","out","Female","Right-handed","1","2","no","right","s","526.697810103","528.703874157","28","green","0"
"100","84","19","642.440452968","1","1","5","290","2","right","in","Female","Right-handed","1","2","no","right","s","538.196036876","640.325062555","28","green","1"
"100","85","19","635.331080977","1","1","5","291","0","right","out","Female","Right-handed","1","2","no","right","d","517.911858902","567.906631269","28","red","3"
"100","86","19","633.18107986","1","1","5","292","0","right","in","Female","Right-handed","1","2","no","right","s","581.519002606","624.643125855","28","red","1"
"100","87","19","640.987436523","1","1","5","293","2","left","out","Female","Right-handed","1","2","no","left","d","956.113861051","560.051711875","28","green","3"
"100","88","19","634.442739799","1","1","5","294","2","right","out","Female","Right-handed","1","2","no","right","s","523.617355229","535.837829204","28","red","3"
"100","83","19","632.497537454","1","0","5","295","3","left","in","Female","Right-handed","1","2","no","left","s","702.423248407","496.434946759","28","red","1"
"100","84","19","633.549547242","1","1","5","296","2","left","out","Female","Right-handed","1","2","no","left","s","561.046565703","743.924881161","28","red","0"
"100","85","19","629.974501659","1","1","5","297","0","left","in","Female","Right-handed","1","2","no","left","s","700.561826221","423.535444956","28","red","1"
"100","85","19","628.91405463","1","1","5","298","0","left","out","Female","Right-handed","1","2","no","left","s","759.13857589","456.271652182","28","red","1"
"100","86","19","625.047392735","1","1","5","299","3","right","in","Female","Right-handed","1","2","no","right","d","559.742223175","527.952762724","28","red","2"
"100","86","19","629.560789033","1","1","5","300","1","left","out","Female","Right-handed","1","2","no","left","s","937.412405076","520.298610092","28","green","3"
"100","87","19","629.520499377","1","1","5","301","3","left","out","Female","Right-handed","1","2","no","left","s","769.082303469","488.105371119","28","green","3"
"100","84","19","632.686618478","1","0","5","302","1","left","in","Female","Right-handed","1","2","no","left","d","737.642100212","679.704853616","28","green","1"
"100","84","19","641.109614557","1","1","5","303","0","left","out","Female","Right-handed","1","2","no","left","d","703.02875583","1000.34027721","28","red","2"
"100","85","19","645.005979647","1","1","5","304","2","left","out","Female","Right-handed","1","2","no","left","d","836.798751527","655.82419246","28","red","3"
"100","82","19","669.645594663","1","0","5","305","1","left","in","Female","Right-handed","1","2","no","left","d","861.408074159","1808.42232603","28","red","0"
"100","82","19","668.206582606","1","1","5","306","3","left","out","Female","Right-handed","1","2","no","left","s","623.926010072","631.90247995","28","red","0"
"100","83","19","665.130971983","1","1","5","307","2","left","in","Female","Right-handed","1","2","no","left","s","624.368594947","527.507932853","28","red","1"
"100","83","19","664.490041561","1","1","5","308","0","right","out","Female","Right-handed","1","2","no","right","d","642.244533918","648.279723904","28","green","1"
"100","84","19","700.966060756","1","1","5","309","2","right","out","Female","Right-handed","1","2","no","right","s","783.787987733","2879.65732385","28","red","1"
"100","84","19","697.913848881","1","1","5","310","2","left","in","Female","Right-handed","1","2","no","left","d","632.192405115","568.293732676","28","green","1"
"100","85","19","696.57502506","1","1","5","311","3","right","in","Female","Right-handed","1","2","no","right","d","696.880995342","607.906682584","28","red","0"
"100","82","19","695.485418936","1","0","5","312","0","left","out","Female","Right-handed","1","2","no","left","s","693.500031752","623.377589682","28","red","0"
"100","83","19","694.56965641","1","1","5","313","0","left","in","Female","Right-handed","1","2","no","left","s","661.023923316","664.012012652","28","red","1"
"100","83","19","696.517241021","1","1","5","314","1","right","in","Female","Right-handed","1","2","no","right","d","653.616720215","879.643853875","28","green","1"
"100","81","19","717.441223395","1","0","5","315","2","right","out","Female","Right-handed","1","2","no","right","s","824.120939844","2159.13620261","28","red","3"
"100","82","19","719.922854545","1","1","5","316","0","right","in","Female","Right-handed","1","2","no","right","s","1180.70131101","447.748365483","28","green","3"
"100","82","19","717.159224078","1","1","5","317","2","right","in","Female","Right-handed","1","2","no","right","s","755.336835955","463.418435776","28","green","0"
"100","82","19","716.265723985","1","1","5","318","1","left","in","Female","Right-handed","1","2","no","left","d","713.024759738","648.026680812","28","red","2"
"100","80","19","710.928204792","1","0","5","319","1","right","in","Female","Right-handed","1","2","no","right","d","480.565071843","503.614763862","28","red","2"
"100","81","19","720.757017338","1","1","5","320","3","right","in","Female","Right-handed","1","2","no","right","s","1331.14681438","935.987474205","28","red","0"
"100","81","19","719.744137689","1","1","5","321","3","left","out","Female","Right-handed","1","2","no","left","s","744.713836806","607.66678875","28","green","3"
"100","82","19","717.178636164","1","1","5","322","0","left","in","Female","Right-handed","1","2","no","left","d","705.342063588","503.251074552","28","green","1"
"100","82","19","718.250952959","1","1","5","323","2","right","out","Female","Right-handed","1","2","no","right","d","956.98652297","576.023894451","28","red","1"
"100","82","19","720.917284517","1","1","5","324","0","left","in","Female","Right-handed","1","2","no","left","d","1135.5637473","551.573325089","28","red","3"
"100","83","19","724.243948908","1","1","5","325","1","left","in","Female","Right-handed","1","2","no","left","d","929.064869471","832.12948109","28","green","1"
"100","83","19","727.082010035","1","1","5","326","1","right","in","Female","Right-handed","1","2","no","right","d","854.818370223","871.799518031","28","green","0"
"100","84","19","731.284249815","1","1","5","327","0","right","out","Female","Right-handed","1","2","no","right","s","763.223506003","1111.16449212","28","red","0"
"100","84","19","738.470774048","1","1","5","328","1","right","in","Female","Right-handed","1","2","no","right","d","731.862198312","1463.73177304","28","green","1"
"100","84","19","744.075687515","1","1","5","329","0","left","out","Female","Right-handed","1","2","no","left","d","860.383073244","1199.46947543","28","green","2"
"100","84","19","743.027052296","1","1","5","330","0","left","in","Female","Right-handed","1","2","no","left","d","848.980098433","528.015943319","28","green","3"
"100","83","19","740.899856299","1","0","5","331","3","left","out","Female","Right-handed","1","2","no","left","s","688.601130323","567.71580663","28","green","1"
"100","83","19","738.405833187","1","1","5","332","0","right","in","Female","Right-handed","1","2","no","right","d","568.203612134","639.253558158","28","green","0"
"100","82","19","735.127089324","1","0","5","333","3","left","out","Female","Right-handed","1","2","no","left","d","525.849201713","583.743151959","28","red","1"
"100","82","19","734.92070962","1","1","5","334","3","right","out","Female","Right-handed","1","2","no","right","s","887.315325046","559.411567372","28","green","3"
"100","82","19","732.069252169","1","1","5","335","2","right","in","Female","Right-handed","1","2","no","right","d","588.029810977","551.042543954","28","red","0"
"100","83","19","732.137783771","1","1","5","336","3","right","out","Female","Right-handed","1","2","no","right","s","632.518250212","839.706983156","28","red","0"
"100","81","19","729.597925004","1","0","5","337","1","left","in","Female","Right-handed","1","2","no","left","d","648.24348326","511.249032246","28","green","1"
"100","81","19","729.264086294","1","1","5","338","1","left","out","Female","Right-handed","1","2","no","left","d","738.806932291","679.660595129","28","red","3"
"100","82","19","728.703142723","1","1","5","339","3","left","out","Female","Right-handed","1","2","no","left","s","709.373113801","679.598055962","28","green","2"
"100","82","19","729.198953753","1","1","5","340","1","right","in","Female","Right-handed","1","2","no","right","s","584.828447047","935.050028127","28","red","0"
"100","81","19","728.533190338","1","0","5","341","2","left","out","Female","Right-handed","1","2","no","left","d","701.613125655","671.567064759","28","green","2"
"100","100","19","562.686214379","1","1","6","342","2","right","out","Female","Right-handed","1","2","no","right","d","653.609023086","471.763405673","28","green","2"
"100","100","19","672.260688265","1","1","6","343","1","right","in","Female","Right-handed","1","2","no","right","s","803.329072118","760.341252182","28","green","1"
"100","100","19","720.289619418","1","1","6","344","2","left","in","Female","Right-handed","1","2","no","left","s","1064.90699624","567.787967208","28","red","0"
"100","100","19","713.972308298","1","1","6","345","3","right","in","Female","Right-handed","1","2","no","right","s","686.577427015","703.463322862","28","green","1"
"100","100","19","695.405744495","1","1","6","346","0","left","out","Female","Right-handed","1","2","no","left","d","618.164709566","624.114269","28","red","1"
"100","83","19","688.701139538","1","0","6","347","1","left","out","Female","Right-handed","1","2","no","left","d","630.680560838","679.675668673","28","green","1"
"100","85","19","681.36782276","1","1","6","348","1","right","in","Female","Right-handed","1","2","no","right","d","690.37628053","584.359563649","28","red","0"
"100","87","19","672.787159811","1","1","6","349","2","right","out","Female","Right-handed","1","2","no","right","s","553.753857383","671.691180953","28","red","1"
"100","88","19","664.093295751","1","1","6","350","0","left","in","Female","Right-handed","1","2","no","left","d","661.484147444","527.600619107","28","green","3"
"100","90","19","655.099700261","1","1","6","351","1","right","out","Female","Right-handed","1","2","no","right","s","548.215452883","600.099228811","28","red","1"
"100","90","19","648.17167255","1","1","6","352","2","left","in","Female","Right-handed","1","2","no","left","s","565.894794369","591.887996521","28","red","3"
"100","91","19","644.06934129","1","1","6","353","0","right","in","Female","Right-handed","1","2","no","right","s","478.435853736","719.451541125","28","red","2"
"100","84","19","643.333023803","1","0","6","354","3","left","in","Female","Right-handed","1","2","no","left","d","533.066542315","735.927885604","28","green","2"
"100","85","19","692.381096091","1","1","6","355","3","left","out","Female","Right-handed","1","2","no","left","s","668.505852704","1991.50621896","28","red","3"
"100","86","19","687.09172347","1","1","6","356","1","right","out","Female","Right-handed","1","2","no","right","s","562.137633635","663.943379925","28","red","3"
"100","87","19","679.816602289","1","1","6","357","2","right","out","Female","Right-handed","1","2","no","right","d","637.661856175","503.717712953","28","red","0"
"100","88","19","683.345934865","1","1","6","358","3","right","in","Female","Right-handed","1","2","no","right","s","952.287426163","527.343086022","28","red","3"
"100","83","19","685.802030431","1","0","6","359","0","right","in","Female","Right-handed","1","2","no","right","s","719.058346156","736.052963939","28","green","3"
"100","84","19","697.236025383","1","1","6","360","1","left","in","Female","Right-handed","1","2","no","left","d","758.579251236","1047.51661778","28","green","0"
"100","85","19","693.807844721","1","1","6","361","2","right","in","Female","Right-handed","1","2","no","right","s","753.182922896","504.161901395","28","green","1"
"100","85","19","689.685371635","1","1","6","362","3","right","in","Female","Right-handed","1","2","no","right","s","558.816964214","655.654855636","28","green","0"
"100","86","19","680.468443728","1","1","6","363","3","right","in","Female","Right-handed","1","2","no","right","s","518.402871543","455.423043792","28","green","3"
"100","82","19","688.081434725","1","0","6","364","0","left","in","Female","Right-handed","1","2","no","left","s","847.079549179","864.054924141","28","red","3"
"100","83","19","693.831302254","1","1","6","365","2","left","out","Female","Right-handed","1","2","no","left","d","612.568897315","1039.58761352","28","red","0"
"100","84","19","710.645442691","1","1","6","366","2","right","out","Female","Right-handed","1","2","no","right","d","741.20843631","1487.16119005","28","green","1"
"100","80","19","702.019186178","1","0","6","367","0","left","in","Female","Right-handed","1","2","no","left","s","604.785497071","367.940049633","28","green","1"
"100","81","19","698.287746497","1","1","6","368","2","right","out","Female","Right-handed","1","2","no","right","s","507.290463322","695.250166289","28","green","3"
"100","78","19","698.917876544","1","0","6","369","0","left","in","Female","Right-handed","1","2","no","left","d","799.887172929","631.975602668","28","red","1"
"100","79","19","700.492353003","1","1","6","370","3","right","in","Female","Right-handed","1","2","no","right","d","521.55163843","967.603749271","28","green","0"
"100","80","19","695.913797722","1","1","6","371","3","left","out","Female","Right-handed","1","2","no","left","d","599.164027728","527.107361469","28","green","1"
"100","80","19","697.924287281","1","1","6","372","1","left","out","Female","Right-handed","1","2","no","left","d","724.740751098","791.737196949","28","red","2"
"100","78","19","702.297839336","1","0","6","373","0","right","out","Female","Right-handed","1","2","no","right","d","788.421338235","887.334567867","28","red","0"
"100","78","19","710.740797281","1","1","6","374","2","right","out","Female","Right-handed","1","2","no","right","d","801.965397561","1159.86550551","28","red","3"
"100","79","19","707.041930974","1","1","6","375","0","left","out","Female","Right-handed","1","2","no","left","d","554.420941833","615.537743832","28","green","2"
"100","80","19","706.302032931","1","1","6","376","1","right","in","Female","Right-handed","1","2","no","right","d","659.137485463","703.15351345","28","red","1"
"100","77","19","718.647266946","1","0","6","377","3","left","out","Female","Right-handed","1","2","no","left","s","805.753988236","1495.70692671","28","red","3"
"100","75","19","722.542189494","1","0","6","378","0","right","in","Female","Right-handed","1","2","no","right","d","654.231528337","1071.28727414","28","red","0"
"100","76","19","719.813361013","1","1","6","379","1","left","in","Female","Right-handed","1","2","no","left","s","797.924725934","439.768688467","28","green","3"
"100","76","19","717.852581968","1","1","6","380","3","right","out","Female","Right-handed","1","2","no","right","d","695.362736791","591.323219735","28","red","1"
"100","77","19","711.694066572","1","1","6","381","2","left","in","Female","Right-handed","1","2","no","left","s","488.045397662","454.978534634","28","red","2"
"100","78","19","706.414350213","1","1","6","382","0","right","out","Female","Right-handed","1","2","no","right","s","622.730389481","367.72100219","28","green","1"
"100","78","19","704.590066373","1","1","6","383","2","left","out","Female","Right-handed","1","2","no","left","s","836.373805903","423.215051991","28","green","0"
"100","79","19","701.934514324","1","1","6","384","0","right","in","Female","Right-handed","1","2","no","right","s","692.806328067","487.996328469","28","red","3"
"100","79","19","697.869737387","1","1","6","385","0","right","out","Female","Right-handed","1","2","no","right","s","670.557778814","375.610879377","28","green","0"
"100","80","19","693.821860799","1","1","6","386","1","left","out","Female","Right-handed","1","2","no","left","d","552.10891693","479.321664914","28","green","3"
"100","80","19","691.515832003","1","1","6","387","1","right","out","Female","Right-handed","1","2","no","right","d","687.646044991","487.843027333","28","green","0"
"100","78","19","693.618177211","1","0","6","388","1","left","in","Female","Right-handed","1","2","no","left","s","949.310241092","631.341872442","28","green","3"
"100","79","19","692.573904191","1","1","6","389","0","left","in","Female","Right-handed","1","2","no","left","d","631.95732199","655.028822537","28","red","0"
"100","77","19","690.566048122","1","0","6","390","3","left","out","Female","Right-handed","1","2","no","left","s","556.688708248","631.689205356","28","red","0"
"100","78","19","690.168592766","1","1","6","391","3","right","in","Female","Right-handed","1","2","no","right","d","814.152517314","527.234043371","28","green","1"
"100","78","19","688.320185142","1","1","6","392","2","right","in","Female","Right-handed","1","2","no","right","s","648.8845899","542.915017932","28","red","3"
"100","78","19","706.36004889","1","1","6","393","1","right","out","Female","Right-handed","1","2","no","right","s","957.436484259","2295.34971581","28","red","1"
"100","77","19","702.512500602","1","0","6","394","0","right","in","Female","Right-handed","1","2","no","right","s","637.933500661","366.94647866","28","red","1"
"100","77","19","705.18758353","1","1","6","395","1","left","out","Female","Right-handed","1","2","no","left","d","846.531770217","847.402187139","28","red","0"
"100","78","19","720.659602491","1","1","6","396","2","left","out","Female","Right-handed","1","2","no","left","s","553.127503572","2559.16974926","28","green","1"
"100","76","19","719.569824339","1","0","6","397","2","left","in","Female","Right-handed","1","2","no","left","s","543.712312134","775.551739777","28","red","1"
"100","75","19","716.193320848","1","0","6","398","1","left","in","Female","Right-handed","1","2","no","left","d","599.036062969","455.182187818","28","green","1"
"100","75","19","712.979646935","1","1","6","399","2","left","in","Female","Right-handed","1","2","no","left","d","564.818158553","494.782309177","28","red","1"
"100","76","19","709.454569641","1","1","6","400","3","left","out","Female","Right-handed","1","2","no","left","s","634.4688308","375.531342384","28","red","2"
"100","76","19","707.815610589","1","1","6","401","1","left","in","Female","Right-handed","1","2","no","left","d","423.075541541","799.158511452","28","green","2"
"100","77","19","709.772812424","1","1","6","402","3","right","out","Female","Right-handed","1","2","no","right","s","591.716735418","1062.69310972","28","green","1"
"100","77","19","707.257681212","1","1","6","403","0","right","out","Female","Right-handed","1","2","no","right","d","516.38397894","591.28537552","28","green","1"
"100","76","19","704.29178229","1","0","6","404","3","left","out","Female","Right-handed","1","2","no","left","s","609.948666568","430.863431776","28","green","1"
"100","75","19","702.936435391","1","0","6","405","3","left","out","Female","Right-handed","1","2","no","left","d","691.628346727","543.470814735","28","green","0"
"100","100","19","539.679818707","1","1","7","406","0","left","out","Female","Right-handed","1","2","no","left","s","607.602004589","471.757632826","28","red","3"
"100","100","19","501.567488101","1","1","7","407","2","right","out","Female","Right-handed","1","2","no","right","d","455.396103844","471.514211145","28","green","3"
"100","100","19","516.078338806","1","1","7","408","3","left","out","Female","Right-handed","1","2","no","left","s","674.063179311","416.136901122","28","green","0"
"100","100","19","532.218214549","1","1","7","409","0","right","in","Female","Right-handed","1","2","no","right","d","617.592877077","543.682806476","28","red","1"
"100","100","19","549.731883366","1","1","7","410","3","right","in","Female","Right-handed","1","2","no","right","d","528.319338459","711.253778809","28","green","3"
"100","100","19","608.430220935","1","1","7","411","1","left","out","Female","Right-handed","1","2","no","left","d","643.916093604","1159.92772397","28","red","1"
"100","85","19","645.09034092","1","0","7","412","0","left","out","Female","Right-handed","1","2","no","left","s","962.556998838","767.545122812","28","red","3"
"100","87","19","685.154801276","1","1","7","413","3","right","out","Female","Right-handed","1","2","no","right","s","580.113314558","1351.09873299","28","red","1"
"100","88","19","702.645592072","1","1","7","414","1","right","in","Female","Right-handed","1","2","no","right","s","709.66047326","975.48336362","28","red","0"
"100","90","19","690.300543995","1","1","7","415","0","right","in","Female","Right-handed","1","2","no","right","s","623.029294627","535.360927966","28","green","3"
"100","90","19","685.480819485","1","1","7","416","1","left","in","Female","Right-handed","1","2","no","left","d","714.859241973","559.70790681","28","green","2"
"100","83","19","686.015429749","1","0","7","417","1","left","out","Female","Right-handed","1","2","no","left","s","816.374421672","567.417863622","28","red","1"
"100","76","19","688.745833868","1","0","7","418","0","right","out","Female","Right-handed","1","2","no","right","s","595.916160313","847.105206274","28","red","1"
"100","78","19","714.274729842","1","1","7","419","3","left","in","Female","Right-handed","1","2","no","left","d","644.667205038","1447.63354999","28","green","1"
"100","73","19","705.502003498","1","0","7","420","2","left","out","Female","Right-handed","1","2","no","left","d","670.188958084","495.178711282","28","red","2"
"100","75","19","692.832446186","1","1","7","421","0","right","in","Female","Right-handed","1","2","no","right","s","573.728225947","431.84994705","28","red","0"
"100","76","19","697.600035407","1","1","7","422","0","right","out","Female","Right-handed","1","2","no","right","s","732.409015133","815.35391075","28","red","0"
"100","77","19","699.959062681","1","1","7","423","0","left","in","Female","Right-handed","1","2","no","left","s","713.035343289","767.089709388","28","green","1"
"100","78","19","698.860035048","1","1","7","424","2","left","in","Female","Right-handed","1","2","no","left","d","790.568837021","567.586238303","28","green","1"
"100","80","19","706.725309697","1","1","7","425","1","right","out","Female","Right-handed","1","2","no","right","d","1233.14409088","479.186965169","28","red","3"
"100","80","19","710.254984784","1","1","7","426","2","left","out","Female","Right-handed","1","2","no","left","d","657.824483666","903.872489373","28","green","1"
"100","81","19","707.964714265","1","1","7","427","0","right","out","Female","Right-handed","1","2","no","right","s","640.350078222","679.387988503","28","red","0"
"100","82","19","701.637214042","1","1","7","428","0","left","in","Female","Right-handed","1","2","no","left","s","597.844611657","527.019806634","28","green","1"
"100","79","19","711.759791495","1","0","7","429","3","left","in","Female","Right-handed","1","2","no","left","s","953.455465378","935.702680461","28","red","3"
"100","80","19","731.177185968","1","1","7","430","0","left","in","Female","Right-handed","1","2","no","left","s","635.239505768","1759.14980087","28","red","1"
"100","80","19","730.505752148","1","1","7","431","3","right","out","Female","Right-handed","1","2","no","right","d","747.642594111","679.797219156","28","green","1"
"100","81","19","737.556380574","1","1","7","432","3","left","out","Female","Right-handed","1","2","no","left","d","754.366997793","1087.3784415","28","green","3"
"100","82","19","732.408333616","1","1","7","433","1","left","in","Female","Right-handed","1","2","no","left","s","587.936804011","598.885327541","28","green","1"
"100","79","19","734.963764994","1","0","7","434","1","right","in","Female","Right-handed","1","2","no","right","s","541.483672787","1071.54801436","28","red","1"
"100","80","19","737.482769658","1","1","7","435","2","left","in","Female","Right-handed","1","2","no","left","s","1086.00161768","535.066192097","28","green","0"
"100","80","19","739.40872047","1","1","7","436","3","left","out","Female","Right-handed","1","2","no","left","d","842.714636026","751.65985364","28","red","0"
"100","81","19","735.329068069","1","1","7","437","0","left","in","Female","Right-handed","1","2","no","left","s","658.349491958","559.37019531","28","red","2"
"100","81","19","734.636167534","1","1","7","438","1","right","in","Female","Right-handed","1","2","no","right","s","577.95619436","846.970506529","28","green","0"
"100","82","19","729.602723289","1","1","7","439","3","left","out","Female","Right-handed","1","2","no","left","s","727.485098039","399.513028351","28","green","1"
"100","82","19","725.843891609","1","1","7","440","0","right","in","Female","Right-handed","1","2","no","right","d","588.983292742","607.103936247","28","red","0"
"100","83","19","726.049797426","1","1","7","441","3","left","out","Female","Right-handed","1","2","no","left","d","915.729274039","550.783728015","28","red","3"
"100","83","19","723.314264334","1","1","7","442","3","right","out","Female","Right-handed","1","2","no","right","d","658.3199863","591.350159682","28","red","1"
"100","84","19","724.487851484","1","1","7","443","2","right","out","Female","Right-handed","1","2","no","right","d","560.952596594","974.868555501","28","green","3"
"100","84","19","720.745267208","1","1","7","444","1","right","in","Female","Right-handed","1","2","no","right","d","493.539222962","663.514906452","28","green","3"
"100","85","19","717.893714525","1","1","7","445","1","right","out","Female","Right-handed","1","2","no","right","d","590.15870837","623.207611434","28","green","3"
"100","85","19","717.646400279","1","1","7","446","0","right","out","Female","Right-handed","1","2","no","right","d","424.72882055","990.778840338","28","red","3"
"100","83","19","722.046595849","1","0","7","447","3","left","out","Female","Right-handed","1","2","no","left","d","1029.47230413","775.436924277","28","red","1"
"100","83","19","724.800131609","1","1","7","448","3","right","in","Female","Right-handed","1","2","no","right","s","1001.83801009","679.059256983","28","red","0"
"100","84","19","721.34049002","1","1","7","449","2","right","out","Female","Right-handed","1","2","no","right","d","618.621726555","526.53007685","28","green","1"
"100","84","19","720.360201371","1","1","7","450","1","right","in","Female","Right-handed","1","2","no","right","d","627.242510213","727.212491413","28","green","0"
"100","82","19","717.432749619","1","0","7","451","0","right","in","Female","Right-handed","1","2","no","right","s","588.79118525","582.603656265","28","red","1"
"100","82","19","715.258776156","1","1","7","452","2","right","out","Female","Right-handed","1","2","no","right","d","631.279974701","599.232019029","28","green","1"
"100","83","19","718.562141963","1","1","7","453","0","left","in","Female","Right-handed","1","2","no","left","s","812.795577744","934.845092086","28","red","2"
"100","83","19","714.8180859","1","1","7","454","2","right","in","Female","Right-handed","1","2","no","right","s","503.55350755","566.653282216","28","red","3"
"100","84","19","713.465548616","1","1","7","455","2","right","in","Female","Right-handed","1","2","no","right","s","655.10483168","639.277611683","28","green","0"
"100","84","19","716.450183048","1","1","7","456","1","left","out","Female","Right-handed","1","2","no","left","s","828.653586252","902.710223005","28","green","1"
"100","84","19","713.487096258","1","1","7","457","1","left","in","Female","Right-handed","1","2","no","left","s","677.449595034","447.289744923","28","red","0"
"100","84","19","710.674569907","1","1","7","458","2","left","out","Female","Right-handed","1","2","no","left","d","641.946590909","486.899808406","28","green","2"
"100","85","19","708.219569065","1","1","7","459","3","right","in","Female","Right-handed","1","2","no","right","s","757.58984954","398.619199332","28","green","2"
"100","85","19","706.256243348","1","1","7","460","3","left","in","Female","Right-handed","1","2","no","left","s","785.274816344","415.198492901","28","red","0"
"100","83","19","703.428488203","1","0","7","461","2","right","in","Female","Right-handed","1","2","no","right","s","680.927414156","414.87649637","28","green","0"
"100","82","19","702.901620989","1","0","7","462","1","left","in","Female","Right-handed","1","2","no","left","d","732.354173094","614.439940913","28","red","2"
"100","82","19","700.826204882","1","1","7","463","2","left","out","Female","Right-handed","1","2","no","left","s","781.961202625","383.093770906","28","green","1"
"100","83","19","697.178998142","1","1","7","464","2","right","out","Female","Right-handed","1","2","no","right","s","628.581169103","342.700845337","28","green","1"
"100","83","19","693.862627962","1","1","7","465","1","left","out","Female","Right-handed","1","2","no","left","d","509.180108311","487.213466382","28","green","1"
"100","83","19","695.584392003","1","1","7","466","2","right","out","Female","Right-handed","1","2","no","right","d","942.871272586","654.909196337","28","red","3"
"100","83","19","698.089956586","1","1","7","467","1","right","out","Female","Right-handed","1","2","no","right","s","927.430191858","774.428600476","28","green","3"
"100","84","19","698.44667879","1","1","7","468","2","left","in","Female","Right-handed","1","2","no","left","s","729.900392746","711.226518148","28","red","0"
"100","84","19","703.65370652","1","1","7","469","3","left","in","Female","Right-handed","1","2","no","left","s","712.655939009","1350.73696796","28","green","2"
"100","100","19","699.477332919","1","1","8","470","0","right","in","Female","Right-handed","1","2","no","right","s","559.441393745","839.513272092","28","green","0"
"100","50","19","634.576590596","1","0","8","471","1","right","out","Female","Right-handed","1","2","no","right","s","588.158737877","551.192958668","28","red","0"
"100","66","19","593.244775735","1","1","8","472","2","right","in","Female","Right-handed","1","2","no","right","s","565.539443614","455.622848412","28","green","2"
"100","50","19","600.507136521","1","0","8","473","1","left","out","Female","Right-handed","1","2","no","left","s","765.292429938","479.296007821","28","red","1"
"100","40","19","627.083724872","1","0","8","474","0","left","in","Female","Right-handed","1","2","no","left","d","891.855347869","574.924808678","28","red","3"
"100","50","19","628.988609106","1","1","8","475","2","right","out","Female","Right-handed","1","2","no","right","d","685.6367738","591.389286752","28","red","1"
"100","57","19","624.024400447","1","1","8","476","3","left","in","Female","Right-handed","1","2","no","left","d","669.230665615","519.24763137","28","red","1"
"100","62","19","624.111482801","1","1","8","477","1","right","out","Female","Right-handed","1","2","no","right","d","465.735271386","783.706847173","28","green","0"
"100","66","19","615.253644965","1","1","8","478","2","left","out","Female","Right-handed","1","2","no","left","d","521.405392994","567.376491559","28","green","0"
"100","70","19","604.679565343","1","1","8","479","1","left","in","Female","Right-handed","1","2","no","left","s","548.046757487","470.978940015","28","red","2"
"100","72","19","600.395743185","1","1","8","480","2","right","in","Female","Right-handed","1","2","no","right","d","571.562767194","543.552276009","28","green","0"
"100","66","19","623.003731076","1","0","8","481","0","left","in","Female","Right-handed","1","2","no","left","s","856.247791084","887.135404673","28","green","1"
"100","69","19","634.375083725","1","1","8","482","2","right","in","Female","Right-handed","1","2","no","right","s","614.891505769","926.771125249","28","red","3"
"100","71","19","647.586581468","1","1","8","483","2","right","out","Female","Right-handed","1","2","no","right","s","591.324181876","1047.34792239","28","green","0"
"100","73","19","644.013205706","1","1","8","484","1","right","out","Female","Right-handed","1","2","no","right","s","460.990953951","726.980936137","28","green","3"
"100","75","19","648.363660687","1","1","8","485","3","right","out","Female","Right-handed","1","2","no","right","s","636.628516706","790.612454082","28","green","1"
"100","76","19","649.972016788","1","1","8","486","0","right","out","Female","Right-handed","1","2","no","right","d","512.222077545","839.18935128","28","red","3"
"100","77","19","649.912299063","1","1","8","487","1","left","out","Female","Right-handed","1","2","no","left","s","658.852371005","638.941824464","28","red","0"
"100","73","19","648.284467091","1","0","8","488","0","right","out","Female","Right-handed","1","2","no","right","s","622.451047868","615.5159353","28","red","1"
"100","70","19","648.1479186","1","0","8","489","2","left","out","Female","Right-handed","1","2","no","left","d","812.075575535","479.031419036","28","green","3"
"100","71","19","666.910187617","1","1","8","490","0","left","out","Female","Right-handed","1","2","no","left","s","653.663544414","1430.64759147","28","green","1"
"100","68","19","672.629982775","1","0","8","491","2","left","out","Female","Right-handed","1","2","no","left","s","1146.22362852","439.267733702","28","red","3"
"100","69","19","680.32326628","1","1","8","492","1","left","in","Female","Right-handed","1","2","no","left","s","1108.58723701","590.563769745","28","green","3"
"100","70","19","687.678443754","1","1","8","493","3","left","out","Female","Right-handed","1","2","no","left","d","866.260792816","847.434258507","28","red","0"
"100","72","19","692.62757509","1","1","8","494","0","right","out","Female","Right-handed","1","2","no","right","s","839.808007962","783.00544636","28","red","0"
"100","69","19","696.99014284","1","0","8","495","2","right","out","Female","Right-handed","1","2","no","right","s","565.514107232","1046.59456596","28","green","1"
"100","70","19","717.751610155","1","1","8","496","3","right","in","Female","Right-handed","1","2","no","right","s","1115.98578084","1399.11373982","28","red","1"
"100","71","19","741.697576211","1","1","8","497","3","left","out","Female","Right-handed","1","2","no","left","d","961.70774902","1814.76957043","28","green","3"
"100","68","19","736.641832959","1","0","8","498","2","right","in","Female","Right-handed","1","2","no","right","s","623.011976089","567.150067703","28","red","1"
"100","70","19","753.578924108","1","1","8","499","1","right","in","Female","Right-handed","1","2","no","right","s","658.792718259","1830.71641663","28","green","1"
"100","70","19","752.909348955","1","1","8","500","0","right","out","Female","Right-handed","1","2","no","right","s","730.319244809","735.324943891","28","red","1"
"100","71","19","746.672164634","1","1","8","501","3","left","in","Female","Right-handed","1","2","no","left","s","715.898033575","390.740867839","28","green","1"
"100","72","19","768.728901292","1","1","8","502","1","right","in","Female","Right-handed","1","2","no","right","s","590.578843288","2358.51010537","28","green","1"
"100","73","19","780.194310796","1","1","8","503","3","right","out","Female","Right-handed","1","2","no","right","s","462.043536241","1855.06211262","28","red","0"
"100","71","19","776.334308639","1","0","8","504","1","right","out","Female","Right-handed","1","2","no","right","s","515.538577688","774.649892914","28","green","1"
"100","72","19","791.064994444","1","1","8","505","2","right","in","Female","Right-handed","1","2","no","right","d","1270.24970125","1343.028294","28","red","3"
"100","72","19","802.366393672","1","1","8","506","1","left","out","Female","Right-handed","1","2","no","left","d","827.754625814","1590.67890596","28","red","2"
"100","73","19","836.291179932","1","1","8","507","0","left","in","Female","Right-handed","1","2","no","left","d","2711.90867614","1471.10786691","28","green","0"
"100","74","19","828.443761385","1","1","8","508","3","left","out","Female","Right-handed","1","2","no","left","s","581.795457796","478.6882554","28","red","2"
"100","75","19","824.677173621","1","1","8","509","2","left","in","Female","Right-handed","1","2","no","left","s","533.298418305","822.262083367","28","green","2"
"100","75","19","830.47509523","1","1","8","510","0","left","in","Female","Right-handed","1","2","no","left","s","797.969625848","1326.81429331","28","red","3"
"100","73","19","828.438799721","1","0","8","511","3","left","out","Female","Right-handed","1","2","no","left","s","827.430384284","662.47098343","28","green","0"
"100","74","19","824.54800367","1","1","8","512","0","right","in","Female","Right-handed","1","2","no","right","s","435.178634311","887.090504759","28","green","3"
"100","75","19","820.607550661","1","1","8","513","3","left","in","Female","Right-handed","1","2","no","left","s","647.696345725","654.639796847","28","red","3"
"100","75","19","821.618357565","1","1","8","514","3","left","out","Female","Right-handed","1","2","no","left","d","828.962433523","903.225289172","28","green","0"
"100","76","19","824.186323603","1","1","8","515","0","left","out","Female","Right-handed","1","2","no","left","d","680.662825371","1198.82676523","28","red","2"
"100","74","19","830.010181226","1","0","8","516","3","right","in","Female","Right-handed","1","2","no","right","s","685.404577098","1510.41068669","28","red","1"
"100","75","19","824.738113229","1","1","8","517","3","right","out","Female","Right-handed","1","2","no","right","s","466.976754033","686.925080643","28","green","3"
"100","73","19","820.827933617","1","0","8","518","1","left","in","Female","Right-handed","1","2","no","left","d","659.620800976","606.657823521","28","red","1"
"100","74","19","816.913608715","1","1","8","519","0","left","in","Female","Right-handed","1","2","no","left","d","708.09795622","542.125420858","28","green","0"
"100","74","19","827.016981211","1","1","8","520","0","left","in","Female","Right-handed","1","2","no","left","d","969.792940836","1694.57827114","28","red","1"
"100","75","19","832.607976647","1","1","8","521","0","right","in","Female","Right-handed","1","2","no","right","d","533.287193325","1702.21029452","28","green","1"
"100","75","19","830.734576283","1","1","8","522","2","left","in","Female","Right-handed","1","2","no","left","d","803.775826271","662.859688408","28","red","1"
"100","75","19","828.609476243","1","1","8","523","1","left","in","Female","Right-handed","1","2","no","left","d","689.549159956","742.409188319","28","green","3"
"100","76","19","838.618504258","1","1","8","524","1","left","out","Female","Right-handed","1","2","no","left","d","903.13709291","1855.07494116","28","red","3"
"100","76","19","840.705762863","1","1","8","525","3","left","out","Female","Right-handed","1","2","no","left","s","1056.49595933","854.514012943","28","green","2"
"100","77","19","839.169120998","1","1","8","526","2","right","in","Female","Right-handed","1","2","no","right","s","659.993470269","846.240882913","28","green","1"
"100","77","19","837.265226805","1","1","8","527","1","right","in","Female","Right-handed","1","2","no","right","d","738.730602435","718.75591316","28","red","1"
"100","76","19","835.215371791","1","0","8","528","3","left","in","Female","Right-handed","1","2","no","left","s","786.315532227","646.332029738","28","green","3"
"100","76","19","834.467192487","1","1","8","529","2","right","out","Female","Right-handed","1","2","no","right","s","557.849691763","1022.79953535","28","green","0"
"100","75","19","834.820324053","1","0","8","530","1","right","out","Female","Right-handed","1","2","no","right","d","649.480796627","1062.53563931","28","red","0"
"100","74","19","832.140540541","1","0","8","531","0","left","out","Female","Right-handed","1","2","no","left","d","787.152594927","550.194897701","28","green","2"
"100","74","19","832.640548519","1","1","8","532","2","right","in","Female","Right-handed","1","2","no","right","d","584.579893947","1142.70219234","28","red","1"
"100","75","19","829.384272233","1","1","8","533","3","right","in","Female","Right-handed","1","2","no","right","s","642.227536092","606.250196437","28","red","1"
dis_reply=No
dis_loc=0
tar_loc=2
