"acc_1","acc_2","age","avg_rt","correct_1","correct_2","count_block_loop","count_trial_sequence","cue_position","detection","dis_shape","gender","hand","high_loc","low_loc","practice","response_keyboard_response_1","response_keyboard_response_2","response_time_keyboard_response_1","response_time_keyboard_response_2","subject_nr","tar_color","tar_position"
"100","100","22","1796.19034729","1","1","0","0","3","right","out","Male","Right-handed","1","0","yes","right","d","2192.97074721","1399.40994738","15","red","1"
"100","100","22","1356.04935429","1","1","0","1","3","left","out","Male","Right-handed","1","0","yes","left","d","838.433086051","993.383636511","15","green","3"
"100","100","22","1664.19266628","1","1","0","2","3","right","out","Male","Right-handed","1","0","yes","right","s","2423.01205217","2137.94652837","15","green","0"
"100","75","22","1649.84736341","1","0","0","3","1","left","out","Male","Right-handed","1","0","yes","left","s","1732.29417192","1481.32873769","15","red","1"
"80","60","22","1691.69125219","0","0","0","4","2","left","in","Male","Right-handed","1","0","yes","right","None","717.924187315","3000.20942731","15","red","1"
"83","66","22","1527.86190327","1","1","0","5","0","left","out","Male","Right-handed","1","0","yes","left","s","576.198666657","841.231650656","15","red","1"
"85","71","22","1455.28761343","1","1","0","6","1","left","out","Male","Right-handed","1","0","yes","left","d","741.874268568","1297.80948016","15","red","1"
"87","75","22","1396.25817464","1","1","0","7","1","right","in","Male","Right-handed","1","0","yes","right","s","1148.57376155","817.530444733","15","green","3"
"88","66","22","1335.39715624","1","0","0","8","0","right","in","Male","Right-handed","1","0","yes","right","d","735.042063459","961.975954666","15","red","2"
"80","60","22","1296.11807403","0","0","0","9","0","left","out","Male","Right-handed","1","0","yes","right","d","880.601098066","1004.61157007","15","green","0"
"81","54","22","1228.89238495","1","0","0","10","2","left","in","Male","Right-handed","1","0","yes","left","s","528.094208292","585.17678006","15","green","3"
"83","58","22","1194.4222527","1","1","0","11","0","right","out","Male","Right-handed","1","0","yes","right","s","572.717939902","1057.78365614","15","red","3"
"84","61","22","1174.03910081","1","1","0","12","1","left","out","Male","Right-handed","1","0","yes","left","d","505.458740415","1353.42381577","15","red","3"
"85","64","22","1136.46186698","1","1","0","13","1","left","out","Male","Right-handed","1","0","yes","left","s","469.845835203","826.069819152","15","green","0"
"86","66","22","1112.03171108","1","1","0","14","3","left","in","Male","Right-handed","1","0","yes","left","d","658.629319118","881.389737805","15","red","2"
"87","68","22","1088.53781975","1","1","0","15","2","right","out","Male","Right-handed","1","0","yes","right","d","671.06282274","801.196076878","15","red","2"
"88","70","22","1084.23161223","1","1","0","16","3","right","in","Male","Right-handed","1","0","yes","right","d","1012.86967688","1017.79490684","15","green","0"
"88","72","22","1061.34343039","1","1","0","17","1","right","in","Male","Right-handed","1","0","yes","right","d","575.259932002","769.228746255","15","red","2"
"84","73","22","1050.53332224","0","1","0","18","1","left","in","Male","Right-handed","1","0","yes","right","s","555.973376754","1155.92937457","15","green","0"
"85","75","22","1038.91327753","1","1","0","19","0","right","in","Male","Right-handed","1","0","yes","right","s","682.687481539","953.57737441","15","green","1"
"85","71","22","1043.94276833","1","0","0","20","2","left","in","Male","Right-handed","1","0","yes","left","d","1152.01375742","1137.05141104","15","red","0"
"86","72","22","1037.60468778","1","1","0","21","2","right","in","Male","Right-handed","1","0","yes","right","s","623.539501101","1185.47049144","15","green","2"
"100","100","22","805.17551644","1","1","1","22","1","right","out","Male","Right-handed","1","0","no","right","s","809.156559581","801.1944733","15","red","2"
"100","100","22","758.507543392","1","1","1","23","1","left","in","Male","Right-handed","1","0","no","left","d","829.819305606","593.859835082","15","red","1"
"100","100","22","702.446878534","1","1","1","24","3","right","out","Male","Right-handed","1","0","no","right","d","483.386449187","697.264648446","15","green","2"
"100","100","22","745.848055517","1","1","1","25","3","right","out","Male","Right-handed","1","0","no","right","s","551.05937184","1201.0438011","15","red","3"
"100","80","22","747.306549943","1","0","1","26","2","left","in","Male","Right-handed","1","0","no","left","s","608.650277884","897.630777412","15","red","1"
"100","83","22","714.950912869","1","1","1","27","2","right","in","Male","Right-handed","1","0","no","right","d","441.088547341","665.256907653","15","red","3"
"100","85","22","695.342370581","1","1","1","28","0","left","out","Male","Right-handed","1","0","no","left","d","425.612093802","729.770139899","15","green","1"
"87","75","22","720.841095988","0","0","1","29","0","right","out","Male","Right-handed","1","0","no","left","d","554.36049784","1244.30384984","15","green","1"
"88","77","22","724.248770848","1","1","1","30","2","right","out","Male","Right-handed","1","0","no","right","s","524.964665155","978.055674309","15","red","2"
"90","80","22","713.883619353","1","1","1","31","0","right","in","Male","Right-handed","1","0","no","right","s","487.49802359","753.696488196","15","green","3"
"90","81","22","710.408828753","1","1","1","32","2","left","out","Male","Right-handed","1","0","no","left","d","806.084424541","545.237420972","15","green","1"
"91","83","22","703.901524372","1","1","1","33","2","left","in","Male","Right-handed","1","0","no","left","d","510.828802958","753.813549401","15","red","0"
"92","76","22","712.714124867","1","0","1","34","1","right","out","Male","Right-handed","1","0","no","right","s","603.442497451","1033.48816415","15","green","1"
"92","78","22","707.521409257","1","1","1","35","3","left","in","Male","Right-handed","1","0","no","left","s","502.995644361","777.036568317","15","red","3"
"93","80","22","695.76168947","1","1","1","36","0","left","in","Male","Right-handed","1","0","no","left","d","468.655659492","593.595565401","15","green","1"
"93","81","22","702.952209442","1","1","1","37","0","right","in","Male","Right-handed","1","0","no","right","s","676.327049124","945.292968919","15","red","0"
"94","82","22","693.797910553","1","1","1","38","2","right","in","Male","Right-handed","1","0","no","right","s","460.81704873","633.841207918","15","red","2"
"94","77","22","681.000419318","1","0","1","39","3","left","in","Male","Right-handed","1","0","no","left","s","421.373195293","505.512941357","15","red","1"
"94","73","22","687.453248312","1","0","1","40","1","left","out","Male","Right-handed","1","0","no","left","d","478.122222803","1129.0861176","15","red","0"
"95","70","22","678.408926542","1","0","1","41","2","right","in","Male","Right-handed","1","0","no","right","s","411.564749119","601.568876729","15","red","0"
"95","71","22","671.162435488","1","1","1","42","1","left","in","Male","Right-handed","1","0","no","left","d","403.226784117","649.238444696","15","red","1"
"95","68","22","682.622820894","1","0","1","43","1","left","out","Male","Right-handed","1","0","no","left","s","469.747375504","1376.83445333","15","red","1"
"95","69","22","693.43973107","1","1","1","44","1","left","in","Male","Right-handed","1","0","no","left","d","805.507136404","1057.31637346","15","green","3"
"95","66","22","702.62631893","1","0","1","45","2","right","out","Male","Right-handed","1","0","no","right","d","874.946881474","952.888797948","15","red","1"
"92","64","22","693.964458935","0","0","1","46","3","right","out","Male","Right-handed","1","0","no","left","d","568.62175985","403.53787828","15","green","2"
"92","65","22","691.684671354","1","1","1","47","0","left","in","Male","Right-handed","1","0","no","left","d","428.300011514","841.079952162","15","green","2"
"92","66","22","696.74286193","1","1","1","48","1","right","in","Male","Right-handed","1","0","no","right","d","487.6808315","1168.8308023","15","green","3"
"92","67","22","695.619795329","1","1","1","49","3","right","in","Male","Right-handed","1","0","no","right","d","585.232263864","745.361730351","15","red","1"
"93","65","22","690.975586319","1","0","1","50","2","left","out","Male","Right-handed","1","0","no","left","s","488.931943181","632.943524864","15","green","1"
"93","66","22","682.629731344","1","1","1","51","0","left","out","Male","Right-handed","1","0","no","left","s","503.638358487","377.561515663","15","red","1"
"93","67","22","679.826341176","1","1","1","52","1","left","out","Male","Right-handed","1","0","no","left","s","438.268494788","753.18077746","15","green","3"
"93","68","22","673.983585012","1","1","1","53","3","left","out","Male","Right-handed","1","0","no","left","d","456.80361331","528.912674586","15","red","0"
"93","69","22","664.785159255","1","1","1","54","3","left","out","Male","Right-handed","1","0","no","left","s","363.520585293","377.350484778","15","green","3"
"94","70","22","658.207521464","1","1","1","55","2","right","in","Male","Right-handed","1","0","no","right","s","417.146804694","465.144144037","15","green","3"
"94","71","22","653.479139212","1","1","1","56","0","left","in","Male","Right-handed","1","0","no","left","s","464.631961173","520.796324086","15","green","3"
"94","72","22","648.171272339","1","1","1","57","3","right","in","Male","Right-handed","1","0","no","right","s","403.436852856","521.355010717","15","green","3"
"94","70","22","643.610526785","1","0","1","58","0","right","out","Male","Right-handed","1","0","no","right","s","533.90300982","424.944363856","15","red","2"
"94","71","22","643.636238895","1","1","1","59","2","right","out","Male","Right-handed","1","0","no","right","s","791.58615368","497.589020236","15","green","1"
"94","69","22","638.868067729","1","0","1","60","2","left","out","Male","Right-handed","1","0","no","left","s","410.281565875","505.073560941","15","green","2"
"95","70","22","635.4917629","1","1","1","61","3","right","in","Male","Right-handed","1","0","no","right","d","398.850619318","608.781129862","15","red","2"
"95","68","22","642.575076811","1","0","1","62","1","left","out","Male","Right-handed","1","0","no","left","d","786.426480592","1065.38878592","15","green","0"
"95","69","22","645.466485239","1","1","1","63","0","left","in","Male","Right-handed","1","0","no","left","s","694.961910208","833.06655138","15","red","0"
"95","69","22","643.203773591","1","1","1","64","3","right","out","Male","Right-handed","1","0","no","right","d","511.725203149","584.614565557","15","green","1"
"93","70","22","638.533474417","0","1","1","65","3","right","in","Male","Right-handed","1","0","no","left","s","527.25810264","348.163117253","15","green","1"
"93","71","22","634.506746307","1","1","1","66","0","left","out","Male","Right-handed","1","0","no","left","s","417.770917314","496.89050159","15","red","3"
"93","71","22","631.670733504","1","1","1","67","2","right","in","Male","Right-handed","1","0","no","right","s","567.454675665","440.645639053","15","red","2"
"93","72","22","627.755693625","1","1","1","68","3","left","out","Male","Right-handed","1","0","no","left","s","366.135379841","529.192338617","15","red","0"
"93","72","22","626.558821626","1","1","1","69","1","right","in","Male","Right-handed","1","0","no","right","s","723.86897227","416.742702998","15","green","3"
"93","73","22","622.177860341","1","1","1","70","1","right","out","Male","Right-handed","1","0","no","right","d","374.32004277","449.46339464","15","red","2"
"94","74","22","622.314697724","1","1","1","71","0","left","in","Male","Right-handed","1","0","no","left","d","521.033332938","737.006125989","15","green","2"
"94","74","22","618.852031473","1","1","1","72","2","right","in","Male","Right-handed","1","0","no","right","d","354.662740252","536.774697589","15","green","3"
"92","75","22","615.218410676","0","1","1","73","1","right","in","Male","Right-handed","1","0","no","left","s","464.420288856","395.387211207","15","green","1"
"92","75","22","614.42076297","1","1","1","74","2","right","in","Male","Right-handed","1","0","no","right","d","560.898606715","584.987557837","15","red","1"
"92","75","22","612.543251918","1","1","1","75","3","left","in","Male","Right-handed","1","0","no","left","d","417.516269102","608.554063195","15","red","2"
"92","76","22","616.147072842","1","1","1","76","3","right","out","Male","Right-handed","1","0","no","right","d","668.254636666","953.252168759","15","red","1"
"92","76","22","614.229412656","1","1","1","77","0","left","in","Male","Right-handed","1","0","no","left","s","576.74837325","440.767831709","15","green","1"
"92","75","22","613.864680813","1","0","1","78","3","left","out","Male","Right-handed","1","0","no","left","d","426.378924878","760.500470329","15","red","1"
"93","74","22","612.746115102","1","0","1","79","1","left","in","Male","Right-handed","1","0","no","left","s","472.94458964","625.031149506","15","green","2"
"91","74","22","611.51513278","0","1","1","80","1","right","out","Male","Right-handed","1","0","no","left","d","379.729553336","700.50676277","15","red","2"
"91","73","22","616.62708234","1","0","1","81","1","left","in","Male","Right-handed","1","0","no","left","s","459.204490532","1377.25972225","15","green","1"
"91","73","22","613.947461743","1","1","1","82","0","left","out","Male","Right-handed","1","0","no","left","s","377.667672538","528.672779293","15","green","2"
"91","74","22","610.550140387","1","1","1","83","0","right","out","Male","Right-handed","1","0","no","right","s","414.2828141","392.344261291","15","green","3"
"92","74","22","609.455424297","1","1","1","84","0","left","out","Male","Right-handed","1","0","no","left","s","546.017080673","537.148972732","15","red","1"
"92","75","22","605.685682805","1","1","1","85","2","right","out","Male","Right-handed","1","0","no","right","s","375.757169518","360.626768145","15","green","3"
"100","100","22","644.122068218","1","1","2","86","2","left","out","Male","Right-handed","1","0","no","left","d","439.202097993","849.042038443","15","green","0"
"100","100","22","519.752715419","1","1","2","87","0","right","out","Male","Right-handed","1","0","no","right","s","405.953508421","384.813216819","15","green","3"
"100","66","22","506.328093588","1","0","2","88","1","left","out","Male","Right-handed","1","0","no","left","d","477.490413008","481.467286845","15","green","3"
"100","75","22","520.525159019","1","1","2","89","2","right","in","Male","Right-handed","1","0","no","right","d","661.173876942","465.058833679","15","red","2"
"80","80","22","502.360274622","0","1","2","90","3","left","out","Male","Right-handed","1","0","no","right","s","415.672795649","443.728678424","15","red","3"
"83","66","22","501.68995757","1","0","2","91","3","right","in","Male","Right-handed","1","0","no","right","d","435.347737528","561.329007093","15","red","3"
"85","71","22","503.145601827","1","1","2","92","3","right","in","Male","Right-handed","1","0","no","right","s","654.85289255","368.906042187","15","green","0"
"87","75","22","501.258007067","1","1","2","93","2","left","out","Male","Right-handed","1","0","no","left","d","486.720929613","489.368757872","15","red","3"
"88","77","22","518.246260643","1","1","2","94","3","left","out","Male","Right-handed","1","0","no","left","s","507.202150591","801.102427913","15","green","2"
"90","80","22","506.352462631","1","1","2","95","2","left","in","Male","Right-handed","1","0","no","left","s","437.836170117","360.780390933","15","green","3"
"90","72","22","504.043247395","1","0","2","96","0","right","out","Male","Right-handed","1","0","no","right","s","456.497971313","505.404218758","15","green","0"
"91","75","22","503.794814263","1","1","2","97","0","right","out","Male","Right-handed","1","0","no","right","s","673.061843275","329.062256356","15","red","1"
"92","69","22","523.09574415","1","0","2","98","0","right","in","Male","Right-handed","1","0","no","right","d","724.542154382","784.871651208","15","green","1"
"92","64","22","537.005154679","1","0","2","99","3","right","out","Male","Right-handed","1","0","no","right","d","490.359448459","945.295534644","15","green","2"
"86","60","22","543.561489365","0","0","2","100","0","right","out","Male","Right-handed","1","0","no","left","d","442.895779927","827.804570005","15","green","1"
"87","62","22","538.46287452","1","1","2","101","2","right","out","Male","Right-handed","1","0","no","right","s","514.471491107","409.495812576","15","green","0"
"88","64","22","543.431414651","1","1","2","102","1","right","in","Male","Right-handed","1","0","no","right","d","653.026417026","592.829696471","15","red","2"
"88","66","22","542.278569821","1","1","2","103","3","left","out","Male","Right-handed","1","0","no","left","d","452.730845499","592.629569917","15","green","1"
"89","68","22","537.834755592","1","1","2","104","3","left","in","Male","Right-handed","1","0","no","left","d","402.389395602","513.302803343","15","green","3"
"90","65","22","532.895457608","1","0","2","105","1","left","in","Male","Right-handed","1","0","no","left","d","460.974840821","417.122751022","15","red","3"
"90","61","22","543.670091314","1","0","2","106","2","left","in","Male","Right-handed","1","0","no","left","d","445.662272969","1072.66325789","15","red","1"
"90","63","22","545.529942784","1","1","2","107","0","right","out","Male","Right-handed","1","0","no","right","d","360.04049997","809.13314734","15","red","3"
"86","65","22","545.253791413","0","1","2","108","0","right","out","Male","Right-handed","1","0","no","left","d","586.722950122","491.633972381","15","green","1"
"87","66","22","546.211287351","1","1","2","109","0","left","in","Male","Right-handed","1","0","no","left","s","447.228648116","689.238739754","15","green","2"
"88","68","22","545.283161435","1","1","2","110","0","right","out","Male","Right-handed","1","0","no","right","d","500.969042282","545.047236602","15","red","2"
"88","69","22","548.373248902","1","1","2","111","0","right","in","Male","Right-handed","1","0","no","right","d","410.643012392","840.607858752","15","red","2"
"88","66","22","544.182159637","1","0","2","112","3","left","out","Male","Right-handed","1","0","no","left","d","429.187752383","441.239925119","15","red","2"
"89","67","22","540.028873112","1","1","2","113","1","left","out","Male","Right-handed","1","0","no","left","s","494.893405349","360.886868523","15","red","2"
"86","68","22","534.664068015","0","1","2","114","0","left","out","Male","Right-handed","1","0","no","right","s","405.49392292","363.405127666","15","green","0"
"86","70","22","529.179328253","1","1","2","115","1","right","in","Male","Right-handed","1","0","no","right","s","395.181953203","345.061797092","15","green","2"
"87","70","22","531.440131025","1","1","2","116","0","right","in","Male","Right-handed","1","0","no","right","s","765.759885979","432.768542415","15","green","1"
"87","71","22","535.361093329","1","1","2","117","0","right","out","Male","Right-handed","1","0","no","right","s","473.395836534","840.426012988","15","green","3"
"87","72","22","541.561980954","1","1","2","118","3","right","out","Male","Right-handed","1","0","no","right","d","543.005881604","936.974888287","15","red","0"
"88","73","22","543.431405218","1","1","2","119","2","left","in","Male","Right-handed","1","0","no","left","s","753.644211548","456.600600316","15","green","1"
"88","74","22","541.76829496","1","1","2","120","2","left","in","Male","Right-handed","1","0","no","left","s","425.173354817","545.271737544","15","red","1"
"88","75","22","540.172020462","1","1","2","121","0","left","out","Male","Right-handed","1","0","no","left","d","415.826097722","552.778728344","15","red","2"
"89","75","22","545.882518796","1","1","2","122","2","left","out","Male","Right-handed","1","0","no","left","s","470.435310534","1032.48560708","15","green","3"
"89","76","22","544.925343562","1","1","2","123","3","left","in","Male","Right-handed","1","0","no","left","d","506.10081311","512.918906732","15","red","3"
"89","76","22","542.844763116","1","1","2","124","2","left","in","Male","Right-handed","1","0","no","left","s","350.72371086","576.841701499","15","red","3"
"90","77","22","538.682390339","1","1","2","125","3","left","in","Male","Right-handed","1","0","no","left","s","360.31663613","392.383067882","15","green","1"
"87","78","22","536.75048747","0","1","2","126","2","right","out","Male","Right-handed","1","0","no","left","d","436.002959564","482.945785909","15","green","1"
"88","76","22","537.340191791","1","0","2","127","0","left","in","Male","Right-handed","1","0","no","left","s","434.577699295","688.458438622","15","green","3"
"88","76","22","537.210001933","1","1","2","128","1","left","out","Male","Right-handed","1","0","no","left","d","495.129131339","568.354924444","15","green","1"
"88","75","22","541.716134623","1","0","2","129","0","left","in","Male","Right-handed","1","0","no","left","s","478.011896625","992.947783967","15","red","1"
"88","75","22","539.521637668","1","1","2","130","1","left","in","Male","Right-handed","1","0","no","left","s","445.462146415","440.465396868","15","red","0"
"89","76","22","541.901737862","1","1","2","131","3","right","out","Male","Right-handed","1","0","no","right","d","473.118417512","824.894075644","15","red","2"
"89","76","22","541.321629815","1","1","2","132","2","left","out","Male","Right-handed","1","0","no","left","d","468.573556291","560.699763023","15","red","2"
"89","77","22","540.049942506","1","1","2","133","1","right","in","Male","Right-handed","1","0","no","right","d","408.153296941","552.407981073","15","red","1"
"89","77","22","540.641556147","1","1","2","134","3","right","in","Male","Right-handed","1","0","no","right","d","457.046074328","681.031947446","15","red","1"
"90","78","22","536.129283037","1","1","2","135","3","left","in","Male","Right-handed","1","0","no","left","s","317.61655688","312.439244433","15","green","1"
"90","78","22","538.670554595","1","1","2","136","1","right","in","Male","Right-handed","1","0","no","right","d","475.246365731","856.221899297","15","green","1"
"90","78","22","540.681451888","1","1","2","137","3","right","in","Male","Right-handed","1","0","no","right","d","525.710329","760.764098579","15","red","1"
"90","79","22","540.042874597","1","1","2","138","1","left","in","Male","Right-handed","1","0","no","left","d","469.237116934","544.436594039","15","red","2"
"90","79","22","536.895527204","1","1","2","139","1","right","in","Male","Right-handed","1","0","no","right","s","419.054100558","321.118130151","15","green","1"
"90","80","22","535.428193417","1","1","2","140","2","right","out","Male","Right-handed","1","0","no","right","s","351.714080731","560.670257185","15","red","1"
"89","80","22","534.310164042","0","1","2","141","1","left","out","Male","Right-handed","1","0","no","right","d","430.329179318","515.307917475","15","green","3"
"89","80","22","534.574222625","1","1","2","142","2","left","out","Male","Right-handed","1","0","no","left","d","577.752533894","520.970472674","15","red","2"
"89","81","22","532.617711512","1","1","2","143","2","right","in","Male","Right-handed","1","0","no","right","d","393.642518169","448.550637952","15","red","1"
"89","79","22","529.652638933","1","0","2","144","3","right","in","Male","Right-handed","1","0","no","right","s","403.090479973","312.266378707","15","green","1"
"90","80","22","528.447949617","1","1","2","145","1","right","out","Male","Right-handed","1","0","no","right","d","417.833456862","496.909103096","15","red","0"
"90","80","22","527.710277506","1","1","2","146","1","right","in","Male","Right-handed","1","0","no","right","d","430.560736004","536.339165761","15","green","1"
"90","80","22","525.425978382","1","1","2","147","2","left","in","Male","Right-handed","1","0","no","left","s","372.032057452","400.13540614","15","green","2"
"90","80","22","525.167830872","1","1","2","148","1","left","out","Male","Right-handed","1","0","no","left","s","641.62914561","376.696224888","15","red","1"
"90","81","22","524.265204407","1","1","2","149","1","right","out","Male","Right-handed","1","0","no","right","d","422.398523169","512.400950986","15","red","3"
"100","100","22","462.696442334","1","1","3","150","3","right","out","Male","Right-handed","1","0","no","right","s","348.253559062","577.139325605","15","red","1"
"50","100","22","623.294634716","0","1","3","151","2","left","in","Male","Right-handed","1","0","no","right","d","515.918880754","1051.86677344","15","green","1"
"66","100","22","569.710749779","1","1","3","152","3","right","in","Male","Right-handed","1","0","no","right","d","420.579424104","504.506535704","15","red","0"
"75","100","22","522.826494126","1","1","3","153","1","right","out","Male","Right-handed","1","0","no","right","s","443.116432282","321.231022053","15","red","2"
"80","100","22","515.84412194","1","1","3","154","0","left","in","Male","Right-handed","1","0","no","left","s","422.940211871","552.889054521","15","red","1"
"66","100","22","519.512499411","0","1","3","155","1","left","out","Male","Right-handed","1","0","no","right","d","584.381084577","491.327688952","15","green","1"
"71","100","22","511.231049085","1","1","3","156","0","right","out","Male","Right-handed","1","0","no","right","d","426.068472146","497.016222117","15","red","3"
"75","100","22","503.348170975","1","1","3","157","1","right","in","Male","Right-handed","1","0","no","right","s","391.727204415","504.60884399","15","green","3"
"77","100","22","502.44722063","1","1","3","158","0","left","in","Male","Right-handed","1","0","no","left","s","502.487951516","487.991284232","15","red","1"
"80","90","22","497.601255538","1","0","3","159","2","left","out","Male","Right-handed","1","0","no","left","d","354.859338935","553.115800472","15","red","0"
"81","81","22","484.193471763","1","0","3","160","0","right","out","Male","Right-handed","1","0","no","right","s","395.545324014","304.685944028","15","green","3"
"83","83","22","493.568502347","1","1","3","161","3","left","out","Male","Right-handed","1","0","no","left","d","392.16369839","801.223979138","15","red","3"
"84","84","22","489.741873504","1","1","3","162","1","left","in","Male","Right-handed","1","0","no","left","s","390.812523433","496.832131344","15","green","1"
"85","85","22","503.751880367","1","1","3","163","1","right","in","Male","Right-handed","1","0","no","right","d","587.414092309","784.349846874","15","red","1"
"86","86","22","499.741781154","1","1","3","164","3","left","out","Male","Right-handed","1","0","no","left","d","430.014557283","457.18622706","15","green","2"
"87","87","22","522.770288711","1","1","3","165","0","right","out","Male","Right-handed","1","0","no","right","d","655.64441873","1080.75138541","15","green","1"
"88","88","22","515.713028482","1","1","3","166","2","left","out","Male","Right-handed","1","0","no","left","s","421.324125802","384.269603823","15","red","2"
"88","88","22","520.509800304","1","1","3","167","2","left","out","Male","Right-handed","1","0","no","left","d","635.082056698","569.02778584","15","red","3"
"89","89","22","512.463279537","1","1","3","168","2","left","out","Male","Right-handed","1","0","no","left","s","382.586808902","352.66500258","15","green","3"
"90","90","22","505.549438796","1","1","3","169","3","left","out","Male","Right-handed","1","0","no","left","s","435.204698356","313.168231064","15","green","3"
"85","90","22","510.563426044","0","1","3","170","3","right","out","Male","Right-handed","1","0","no","left","s","449.871344924","771.814997112","15","green","1"
"86","86","22","520.87407576","1","0","3","171","2","right","in","Male","Right-handed","1","0","no","right","s","746.284429224","728.511010328","15","green","1"
"86","82","22","514.577864115","1","0","3","172","0","left","in","Male","Right-handed","1","0","no","left","s","335.033981425","417.088434449","15","red","2"
"87","83","22","513.164835487","1","1","3","173","3","left","in","Male","Right-handed","1","0","no","left","d","360.676799784","600.653554315","15","red","3"
"88","84","22","512.289598519","1","1","3","174","3","left","out","Male","Right-handed","1","0","no","left","d","470.231656108","512.336166428","15","red","1"
"88","80","22","509.639940948","1","0","3","175","1","right","in","Male","Right-handed","1","0","no","right","s","510.039842503","376.757160859","15","green","3"
"88","81","22","515.595528127","1","1","3","176","0","right","in","Male","Right-handed","1","0","no","right","d","468.375033314","872.506556229","15","red","0"
"89","82","22","509.866203624","1","1","3","177","0","right","in","Male","Right-handed","1","0","no","right","s","413.155819369","297.193064717","15","green","3"
"89","79","22","509.847667484","1","0","3","178","0","right","in","Male","Right-handed","1","0","no","right","s","505.746101621","512.911209557","15","green","1"
"90","76","22","504.950138875","1","0","3","179","1","left","out","Male","Right-handed","1","0","no","left","d","357.495300714","368.348317702","15","green","2"
"90","77","22","510.612852708","1","1","3","180","0","right","out","Male","Right-handed","1","0","no","right","d","432.01774712","928.970788258","15","green","1"
"90","78","22","514.989877814","1","1","3","181","0","right","out","Male","Right-handed","1","0","no","right","s","740.642399825","560.712912364","15","red","2"
"90","78","22","515.282163038","1","1","3","182","3","right","in","Male","Right-handed","1","0","no","right","d","473.016750657","576.253829746","15","green","0"
"91","76","22","514.208787273","1","0","3","183","1","right","out","Male","Right-handed","1","0","no","right","d","396.804453586","560.770320462","15","red","2"
"91","77","22","510.944787475","1","1","3","184","3","right","in","Male","Right-handed","1","0","no","right","s","495.437659777","304.499928962","15","red","1"
"91","77","22","510.672084373","1","1","3","185","0","left","in","Male","Right-handed","1","0","no","left","s","426.156027514","576.098924095","15","green","2"
"91","78","22","504.849168348","1","1","3","186","1","left","in","Male","Right-handed","1","0","no","left","s","317.719827314","272.72855559","15","red","2"
"92","78","22","502.165045733","1","1","3","187","3","right","out","Male","Right-handed","1","0","no","right","s","501.320546615","304.384471334","15","red","1"
"92","79","22","499.638787852","1","1","3","188","1","right","out","Male","Right-handed","1","0","no","right","d","359.144420494","448.137556218","15","green","0"
"90","80","22","497.664364356","0","1","3","189","2","left","out","Male","Right-handed","1","0","no","right","d","397.62869276","443.695003282","15","green","3"
"90","78","22","496.083291633","1","0","3","190","1","right","in","Male","Right-handed","1","0","no","right","d","337.304968815","528.375796618","15","red","3"
"90","78","22","494.982743743","1","1","3","191","0","right","in","Male","Right-handed","1","0","no","right","d","402.72358129","496.996979179","15","red","2"
"90","79","22","495.856148925","1","1","3","192","3","left","out","Male","Right-handed","1","0","no","left","s","384.573000811","680.505332379","15","green","3"
"90","79","22","492.910493486","1","1","3","193","3","left","out","Male","Right-handed","1","0","no","left","s","348.233995408","384.260623786","15","red","2"
"88","80","22","492.517992949","0","1","3","194","2","left","in","Male","Right-handed","1","0","no","right","d","387.78689216","562.709046458","15","green","3"
"89","78","22","491.341953826","1","0","3","195","2","left","in","Male","Right-handed","1","0","no","left","s","324.348698713","552.491687853","15","green","2"
"89","76","22","494.281500394","1","0","3","196","1","right","in","Male","Right-handed","1","0","no","right","d","411.154553825","847.846731283","15","green","1"
"89","77","22","494.916540305","1","1","3","197","0","left","out","Male","Right-handed","1","0","no","left","s","536.81574919","512.711083002","15","red","3"
"87","75","22","500.443827891","0","0","3","198","2","right","out","Male","Right-handed","1","0","no","left","s","408.204290726","1123.30297332","15","red","1"
"88","76","22","500.011372576","1","1","3","199","2","left","in","Male","Right-handed","1","0","no","left","d","445.760732668","511.881391663","15","green","1"
"86","74","22","502.688851561","0","0","3","200","2","right","out","Male","Right-handed","1","0","no","left","s","341.488062804","931.637538739","15","green","1"
"86","75","22","503.838713244","1","1","3","201","0","right","in","Male","Right-handed","1","0","no","right","s","509.000082424","615.963235726","15","red","1"
"86","73","22","503.665516445","1","0","3","202","1","left","in","Male","Right-handed","1","0","no","left","s","620.658512578","368.660053296","15","green","1"
"87","74","22","502.853766299","1","1","3","203","0","right","out","Male","Right-handed","1","0","no","right","s","463.253846102","456.408170936","15","green","0"
"87","74","22","503.726112116","1","1","3","204","2","left","in","Male","Right-handed","1","0","no","left","s","413.93034762","687.735224871","15","red","2"
"87","75","22","500.875966024","1","1","3","205","2","left","in","Male","Right-handed","1","0","no","left","s","375.699440704","312.536421269","15","green","1"
"87","75","22","499.399457166","1","1","3","206","2","right","in","Male","Right-handed","1","0","no","right","d","377.172166886","456.257755305","15","green","2"
"86","75","22","499.830460317","0","1","3","207","1","left","in","Male","Right-handed","1","0","no","right","s","524.902446323","523.892833513","15","red","3"
"86","76","22","499.130254539","1","1","3","208","3","left","out","Male","Right-handed","1","0","no","left","d","372.509603028","544.527035847","15","green","2"
"86","76","22","497.388364501","1","1","3","209","1","left","in","Male","Right-handed","1","0","no","left","d","301.225422358","488.00828216","15","red","0"
"86","77","22","499.720780239","1","1","3","210","2","right","out","Male","Right-handed","1","0","no","right","d","487.533623025","791.797825997","15","red","0"
"85","77","22","501.440778767","0","1","3","211","3","right","out","Male","Right-handed","1","0","no","left","s","545.306054117","667.415323857","15","green","1"
"85","77","22","502.107547141","1","1","3","212","1","right","in","Male","Right-handed","1","0","no","right","s","494.899498946","591.994873681","15","red","1"
"85","78","22","500.295464287","1","1","3","213","3","left","out","Male","Right-handed","1","0","no","left","s","451.63239446","320.636094556","15","red","2"
"100","100","22","563.346148061","1","1","4","214","2","right","in","Male","Right-handed","1","0","no","right","s","741.770035987","384.922260134","15","red","1"
"100","100","22","474.880349016","1","1","4","215","0","right","in","Male","Right-handed","1","0","no","right","s","500.324403862","272.504696079","15","green","2"
"100","100","22","448.49007615","1","1","4","216","1","left","in","Male","Right-handed","1","0","no","left","s","495.293337742","296.125723093","15","red","2"
"100","100","22","494.677202923","1","1","4","217","3","right","in","Male","Right-handed","1","0","no","right","d","625.746345365","640.730821125","15","green","1"
"100","100","22","479.399825595","1","1","4","218","3","left","out","Male","Right-handed","1","0","no","left","d","356.342648733","480.237983827","15","green","0"
"83","83","22","476.326188537","0","0","4","219","0","right","in","Male","Right-handed","1","0","no","left","d","502.940481272","418.975525228","15","green","1"
"85","85","22","489.021285393","1","1","4","220","2","right","in","Male","Right-handed","1","0","no","right","d","593.708778019","536.674955028","15","red","1"
"87","75","22","494.242392705","1","0","4","221","1","left","in","Male","Right-handed","1","0","no","left","s","453.184978835","608.395308957","15","green","2"
"88","77","22","493.62934032","1","1","4","222","2","left","in","Male","Right-handed","1","0","no","left","s","376.66896406","600.780878421","15","red","3"
"80","80","22","578.045090694","0","1","4","223","1","right","out","Male","Right-handed","1","0","no","left","d","480.296674788","2195.27701332","15","green","1"
"81","81","22","561.756681389","1","1","4","224","0","left","in","Male","Right-handed","1","0","no","left","d","372.857258773","424.887917904","15","red","3"
"83","83","22","545.824905194","1","1","4","225","3","left","out","Male","Right-handed","1","0","no","left","s","356.613653441","384.53708066","15","green","3"
"84","84","22","542.127157778","1","1","4","226","3","right","out","Male","Right-handed","1","0","no","right","s","563.320971884","432.18740569","15","red","2"
"85","85","22","536.609746667","1","1","4","227","0","right","out","Male","Right-handed","1","0","no","right","s","512.855405037","416.91139942","15","green","2"
"86","86","22","532.106360849","1","1","4","228","0","right","in","Male","Right-handed","1","0","no","right","d","433.497849762","504.620069037","15","green","3"
"87","87","22","536.115546786","1","1","4","229","3","right","in","Male","Right-handed","1","0","no","right","d","648.153142997","544.35352869","15","red","0"
"82","88","22","527.882196394","0","1","4","230","3","left","out","Male","Right-handed","1","0","no","right","d","373.617034105","418.680146131","15","red","3"
"83","88","22","527.662721045","1","1","4","231","2","right","in","Male","Right-handed","1","0","no","right","s","607.448235695","440.415044514","15","green","2"
"84","84","22","528.970842273","1","0","4","232","2","right","out","Male","Right-handed","1","0","no","right","s","369.093340115","735.94070866","15","red","3"
"85","80","22","536.129722417","1","0","4","233","2","left","in","Male","Right-handed","1","0","no","left","d","719.673691087","624.623199222","15","red","3"
"80","80","22","538.68190182","0","1","4","234","3","right","out","Male","Right-handed","1","0","no","left","d","696.28261718","483.168362557","15","green","1"
"81","77","22","538.208806694","1","0","4","235","3","left","out","Male","Right-handed","1","0","no","left","d","383.788851091","672.758767002","15","red","2"
"78","78","22","546.741145017","0","1","4","236","3","right","out","Male","Right-handed","1","0","no","left","d","449.458583906","1019.44659235","15","red","1"
"79","75","22","543.1685312","1","0","4","237","2","left","in","Male","Right-handed","1","0","no","left","s","617.973802023","304.023024817","15","red","1"
"80","76","22","567.767373406","1","1","4","238","0","left","out","Male","Right-handed","1","0","no","left","s","2043.59615872","272.68301397","15","green","1"
"80","76","22","569.612265409","1","1","4","239","0","left","in","Male","Right-handed","1","0","no","left","d","423.215385883","808.253745077","15","green","1"
"77","77","22","571.120532549","0","1","4","240","1","right","out","Male","Right-handed","1","0","no","left","s","977.886977887","242.783978458","15","green","1"
"78","78","22","567.963680008","1","1","4","241","0","right","out","Male","Right-handed","1","0","no","right","s","509.273332143","456.18399071","15","red","0"
"79","79","22","562.850078392","1","1","4","242","1","right","out","Male","Right-handed","1","0","no","right","d","463.088356836","376.250109444","15","red","0"
"80","76","22","561.149347541","1","0","4","243","0","right","out","Male","Right-handed","1","0","no","right","d","479.73927102","543.917034714","15","green","2"
"80","77","22","557.153620626","1","1","4","244","1","left","out","Male","Right-handed","1","0","no","left","s","522.344097726","352.219528567","15","red","1"
"81","78","22","553.865448207","1","1","4","245","1","left","in","Male","Right-handed","1","0","no","left","s","559.981680723","343.882525712","15","green","3"
"81","78","22","548.492431952","1","1","4","246","1","left","out","Male","Right-handed","1","0","no","left","d","312.611148011","440.500675587","15","green","3"
"82","79","22","541.749949756","1","1","4","247","1","right","out","Male","Right-handed","1","0","no","right","s","382.204515869","256.291558732","15","green","0"
"80","80","22","543.69724371","0","1","4","248","0","right","in","Male","Right-handed","1","0","no","left","s","336.962765236","882.847711069","15","green","1"
"80","80","22","541.590639244","1","1","4","249","3","left","in","Male","Right-handed","1","0","no","left","s","663.332613861","272.386352011","15","green","1"
"81","78","22","549.641509701","1","0","4","250","0","right","out","Male","Right-handed","1","0","no","right","d","431.05367593","1247.89201633","15","red","3"
"81","78","22","544.697209249","1","1","4","251","1","left","in","Male","Right-handed","1","0","no","left","s","379.757134881","343.759050194","15","green","1"
"82","76","22","537.586400072","1","0","4","252","1","left","in","Male","Right-handed","1","0","no","left","s","294.390010093","240.361292574","15","green","3"
"82","75","22","531.682607303","1","0","4","253","2","right","in","Male","Right-handed","1","0","no","right","s","355.008471703","247.860906913","15","red","2"
"80","75","22","527.584634176","0","1","4","254","2","right","in","Male","Right-handed","1","0","no","left","s","436.692818888","290.638599345","15","red","1"
"80","73","22","524.920330037","1","0","4","255","1","right","out","Male","Right-handed","1","0","no","right","s","367.086943122","464.280777555","15","red","1"
"81","72","22","529.490559403","1","0","4","256","0","left","out","Male","Right-handed","1","0","no","left","s","442.896421358","999.983964219","15","red","1"
"81","72","22","526.864223754","1","1","4","257","0","left","out","Male","Right-handed","1","0","no","left","d","379.307170849","448.556410832","15","red","3"
"82","73","22","525.713094281","1","1","4","258","1","right","in","Male","Right-handed","1","0","no","right","d","493.962688584","456.16410634","15","green","2"
"82","71","22","525.22614949","1","0","4","259","2","left","in","Male","Right-handed","1","0","no","left","d","494.779230584","511.848037236","15","red","2"
"82","72","22","524.249192934","1","1","4","260","1","left","out","Male","Right-handed","1","0","no","left","d","526.249451978","432.368930737","15","red","1"
"83","70","22","523.243230682","1","0","4","261","2","right","in","Male","Right-handed","1","0","no","right","s","432.009729229","519.916280392","15","red","0"
"83","71","22","520.863082026","1","1","4","262","3","right","out","Male","Right-handed","1","0","no","right","d","445.669328714","367.562564404","15","green","2"
"84","70","22","522.320967715","1","0","4","263","3","left","out","Male","Right-handed","1","0","no","left","d","403.239292026","784.275440848","15","red","1"
"84","70","22","521.558187214","1","1","4","264","3","right","in","Male","Right-handed","1","0","no","right","d","494.958189907","471.880134457","15","green","2"
"84","69","22","518.075236976","1","0","4","265","3","left","out","Male","Right-handed","1","0","no","left","s","441.452238868","239.437310837","15","green","3"
"84","69","22","514.802563433","1","1","4","266","0","left","out","Male","Right-handed","1","0","no","left","s","393.182932668","296.064145692","15","green","0"
"85","70","22","515.423199897","1","1","4","267","2","left","in","Male","Right-handed","1","0","no","left","s","744.859489671","351.77437527","15","red","1"
"83","69","22","514.686805004","0","0","4","268","2","left","out","Male","Right-handed","1","0","no","right","d","459.457535166","490.385426425","15","green","1"
"83","69","22","514.711535303","1","1","4","269","2","right","out","Male","Right-handed","1","0","no","right","d","456.110867546","576.03253596","15","red","3"
"84","70","22","514.534627073","1","1","4","270","2","left","in","Male","Right-handed","1","0","no","left","s","521.632109023","487.623423401","15","green","0"
"84","70","22","512.029739231","1","1","4","271","0","right","in","Male","Right-handed","1","0","no","right","d","338.229912698","400.272351714","15","red","1"
"84","71","22","509.75710993","1","1","4","272","0","left","in","Male","Right-handed","1","0","no","left","s","404.024403894","351.864817078","15","green","2"
"85","71","22","508.703743853","1","1","4","273","3","right","in","Male","Right-handed","1","0","no","right","d","341.515002917","551.595287661","15","red","3"
"85","72","22","507.137676233","1","1","4","274","1","left","in","Male","Right-handed","1","0","no","left","d","386.093513622","440.253724551","15","red","3"
"85","72","22","503.730494399","1","1","4","275","2","right","out","Male","Right-handed","1","0","no","right","s","303.792430277","287.992374665","15","green","2"
"85","73","22","502.646555577","1","1","4","276","3","left","out","Male","Right-handed","1","0","no","left","d","359.411897331","511.472799947","15","red","1"
"85","73","22","501.1700934","1","1","4","277","1","left","out","Male","Right-handed","1","0","no","left","s","448.23729878","368.068653671","15","green","2"
"100","100","22","497.790590011","1","1","5","278","0","right","in","Male","Right-handed","1","0","no","right","s","603.209978618","392.371201404","15","green","2"
"100","100","22","449.63818466","1","1","5","279","0","left","in","Male","Right-handed","1","0","no","left","s","443.010275408","359.96128321","15","green","3"
"100","100","22","459.022110243","1","1","5","280","0","right","out","Male","Right-handed","1","0","no","right","d","490.74334507","464.836577746","15","green","1"
"100","100","22","427.842951649","1","1","5","281","1","right","in","Male","Right-handed","1","0","no","right","s","372.34860378","296.262347954","15","green","0"
"100","100","22","441.158431277","1","1","5","282","3","left","out","Male","Right-handed","1","0","no","left","d","404.873017455","583.967682127","15","green","2"
"100","83","22","434.477555839","1","0","5","283","3","left","out","Male","Right-handed","1","0","no","left","d","361.587632179","440.558725117","15","red","1"
"100","85","22","441.724159907","1","1","5","284","3","left","out","Male","Right-handed","1","0","no","left","s","434.143771044","536.263797588","15","red","1"
"100","87","22","439.123181903","1","1","5","285","2","left","out","Male","Right-handed","1","0","no","left","s","353.935357199","487.897314553","15","red","3"
"100","88","22","443.493094975","1","1","5","286","2","right","out","Male","Right-handed","1","0","no","right","s","596.470460327","360.434338766","15","green","2"
"100","90","22","452.85313437","1","1","5","287","0","left","in","Male","Right-handed","1","0","no","left","d","434.26019082","639.926787036","15","red","1"
"100","81","22","465.381298669","1","0","5","288","3","left","in","Male","Right-handed","1","0","no","left","d","485.509265956","695.816617367","15","green","3"
"91","83","22","459.290709585","0","1","5","289","2","right","in","Male","Right-handed","1","0","no","left","s","381.234671798","403.353787507","15","green","1"
"92","84","22","453.841163018","1","1","5","290","1","left","in","Male","Right-handed","1","0","no","left","s","401.038220644","375.854987786","15","green","1"
"92","85","22","456.580406685","1","1","5","291","1","left","in","Male","Right-handed","1","0","no","left","s","647.632300811","336.74884791","15","green","2"
"93","86","22","462.86255165","1","1","5","292","2","left","in","Male","Right-handed","1","0","no","left","s","781.27001466","320.355147663","15","red","1"
"93","87","22","454.342531752","1","1","5","293","1","left","in","Male","Right-handed","1","0","no","left","s","364.999405073","288.085061483","15","red","0"
"94","88","22","463.650033669","1","1","5","294","1","left","out","Male","Right-handed","1","0","no","left","d","472.582180975","752.557947703","15","green","3"
"94","83","22","456.923480778","1","0","5","295","0","left","out","Male","Right-handed","1","0","no","left","s","301.034596558","384.109566723","15","red","2"
"94","84","22","455.390877831","1","1","5","296","0","left","in","Male","Right-handed","1","0","no","left","d","311.84175121","543.766298367","15","red","3"
"90","85","22","451.714120821","0","1","5","297","1","right","in","Male","Right-handed","1","0","no","left","d","329.32267745","434.388797787","15","green","1"
"90","85","22","452.112750116","1","1","5","298","3","right","out","Male","Right-handed","1","0","no","right","s","416.090367403","504.080304628","15","red","3"
"90","86","22","447.868300866","1","1","5","299","2","left","out","Male","Right-handed","1","0","no","left","s","445.79953926","271.670194004","15","green","2"
"91","86","22","447.410319578","1","1","5","300","2","left","in","Male","Right-handed","1","0","no","left","d","362.228422012","512.44104044","15","green","3"
"91","87","22","450.537731873","1","1","5","301","1","right","in","Male","Right-handed","1","0","no","right","d","564.971695242","479.964734109","15","green","2"
"92","88","22","447.960694375","1","1","5","302","0","left","in","Male","Right-handed","1","0","no","left","d","316.6752565","455.548332327","15","red","2"
"88","88","22","452.200943096","0","1","5","303","2","right","in","Male","Right-handed","1","0","no","left","s","697.267855602","419.14646666","15","red","1"
"88","88","22","456.538215186","1","1","5","304","1","left","out","Male","Right-handed","1","0","no","left","s","562.770623859","575.843955168","15","green","1"
"89","89","22","452.479307084","1","1","5","305","0","left","in","Male","Right-handed","1","0","no","left","s","301.498992793","384.27858386","15","red","0"
"89","89","22","453.690415611","1","1","5","306","3","right","out","Male","Right-handed","1","0","no","right","d","495.074930397","480.127978366","15","green","0"
"90","90","22","453.890168366","1","1","5","307","2","right","in","Male","Right-handed","1","0","no","right","d","391.672041326","527.693955184","15","red","3"
"90","90","22","455.358416944","1","1","5","308","3","right","in","Male","Right-handed","1","0","no","right","s","566.475210125","432.336538459","15","green","0"
"90","90","22","458.019446272","1","1","5","309","0","left","in","Male","Right-handed","1","0","no","left","s","417.057004317","663.965706519","15","green","0"
"90","90","22","460.567687467","1","1","5","310","2","right","out","Male","Right-handed","1","0","no","right","d","580.715625618","503.507185793","15","red","1"
"91","91","22","462.409571634","1","1","5","311","1","left","out","Male","Right-handed","1","0","no","left","d","526.163500188","520.219998095","15","red","1"
"91","91","22","461.481864745","1","1","5","312","1","right","out","Male","Right-handed","1","0","no","right","s","411.909839138","447.969821942","15","green","3"
"91","91","22","463.58156848","1","1","5","313","3","left","out","Male","Right-handed","1","0","no","left","d","490.503770493","583.638627889","15","red","3"
"91","91","22","463.312862112","1","1","5","314","1","left","out","Male","Right-handed","1","0","no","left","d","387.164383118","520.114482651","15","green","1"
"92","92","22","460.58647529","1","1","5","315","3","right","in","Male","Right-handed","1","0","no","right","s","343.643913282","375.776412456","15","red","3"
"92","92","22","461.236791481","1","1","5","316","1","right","in","Male","Right-handed","1","0","no","right","d","476.439427882","495.458185577","15","red","2"
"92","92","22","461.059000612","1","1","5","317","3","left","in","Male","Right-handed","1","0","no","left","s","364.055218252","544.195095167","15","red","1"
"92","92","22","460.429366109","1","1","5","318","0","left","out","Male","Right-handed","1","0","no","left","d","382.68462717","487.803344872","15","red","1"
"92","92","22","462.071394293","1","1","5","319","0","right","out","Male","Right-handed","1","0","no","right","d","507.336530441","551.452569205","15","green","2"
"93","93","22","461.638837786","1","1","5","320","3","right","in","Male","Right-handed","1","0","no","right","d","454.998625734","431.94430324","15","green","1"
"93","93","22","461.648325426","1","1","5","321","1","right","out","Male","Right-handed","1","0","no","right","s","412.48616513","511.626422734","15","red","1"
"93","93","22","461.084561202","1","1","5","322","3","right","out","Male","Right-handed","1","0","no","right","d","417.260017313","455.297853419","15","green","2"
"93","93","22","459.536218563","1","1","5","323","0","right","in","Male","Right-handed","1","0","no","right","s","443.885187652","335.836411936","15","green","3"
"93","93","22","458.069764507","1","1","5","324","1","right","in","Male","Right-handed","1","0","no","right","d","381.709651649","399.516104254","15","red","3"
"93","91","22","463.593828058","1","0","5","325","2","right","in","Male","Right-handed","1","0","no","right","s","822.32161556","624.128014286","15","red","1"
"93","91","22","464.207867111","1","1","5","326","2","left","out","Male","Right-handed","1","0","no","left","d","571.572664381","415.790819002","15","red","2"
"94","92","22","466.819158397","1","1","5","327","3","right","in","Male","Right-handed","1","0","no","right","d","518.295383587","671.249479237","15","red","1"
"94","92","22","467.399350332","1","1","5","328","2","right","out","Male","Right-handed","1","0","no","right","d","472.848054234","519.969839902","15","red","0"
"94","92","22","468.048958031","1","1","5","329","3","left","in","Male","Right-handed","1","0","no","left","s","458.604110869","543.753790458","15","green","1"
"94","92","22","467.769797532","1","1","5","330","0","left","out","Male","Right-handed","1","0","no","left","s","539.213419255","367.293483989","15","green","3"
"94","92","22","468.353649303","1","1","5","331","1","left","in","Male","Right-handed","1","0","no","left","d","470.828828615","527.766757632","15","red","2"
"94","92","22","470.88402086","1","1","5","332","2","right","out","Male","Right-handed","1","0","no","right","d","415.427127474","799.621042409","15","green","1"
"94","92","22","469.683034794","1","1","5","333","0","left","in","Male","Right-handed","1","0","no","left","d","392.092499519","415.165102804","15","green","1"
"94","92","22","469.404499547","1","1","5","334","2","right","out","Male","Right-handed","1","0","no","right","s","411.810417293","495.802634166","15","green","3"
"94","93","22","469.533281231","1","1","5","335","2","right","in","Male","Right-handed","1","0","no","right","s","618.375337995","335.372336417","15","red","2"
"94","93","22","468.601839061","1","1","5","336","2","right","out","Male","Right-handed","1","0","no","right","d","349.079081098","480.077305296","15","red","0"
"95","93","22","467.535886208","1","1","5","337","0","left","out","Male","Right-handed","1","0","no","left","s","417.673099046","391.616236806","15","green","1"
"95","91","22","466.803660787","1","0","5","338","3","left","out","Male","Right-handed","1","0","no","left","d","414.271909769","431.468361243","15","green","2"
"95","91","22","467.063259824","1","1","5","339","3","right","out","Male","Right-handed","1","0","no","right","d","477.836785891","487.960816246","15","red","2"
"95","92","22","465.793000123","1","1","5","340","1","right","out","Male","Right-handed","1","0","no","right","s","366.539481537","407.534315771","15","red","3"
"95","92","22","465.519877434","1","1","5","341","0","right","out","Male","Right-handed","1","0","no","right","d","393.374079185","503.252216867","15","red","1"
"100","100","22","417.793527767","1","1","6","342","0","right","in","Male","Right-handed","1","0","no","right","d","387.844620974","447.74243456","15","green","3"
"100","50","22","459.185327773","1","0","6","343","1","left","out","Male","Right-handed","1","0","no","left","s","360.601752326","640.552503233","15","red","3"
"100","66","22","491.325711206","1","1","6","344","1","left","out","Male","Right-handed","1","0","no","left","d","415.201022954","696.011933187","15","green","1"
"100","75","22","470.687232664","1","1","6","345","0","right","out","Male","Right-handed","1","0","no","right","d","417.900807146","399.642786929","15","green","0"
"100","80","22","462.622806025","1","1","6","346","2","right","out","Male","Right-handed","1","0","no","right","s","348.310967159","512.419231777","15","green","3"
"100","83","22","460.619380995","1","1","6","347","1","left","in","Male","Right-handed","1","0","no","left","d","453.09421631","448.110295388","15","green","1"
"100","85","22","460.469576251","1","1","6","348","2","left","in","Male","Right-handed","1","0","no","left","d","383.558256552","535.583239017","15","red","1"
"100","87","22","470.188980884","1","1","6","349","0","right","in","Male","Right-handed","1","0","no","right","d","660.229369406","416.220257232","15","green","1"
"88","88","22","462.535175823","0","1","6","350","0","right","out","Male","Right-handed","1","0","no","left","s","447.681819304","354.927651364","15","red","2"
"90","90","22","451.883611014","1","1","6","351","1","right","in","Male","Right-handed","1","0","no","right","s","392.491469766","319.547585701","15","red","3"
"81","90","22","450.188970024","0","1","6","352","2","right","in","Male","Right-handed","1","0","no","left","d","424.169514888","442.315605349","15","red","1"
"83","91","22","444.413366209","1","1","6","353","1","right","out","Male","Right-handed","1","0","no","right","s","433.794191006","327.969257482","15","red","0"
"76","92","22","446.573068359","0","1","6","354","0","left","in","Male","Right-handed","1","0","no","right","s","510.402892598","434.576095718","15","green","3"
"78","92","22","446.181064867","1","1","6","355","1","left","in","Male","Right-handed","1","0","no","left","d","402.070283548","480.099755391","15","green","1"
"80","93","22","464.712161462","1","1","6","356","0","right","out","Male","Right-handed","1","0","no","right","d","784.628548759","663.666478835","15","red","1"
"81","93","22","483.69117915","1","1","6","357","2","left","in","Male","Right-handed","1","0","no","left","d","1057.26922827","479.483660661","15","red","2"
"82","94","22","481.88150995","1","1","6","358","1","left","in","Male","Right-handed","1","0","no","left","d","417.896317126","487.957288375","15","red","3"
"83","94","22","484.562415414","1","1","6","359","3","left","in","Male","Right-handed","1","0","no","left","s","644.677868408","415.597748192","15","red","1"
"84","94","22","478.963670903","1","1","6","360","1","left","out","Male","Right-handed","1","0","no","left","s","404.207853236","352.164686194","15","red","1"
"85","95","22","474.209997219","1","1","6","361","3","left","in","Male","Right-handed","1","0","no","left","d","343.882204996","423.898189464","15","green","0"
"85","90","22","472.721959538","1","0","6","362","1","right","in","Male","Right-handed","1","0","no","right","d","478.49617723","407.426234603","15","red","1"
"86","90","22","471.402537858","1","1","6","363","3","right","in","Male","Right-handed","1","0","no","right","s","535.199983836","352.189381299","15","green","1"
"86","91","22","472.395921886","1","1","6","364","1","left","out","Male","Right-handed","1","0","no","left","d","476.775217148","511.725523865","15","green","0"
"87","91","22","469.437991824","1","1","6","365","3","right","out","Male","Right-handed","1","0","no","right","s","427.221765559","375.589435243","15","green","1"
"88","92","22","468.503447853","1","1","6","366","1","left","out","Male","Right-handed","1","0","no","left","s","516.023113334","376.125671779","15","red","2"
"84","92","22","466.318450492","0","1","6","367","0","right","in","Male","Right-handed","1","0","no","left","d","348.684921587","474.702111302","15","green","1"
"85","92","22","469.151159205","1","1","6","368","1","left","in","Male","Right-handed","1","0","no","left","d","614.238106341","471.365065152","15","green","3"
"85","92","22","465.286501688","1","1","6","369","2","left","out","Male","Right-handed","1","0","no","left","s","377.877741276","344.003756221","15","green","1"
"86","93","22","461.315783656","1","1","6","370","0","left","out","Male","Right-handed","1","0","no","left","s","436.673896667","263.59746083","15","red","2"
"86","93","22","456.715459274","1","1","6","371","2","left","out","Male","Right-handed","1","0","no","left","s","327.266890248","319.345214138","15","green","1"
"87","93","22","452.480889047","1","1","6","372","2","right","out","Male","Right-handed","1","0","no","right","s","354.918671326","295.968893149","15","green","1"
"87","90","22","451.606296225","1","0","6","373","2","left","out","Male","Right-handed","1","0","no","left","s","497.499219859","351.488617642","15","green","2"
"87","90","22","450.502182854","1","1","6","374","3","right","out","Male","Right-handed","1","0","no","right","s","471.105926921","359.235183018","15","red","1"
"88","91","22","449.422602442","1","1","6","375","3","right","in","Male","Right-handed","1","0","no","right","d","355.77305777","471.819839918","15","green","3"
"88","91","22","449.310339977","1","1","6","376","1","left","out","Male","Right-handed","1","0","no","left","s","387.570409108","503.41642327","15","green","1"
"88","91","22","452.889764549","1","1","6","377","3","right","in","Male","Right-handed","1","0","no","right","d","621.151452505","535.187796642","15","green","2"
"89","91","22","456.801914385","1","1","6","378","0","left","out","Male","Right-handed","1","0","no","left","d","411.600348553","783.678268341","15","red","3"
"89","92","22","456.734093977","1","1","6","379","0","right","out","Male","Right-handed","1","0","no","right","d","365.112617691","543.336860136","15","red","3"
"89","92","22","455.254178528","1","1","6","380","2","right","out","Male","Right-handed","1","0","no","right","d","406.052930266","391.981852626","15","green","0"
"90","92","22","453.575654573","1","1","6","381","3","right","in","Male","Right-handed","1","0","no","right","s","376.668001913","399.558438717","15","red","0"
"87","92","22","453.103176792","0","1","6","382","2","right","out","Male","Right-handed","1","0","no","left","s","402.243790705","466.164340463","15","red","1"
"88","92","22","451.737867904","1","1","6","383","3","left","in","Male","Right-handed","1","0","no","left","d","375.734077992","415.786328983","15","red","1"
"88","90","22","451.150552786","1","0","6","384","3","right","in","Male","Right-handed","1","0","no","right","d","389.487326441","463.479309192","15","red","2"
"88","90","22","448.947414211","1","1","6","385","0","right","in","Male","Right-handed","1","0","no","right","s","373.256549735","335.168361275","15","green","1"
"88","91","22","451.676346755","1","1","6","386","2","left","in","Male","Right-handed","1","0","no","left","d","671.833502403","471.665254984","15","green","3"
"89","91","22","452.648519191","1","1","6","387","1","left","out","Male","Right-handed","1","0","no","left","d","537.282069719","455.510487882","15","red","2"
"89","91","22","456.486886153","1","1","6","388","0","right","out","Male","Right-handed","1","0","no","right","s","402.990416696","863.113116083","15","red","2"
"87","91","22","458.885338389","0","1","6","389","0","right","out","Male","Right-handed","1","0","no","left","s","843.597569873","299.62761708","15","green","1"
"87","91","22","457.413529355","1","1","6","390","3","right","out","Male","Right-handed","1","0","no","right","s","430.323406436","343.209985033","15","red","3"
"88","92","22","456.834559162","1","1","6","391","3","left","out","Male","Right-handed","1","0","no","left","s","505.993052658","350.936986754","15","green","3"
"88","92","22","458.091541259","1","1","6","392","0","right","in","Male","Right-handed","1","0","no","right","d","538.438570288","503.442721953","15","red","2"
"88","92","22","458.746520945","1","1","6","393","1","right","out","Male","Right-handed","1","0","no","right","s","601.11057409","383.190395722","15","green","2"
"88","92","22","459.946762657","1","1","6","394","2","left","in","Male","Right-handed","1","0","no","left","s","637.78248232","406.936181117","15","green","0"
"88","92","22","460.389813934","1","1","6","395","1","right","in","Male","Right-handed","1","0","no","right","s","592.281272741","375.461790422","15","green","2"
"89","92","22","460.065929804","1","1","6","396","0","left","in","Male","Right-handed","1","0","no","left","s","398.078656792","487.073716808","15","red","0"
"89","92","22","458.389466205","1","1","6","397","3","left","in","Male","Right-handed","1","0","no","left","s","333.650414188","398.71752233","15","red","1"
"87","92","22","459.722378759","0","1","6","398","3","left","in","Male","Right-handed","1","0","no","right","d","442.489433222","626.241530301","15","red","2"
"87","91","22","457.546891141","1","0","6","399","2","left","in","Male","Right-handed","1","0","no","left","s","388.026466737","279.061727176","15","green","2"
"88","91","22","456.394146422","1","1","6","400","2","right","out","Male","Right-handed","1","0","no","right","s","427.460377988","351.609527435","15","green","3"
"88","91","22","455.941839717","1","1","6","401","2","right","in","Male","Right-handed","1","0","no","right","d","467.173953272","391.337534922","15","red","2"
"88","91","22","455.89163738","1","1","6","402","2","left","out","Male","Right-handed","1","0","no","left","d","474.947458762","430.811535628","15","red","3"
"88","90","22","453.918408929","1","0","6","403","0","left","out","Male","Right-handed","1","0","no","left","s","363.558750453","303.544196378","15","red","1"
"88","90","22","452.573066135","1","1","6","404","3","right","in","Male","Right-handed","1","0","no","right","s","419.093869295","319.22975651","15","red","3"
"89","90","22","451.882707999","1","1","6","405","3","left","out","Male","Right-handed","1","0","no","left","d","369.912768555","446.867522315","15","green","2"
"100","100","22","385.969396673","1","1","7","406","3","left","out","Male","Right-handed","1","0","no","left","s","364.449698479","407.489094867","15","red","0"
"100","100","22","528.290325901","1","1","7","407","0","right","out","Male","Right-handed","1","0","no","right","d","677.166041218","664.056469042","15","red","1"
"100","100","22","510.935013284","1","1","7","408","1","right","in","Male","Right-handed","1","0","no","right","d","488.614113989","463.834662111","15","green","1"
"75","100","22","478.305672144","0","1","7","409","0","right","in","Male","Right-handed","1","0","no","left","s","366.48784632","394.347451129","15","red","2"
"80","100","22","512.049350439","1","1","7","410","3","right","in","Male","Right-handed","1","0","no","right","d","406.051005973","887.997121257","15","green","0"
"83","100","22","512.701568438","1","1","7","411","0","left","in","Male","Right-handed","1","0","no","left","d","424.511397752","607.413919122","15","green","3"
"85","100","22","489.638090278","1","1","7","412","2","left","in","Male","Right-handed","1","0","no","left","s","407.107763981","295.406678646","15","red","3"
"87","100","22","510.787390552","1","1","7","413","0","right","out","Male","Right-handed","1","0","no","right","d","733.833286242","583.831698699","15","green","1"
"88","100","22","515.881018491","1","1","7","414","2","left","out","Male","Right-handed","1","0","no","left","d","497.559193681","615.700890338","15","red","1"
"90","100","22","505.556382289","1","1","7","415","2","left","out","Male","Right-handed","1","0","no","left","s","378.117315854","447.15199708","15","red","1"
"90","100","22","513.302642985","1","1","7","416","1","right","in","Male","Right-handed","1","0","no","right","s","453.865537405","727.664962491","15","red","3"
"91","100","22","502.767107747","1","1","7","417","1","left","out","Male","Right-handed","1","0","no","left","d","390.451076915","383.30136333","15","green","1"
"92","100","22","503.324106509","1","1","7","418","0","left","out","Male","Right-handed","1","0","no","left","s","475.826219594","544.189963718","15","green","1"
"92","100","22","497.926229815","1","1","7","419","2","right","in","Male","Right-handed","1","0","no","right","s","503.740987489","351.766678095","15","green","1"
"93","100","22","492.551325993","1","1","7","420","3","right","out","Male","Right-handed","1","0","no","right","s","411.321646669","423.283698313","15","green","1"
"93","100","22","488.580238401","1","1","7","421","0","right","out","Male","Right-handed","1","0","no","right","s","434.083797222","423.944051799","15","green","2"
"94","100","22","488.549480357","1","1","7","422","0","left","in","Male","Right-handed","1","0","no","left","d","448.669944166","527.444759138","15","red","0"
"94","100","22","485.813357827","1","1","7","423","2","right","in","Male","Right-handed","1","0","no","right","d","439.297029821","439.301519839","15","green","3"
"94","100","22","482.604502277","1","1","7","424","1","right","in","Male","Right-handed","1","0","no","right","d","433.96352886","415.726675875","15","red","2"
"95","100","22","482.847943587","1","1","7","425","1","left","out","Male","Right-handed","1","0","no","left","d","479.398671018","495.547985954","15","red","1"
"95","100","22","479.742012375","1","1","7","426","1","left","out","Male","Right-handed","1","0","no","left","s","412.167694507","423.07908174","15","green","2"
"95","100","22","477.405408787","1","1","7","427","3","left","in","Male","Right-handed","1","0","no","left","s","376.824831857","479.84863505","15","green","2"
"95","95","22","476.468536311","1","0","7","428","0","right","in","Male","Right-handed","1","0","no","right","s","400.306668287","511.40801539","15","green","2"
"95","95","22","475.36903946","1","1","7","429","2","right","out","Male","Right-handed","1","0","no","right","d","429.056579689","471.104644058","15","red","1"
"96","96","22","475.483688884","1","1","7","430","0","left","out","Male","Right-handed","1","0","no","left","d","524.645553101","431.824997026","15","red","0"
"96","96","22","475.725194169","1","1","7","431","1","left","in","Male","Right-handed","1","0","no","left","d","340.29820781","623.227444791","15","red","2"
"96","96","22","474.344139205","1","1","7","432","2","right","out","Male","Right-handed","1","0","no","right","d","429.941113404","446.932306873","15","green","2"
"96","96","22","477.459475404","1","1","7","433","0","left","in","Male","Right-handed","1","0","no","left","d","347.541249643","775.605855883","15","green","2"
"96","96","22","483.797451799","1","1","7","434","1","left","out","Male","Right-handed","1","0","no","left","s","651.205072952","671.316508805","15","red","3"
"96","96","22","483.415874846","1","1","7","435","3","right","in","Male","Right-handed","1","0","no","right","d","465.851001291","478.849285141","15","red","3"
"96","96","22","482.160518857","1","1","7","436","1","left","in","Male","Right-handed","1","0","no","left","s","537.524851452","351.47482687","15","red","1"
"96","96","22","479.733979212","1","1","7","437","3","left","in","Male","Right-handed","1","0","no","left","d","353.866724053","455.155776394","15","red","1"
"96","96","22","478.734619584","1","1","7","438","3","left","out","Male","Right-handed","1","0","no","left","s","365.698885866","527.811337106","15","green","1"
"94","97","22","479.106418899","0","1","7","439","2","left","in","Male","Right-handed","1","0","no","right","d","532.352029024","450.399563571","15","red","2"
"94","97","22","479.601349553","1","1","7","440","0","right","in","Male","Right-handed","1","0","no","right","s","585.852848612","407.005134978","15","green","1"
"94","97","22","476.529406434","1","1","7","441","3","left","in","Male","Right-handed","1","0","no","left","s","418.459814491","319.562980051","15","green","3"
"94","97","22","473.534628391","1","1","7","442","1","right","out","Male","Right-handed","1","0","no","right","d","388.232366173","343.212871473","15","red","3"
"94","97","22","473.780366137","1","1","7","443","2","left","in","Male","Right-handed","1","0","no","left","d","358.821780568","606.923544921","15","red","2"
"94","94","22","475.774913316","1","0","7","444","0","right","in","Male","Right-handed","1","0","no","right","d","383.580706646","719.554705588","15","green","3"
"95","95","22","473.747926173","1","1","7","445","2","left","out","Male","Right-handed","1","0","no","left","s","382.171482159","407.21937302","15","green","3"
"95","95","22","473.418239694","1","1","7","446","3","left","in","Male","Right-handed","1","0","no","left","d","505.639303315","414.822257793","15","green","2"
"95","95","22","471.965311183","1","1","7","447","0","left","in","Male","Right-handed","1","0","no","left","s","489.443484614","335.346999882","15","green","3"
"95","95","22","471.037897915","1","1","7","448","3","right","in","Male","Right-handed","1","0","no","right","s","529.076880989","335.096200257","15","red","2"
"95","95","22","470.381397508","1","1","7","449","3","right","in","Male","Right-handed","1","0","no","right","s","621.664918232","262.638841806","15","green","1"
"93","95","22","472.635797502","0","1","7","450","0","right","in","Male","Right-handed","1","0","no","left","d","389.337231525","754.321562962","15","red","1"
"93","95","22","471.066569535","1","1","7","451","2","right","out","Male","Right-handed","1","0","no","right","s","465.817005434","335.085616642","15","green","0"
"93","95","22","468.981946706","1","1","7","452","0","right","out","Male","Right-handed","1","0","no","right","s","378.53617047","367.642422596","15","red","1"
"93","95","22","467.50961893","1","1","7","453","1","right","out","Male","Right-handed","1","0","no","right","d","389.272446968","407.347979988","15","green","3"
"93","95","22","467.6415763","1","1","7","454","3","left","out","Male","Right-handed","1","0","no","left","d","404.927218399","543.02384168","15","green","1"
"94","96","22","465.819279307","1","1","7","455","3","right","out","Male","Right-handed","1","0","no","right","s","401.508389761","351.545063593","15","red","2"
"94","96","22","465.382923114","1","1","7","456","1","left","out","Male","Right-handed","1","0","no","left","s","376.03971999","511.090506913","15","green","0"
"94","96","22","469.437965098","1","1","7","457","3","right","out","Male","Right-handed","1","0","no","right","d","825.712221222","526.777991338","15","red","1"
"94","96","22","468.965522228","1","1","7","458","2","left","out","Male","Right-handed","1","0","no","left","d","417.390548574","471.406437468","15","red","0"
"94","96","22","471.855186938","1","1","7","459","3","left","in","Male","Right-handed","1","0","no","left","d","723.040884508","526.97394859","15","red","3"
"92","94","22","474.11372932","0","0","7","460","2","left","in","Male","Right-handed","1","0","no","right","d","686.580007165","505.57002874","15","green","1"
"92","92","22","475.21423117","1","0","7","461","0","left","out","Male","Right-handed","1","0","no","left","d","496.189417217","575.294248574","15","red","3"
"91","92","22","477.541752829","0","1","7","462","2","right","out","Male","Right-handed","1","0","no","left","s","829.941498262","385.824433208","15","green","2"
"91","93","22","476.513339011","1","1","7","463","2","right","in","Male","Right-handed","1","0","no","right","d","429.386916791","406.400586012","15","red","3"
"91","93","22","474.438849974","1","1","7","464","2","right","out","Male","Right-handed","1","0","no","right","s","397.157240781","311.079730868","15","red","1"
"91","93","22","472.543518706","1","1","7","465","1","left","in","Male","Right-handed","1","0","no","left","s","402.773933644","318.664014135","15","green","2"
"91","93","22","471.172123153","1","1","7","466","3","right","out","Male","Right-handed","1","0","no","right","s","371.316861592","406.459918404","15","red","3"
"91","93","22","470.94399915","1","1","7","467","1","left","out","Male","Right-handed","1","0","no","left","d","395.024161113","519.032708826","15","green","1"
"92","93","22","469.224133041","1","1","7","468","1","right","out","Male","Right-handed","1","0","no","right","s","398.55459879","326.630269718","15","green","1"
"92","92","22","468.202418148","1","0","7","469","1","right","in","Male","Right-handed","1","0","no","right","s","392.432458091","415.236301674","15","red","0"
"100","100","22","317.154084939","1","1","8","470","1","right","out","Male","Right-handed","1","0","no","right","s","338.675707426","295.632462451","15","red","3"
"100","100","22","371.731787441","1","1","8","471","2","right","out","Male","Right-handed","1","0","no","right","d","325.210782331","527.408197556","15","green","1"
"100","100","22","390.482132879","1","1","8","472","0","left","in","Male","Right-handed","1","0","no","left","d","368.001624104","487.964023404","15","red","1"
"100","100","22","383.256342873","1","1","8","473","3","right","out","Male","Right-handed","1","0","no","right","s","395.560076933","327.597868781","15","green","2"
"100","80","22","390.527952452","1","0","8","474","2","left","in","Male","Right-handed","1","0","no","left","s","336.054498566","503.174282968","15","green","2"
"100","83","22","388.915677553","1","1","8","475","1","right","out","Male","Right-handed","1","0","no","right","s","353.807070945","407.90153517","15","green","3"
"100","71","22","381.211213739","1","0","8","476","3","left","out","Male","Right-handed","1","0","no","left","s","318.48665839","351.482203329","15","red","1"
"87","75","22","378.263482003","0","1","8","477","1","right","in","Male","Right-handed","1","0","no","left","s","441.093678792","274.165040906","15","green","1"
"88","66","22","382.369702237","1","0","8","478","2","left","out","Male","Right-handed","1","0","no","left","d","350.74199165","479.696936556","15","red","2"
"90","70","22","375.073932971","1","1","8","479","2","left","in","Male","Right-handed","1","0","no","left","s","339.378716092","279.445303072","15","green","0"
"90","72","22","374.655205184","1","1","8","480","2","left","out","Male","Right-handed","1","0","no","left","d","325.907376684","415.028477944","15","red","0"
"91","75","22","373.03343856","1","1","8","481","0","right","out","Male","Right-handed","1","0","no","right","s","407.67094063","302.717070763","15","red","0"
"92","69","22","370.480669593","1","0","8","482","2","right","out","Male","Right-handed","1","0","no","right","s","360.339727655","319.355156322","15","green","1"
"92","71","22","382.0914407","1","1","8","483","2","left","in","Male","Right-handed","1","0","no","left","d","651.023227188","415.039702991","15","green","3"
"93","73","22","388.791277305","1","1","8","484","0","left","out","Male","Right-handed","1","0","no","left","d","493.523628885","471.654350652","15","red","3"
"93","75","22","391.686463507","1","1","8","485","2","right","in","Male","Right-handed","1","0","no","right","d","455.056675262","415.171837833","15","green","3"
"94","76","22","399.076620078","1","1","8","486","3","right","in","Male","Right-handed","1","0","no","right","s","595.763923788","438.874326617","15","red","2"
"94","77","22","397.993061353","1","1","8","487","3","right","in","Male","Right-handed","1","0","no","right","s","367.652364781","391.492761287","15","green","3"
"94","78","22","397.102913241","1","1","8","488","3","left","out","Male","Right-handed","1","0","no","left","d","331.057428303","431.103066138","15","green","3"
"95","75","22","395.080406616","1","0","8","489","1","left","out","Male","Right-handed","1","0","no","left","s","370.689862532","342.615698966","15","green","2"
"95","76","22","392.040856667","1","1","8","490","2","right","out","Male","Right-handed","1","0","no","right","s","335.309155437","327.190559928","15","green","3"
"95","77","22","395.746551206","1","1","8","491","1","right","in","Male","Right-handed","1","0","no","right","s","468.058166271","479.074106799","15","red","1"
"95","78","22","396.616507253","1","1","8","492","1","right","in","Male","Right-handed","1","0","no","right","d","392.733289353","438.777791212","15","red","3"
"95","79","22","397.601565563","1","1","8","493","0","right","in","Male","Right-handed","1","0","no","right","d","393.235530033","447.280283333","15","green","1"
"96","80","22","400.899934478","1","1","8","494","0","right","in","Male","Right-handed","1","0","no","right","d","377.064406435","583.057170448","15","red","2"
"96","80","22","400.638929682","1","1","8","495","1","right","out","Male","Right-handed","1","0","no","right","s","469.544362509","318.683257073","15","red","1"
"96","81","22","398.731699149","1","1","8","496","3","left","out","Male","Right-handed","1","0","no","left","s","347.08551273","351.201897867","15","green","3"
"96","78","22","405.233776726","1","0","8","497","3","left","in","Male","Right-handed","1","0","no","left","d","490.789528122","670.790214453","15","green","1"
"96","79","22","405.174434855","1","1","8","498","1","left","out","Male","Right-handed","1","0","no","left","s","415.567600922","391.458124","15","green","3"
"96","80","22","404.308755719","1","1","8","499","1","left","out","Male","Right-handed","1","0","no","left","s","431.19831868","327.209802866","15","red","0"
"96","80","22","404.213424376","1","1","8","500","0","left","in","Male","Right-handed","1","0","no","left","d","331.830352977","470.876615244","15","red","2"
"96","81","22","404.824759776","1","1","8","501","2","right","out","Male","Right-handed","1","0","no","right","d","345.339857544","502.212456787","15","red","1"
"96","81","22","404.499169935","1","1","8","502","1","left","out","Male","Right-handed","1","0","no","left","d","397.046593888","391.113996126","15","red","2"
"97","82","22","402.449029844","1","1","8","503","2","right","out","Male","Right-handed","1","0","no","right","s","374.787966878","294.800846817","15","red","1"
"94","82","22","406.373952869","0","1","8","504","0","left","in","Male","Right-handed","1","0","no","right","d","446.330002915","633.312668556","15","green","3"
"91","83","22","406.821177837","0","1","8","505","2","left","in","Male","Right-handed","1","0","no","right","d","442.97563812","401.97246528","15","red","1"
"91","83","22","420.379596595","1","1","8","506","3","left","in","Male","Right-handed","1","0","no","left","s","770.42309127","1046.54225252","15","green","2"
"92","84","22","424.665484734","1","1","8","507","3","right","in","Male","Right-handed","1","0","no","right","d","519.175106566","647.311585179","15","red","0"
"89","84","22","434.217428735","0","1","8","508","0","right","out","Male","Right-handed","1","0","no","left","s","336.823574651","1257.55902691","15","red","1"
"90","85","22","434.331838692","1","1","8","509","0","left","out","Male","Right-handed","1","0","no","left","s","575.197392454","302.390261534","15","green","3"
"90","85","22","433.054585558","1","1","8","510","2","left","out","Male","Right-handed","1","0","no","left","s","404.972118586","358.956801849","15","red","1"
"90","85","22","433.200748728","1","1","8","511","2","right","out","Male","Right-handed","1","0","no","right","s","415.654835574","462.73204177","15","green","2"
"90","86","22","433.689123073","1","1","8","512","0","right","out","Male","Right-handed","1","0","no","right","d","477.268477791","431.133213408","15","green","1"
"88","84","22","432.376711736","0","0","8","513","0","left","in","Male","Right-handed","1","0","no","right","s","373.884190226","378.001858227","15","red","3"
"88","84","22","433.857179556","1","1","8","514","1","right","in","Male","Right-handed","1","0","no","right","s","463.467442714","534.528084586","15","red","1"
"89","84","22","433.973464072","1","1","8","515","2","left","in","Male","Right-handed","1","0","no","left","d","407.293458331","471.119076262","15","red","2"
"89","85","22","434.884061197","1","1","8","516","3","right","in","Male","Right-handed","1","0","no","right","d","418.782133702","534.760924135","15","red","1"
"87","85","22","435.644389465","0","1","8","517","0","right","out","Male","Right-handed","1","0","no","left","d","405.479811432","537.279824709","15","red","2"
"87","83","22","442.285713343","1","0","8","518","1","left","in","Male","Right-handed","1","0","no","left","s","387.099277845","1135.03924116","15","red","1"
"88","82","22","445.313218904","1","0","8","519","1","left","in","Male","Right-handed","1","0","no","left","s","428.641894378","758.680088402","15","red","2"
"88","82","22","446.664801737","1","1","8","520","3","right","out","Male","Right-handed","1","0","no","right","d","390.25095036","638.236936371","15","green","2"
"86","80","22","445.371171109","0","0","8","521","0","right","in","Male","Right-handed","1","0","no","left","s","300.862372262","457.929645895","15","green","1"
"86","81","22","445.477023385","1","1","8","522","1","left","in","Male","Right-handed","1","0","no","left","s","615.463240055","286.499443399","15","green","1"
"85","79","22","448.832119371","0","0","8","523","1","left","out","Male","Right-handed","1","0","no","right","s","556.209744175","697.09466916","15","green","2"
"85","80","22","449.965617827","1","1","8","524","3","right","in","Male","Right-handed","1","0","no","right","s","535.673039393","486.676029426","15","green","0"
"85","80","22","449.364044383","1","1","8","525","1","right","in","Male","Right-handed","1","0","no","right","s","418.284703756","414.27030619","15","green","0"
"85","80","22","449.095410025","1","1","8","526","3","left","out","Male","Right-handed","1","0","no","left","s","356.95810203","511.145670002","15","green","1"
"84","79","22","452.543080321","0","0","8","527","3","right","in","Male","Right-handed","1","0","no","left","d","656.557496135","641.56307819","15","red","1"
"84","79","22","451.509242375","1","1","8","528","0","left","in","Male","Right-handed","1","0","no","left","s","424.992150485","358.101132543","15","green","0"
"85","78","22","455.130602889","1","0","8","529","3","left","in","Male","Right-handed","1","0","no","left","d","370.873953305","966.707793102","15","red","1"
"85","77","22","457.540420672","1","0","8","530","3","right","out","Male","Right-handed","1","0","no","right","d","406.121884128","798.137091179","15","red","3"
"83","75","22","472.401496513","0","0","8","531","0","right","in","Male","Right-handed","1","0","no","left","d","412.953127089","2344.90111856","15","green","2"
"84","74","22","470.410875058","1","0","8","532","0","left","out","Male","Right-handed","1","0","no","left","s","407.524373587","286.46031609","15","red","1"
"84","75","22","470.539803696","1","1","8","533","2","left","out","Male","Right-handed","1","0","no","left","d","367.061927303","590.262688553","15","green","3"
dis_reply=No
dis_loc=3
tar_loc=2
