"acc_1","acc_2","age","avg_rt","correct_1","correct_2","count_block_loop","count_trial_sequence","cue_position","detection","dis_shape","gender","hand","high_loc","low_loc","practice","response_keyboard_response_1","response_keyboard_response_2","response_time_keyboard_response_1","response_time_keyboard_response_2","subject_nr","tar_color","tar_position"
"100","100","25","2038.52861696","1","1","0","0","1","right","in","Male","Right-handed","1","3","yes","right","s","2221.2680634","1855.78917053","5","green","1"
"100","100","25","1497.17282875","1","1","0","1","1","right","out","Male","Right-handed","1","3","yes","right","d","1189.85415866","721.779922426","5","red","1"
"100","100","25","1411.22196401","1","1","0","2","0","left","out","Male","Right-handed","1","3","yes","left","d","1165.29935735","1313.34111171","5","red","0"
"100","100","25","1337.62891888","1","1","0","3","0","left","in","Male","Right-handed","1","3","yes","left","s","1112.01438337","1121.68518361","5","green","2"
"100","100","25","1432.77469287","1","1","0","4","3","left","in","Male","Right-handed","1","3","yes","left","d","1513.4638809","2113.25169674","5","red","1"
"100","100","25","1385.6294936","1","1","0","5","2","left","out","Male","Right-handed","1","3","yes","left","d","1409.93301574","889.873978767","5","green","0"
"100","100","25","1337.86865235","1","1","0","6","3","left","out","Male","Right-handed","1","3","yes","left","s","1149.42787887","953.179330902","5","red","0"
"100","87","25","1363.75399449","1","0","0","7","1","left","out","Male","Right-handed","1","3","yes","left","s","1679.9460303","1409.95674855","5","red","2"
"100","88","25","1332.98817415","1","1","0","8","0","left","out","Male","Right-handed","1","3","yes","left","s","1140.43667092","1033.2865519","5","red","1"
"100","80","25","1373.98306503","1","0","0","9","1","right","out","Male","Right-handed","1","3","yes","right","s","1739.99293147","1745.88123459","5","green","3"
"100","81","25","1381.1674042","1","1","0","10","2","right","in","Male","Right-handed","1","3","yes","right","d","1904.44849114","1001.57310059","5","green","2"
"100","83","25","1370.19379819","1","1","0","11","1","right","out","Male","Right-handed","1","3","yes","right","s","1569.02688414","929.941379954","5","red","0"
"100","84","25","1338.97933316","1","1","0","12","2","right","out","Male","Right-handed","1","3","yes","right","d","1047.44734362","881.364162042","5","red","3"
"100","85","25","1323.37727355","1","1","0","13","1","left","in","Male","Right-handed","1","3","yes","left","s","1263.9502432","977.15075403","5","red","3"
"100","86","25","1299.63173517","1","1","0","14","0","left","in","Male","Right-handed","1","3","yes","left","d","948.603388148","985.785007662","5","green","2"
"100","87","25","1310.29966364","1","1","0","15","0","right","out","Male","Right-handed","1","3","yes","right","d","2139.30358949","801.333591615","5","green","3"
"100","88","25","1271.38802729","1","1","0","16","1","left","in","Male","Right-handed","1","3","yes","left","s","767.806504458","529.797187085","5","red","2"
"100","83","25","1258.66445417","1","0","0","17","3","right","out","Male","Right-handed","1","3","yes","right","s","1075.45687267","1009.27054957","5","red","0"
"100","84","25","1251.67352617","1","1","0","18","0","left","in","Male","Right-handed","1","3","yes","left","s","1257.99811805","993.675526275","5","green","3"
"100","85","25","1228.83732312","1","1","0","19","2","left","out","Male","Right-handed","1","3","yes","left","s","868.60681337","721.292116922","5","red","3"
"100","85","25","1207.89350889","1","1","0","20","3","right","out","Male","Right-handed","1","3","yes","right","d","849.020187643","729.014260854","5","red","3"
"100","86","25","1191.67656311","1","1","0","21","2","right","out","Male","Right-handed","1","3","yes","right","s","1028.58617224","673.655231513","5","green","2"
"100","0","25","1717.44050601","1","0","1","22","3","left","in","Male","Right-handed","1","3","no","left","d","2417.46529718","1017.41571484","5","green","1"
"100","0","25","1467.94563005","1","0","1","23","3","left","out","Male","Right-handed","1","3","no","left","d","1395.01084974","1041.89065844","5","green","1"
"100","33","25","1301.61523168","1","1","1","24","0","right","out","Male","Right-handed","1","3","no","right","s","1328.47687302","609.431996834","5","green","2"
"100","50","25","1191.23106266","1","1","1","25","3","right","in","Male","Right-handed","1","3","no","right","s","783.023727039","937.133384177","5","red","2"
"100","40","25","1205.39299292","1","0","1","26","2","left","in","Male","Right-handed","1","3","no","left","d","1394.50925355","1129.57217437","5","red","0"
"100","33","25","1174.60868655","1","0","1","27","1","right","out","Male","Right-handed","1","3","no","right","s","1088.22480489","953.149504529","5","red","1"
"100","42","25","1135.47142757","1","1","1","28","2","right","out","Male","Right-handed","1","3","no","right","s","1055.58096321","745.714784195","5","red","0"
"100","50","25","1125.26543066","1","1","1","29","2","right","in","Male","Right-handed","1","3","no","right","s","1402.4263914","705.220513103","5","red","1"
"100","55","25","1119.30830327","1","1","1","30","3","left","out","Male","Right-handed","1","3","no","left","d","1421.49730953","721.805258806","5","green","3"
"100","50","25","1205.80326589","1","0","1","31","0","left","out","Male","Right-handed","1","3","no","left","d","2087.22802678","1881.28783219","5","red","3"
"100","54","25","1195.88566044","1","1","1","32","2","left","out","Male","Right-handed","1","3","no","left","d","1543.784152","649.635059906","5","green","1"
"100","58","25","1169.47205611","1","1","1","33","2","right","out","Male","Right-handed","1","3","no","right","s","1100.39588896","657.44892795","5","red","1"
"100","61","25","1150.62036633","1","1","1","34","1","right","in","Male","Right-handed","1","3","no","right","d","847.924309006","1000.87586905","5","red","0"
"100","64","25","1133.11785879","1","1","1","35","0","left","in","Male","Right-handed","1","3","no","left","s","865.562278427","945.608243111","5","green","0"
"100","66","25","1114.64686538","1","1","1","36","2","left","in","Male","Right-handed","1","3","no","left","s","807.166731985","904.939183065","5","green","0"
"100","68","25","1092.37302585","1","1","1","37","0","left","out","Male","Right-handed","1","3","no","left","d","930.764331251","585.766534554","5","green","1"
"100","70","25","1102.89677649","1","1","1","38","3","right","in","Male","Right-handed","1","3","no","right","d","1813.2564433","729.297130318","5","red","1"
"100","72","25","1092.97991969","1","1","1","39","1","right","out","Male","Right-handed","1","3","no","right","s","1255.80636078","592.980347307","5","green","2"
"100","73","25","1086.65786538","1","1","1","40","1","left","in","Male","Right-handed","1","3","no","left","d","1344.21621746","601.505558289","5","green","0"
"100","75","25","1075.27625474","1","1","1","41","0","right","out","Male","Right-handed","1","3","no","right","d","789.157376126","928.893929082","5","green","1"
"100","76","25","1065.36168424","1","1","1","42","3","right","in","Male","Right-handed","1","3","no","right","d","972.589564105","761.550984174","5","red","1"
"100","72","25","1066.69130136","1","0","1","43","0","left","out","Male","Right-handed","1","3","no","left","s","1188.091837","1001.13468499","5","red","2"
"100","73","25","1054.65172321","1","1","1","44","1","right","out","Male","Right-handed","1","3","no","right","d","834.808081728","744.753926017","5","green","0"
"100","75","25","1037.88879986","1","1","1","45","0","left","in","Male","Right-handed","1","3","no","left","d","711.425360626","593.257764639","5","green","0"
"100","76","25","1023.94973006","1","1","1","46","3","left","in","Male","Right-handed","1","3","no","left","s","745.974562274","632.849547441","5","red","0"
"96","73","25","1065.29301216","0","0","1","47","2","right","in","Male","Right-handed","1","3","no","left","None","1197.66032958","3000.08979983","5","green","1"
"96","74","25","1070.05623845","1","1","1","48","1","left","out","Male","Right-handed","1","3","no","left","s","1634.98421768","752.816026447","5","red","1"
"96","71","25","1071.65943373","1","0","1","49","1","right","out","Male","Right-handed","1","3","no","right","d","1492.43821291","737.453199857","5","red","0"
"96","72","25","1080.72032602","1","1","1","50","3","left","out","Male","Right-handed","1","3","no","left","s","1491.97959235","1176.87102756","5","red","2"
"96","73","25","1082.57914839","1","1","1","51","3","left","out","Male","Right-handed","1","3","no","left","d","1583.49331601","689.476678663","5","green","3"
"96","74","25","1076.35557964","1","1","1","52","1","left","in","Male","Right-handed","1","3","no","left","d","994.072890522","785.224143582","5","red","2"
"96","71","25","1075.05355518","1","0","1","53","3","left","out","Male","Right-handed","1","3","no","left","d","1020.74696781","1048.63462566","5","red","0"
"96","72","25","1080.84391975","1","1","1","54","3","left","in","Male","Right-handed","1","3","no","left","s","1435.12379227","1097.14738012","5","red","1"
"97","73","25","1081.01422286","1","1","1","55","3","right","out","Male","Right-handed","1","3","no","right","s","1588.60292632","584.665524498","5","red","0"
"97","74","25","1086.10724244","1","1","1","56","1","right","in","Male","Right-handed","1","3","no","right","d","1877.31932114","641.220495143","5","green","2"
"97","75","25","1087.34837905","1","1","1","57","0","left","out","Male","Right-handed","1","3","no","left","d","1292.86546767","968.710852887","5","green","2"
"97","75","25","1078.12116254","1","1","1","58","1","left","in","Male","Right-handed","1","3","no","left","s","698.403102456","793.479634361","5","red","3"
"97","76","25","1076.99727312","1","1","1","59","2","right","out","Male","Right-handed","1","3","no","right","d","1349.82934825","720.997381052","5","green","3"
"97","76","25","1066.44806247","1","1","1","60","1","right","out","Male","Right-handed","1","3","no","right","d","810.610876171","520.545238909","5","green","1"
"97","77","25","1066.52826802","1","1","1","61","3","left","in","Male","Right-handed","1","3","no","left","s","1154.18983556","985.122733917","5","green","2"
"97","78","25","1073.545822","1","1","1","62","0","right","out","Male","Right-handed","1","3","no","right","s","1819.76853452","888.727427369","5","green","3"
"97","78","25","1071.32539326","1","1","1","63","1","right","out","Male","Right-handed","1","3","no","right","d","951.350942225","1009.22468751","5","red","1"
"97","79","25","1071.1265332","1","1","1","64","0","left","in","Male","Right-handed","1","3","no","left","d","1316.66979897","808.879022311","5","green","1"
"97","79","25","1070.61962845","1","1","1","65","1","left","in","Male","Right-handed","1","3","no","left","d","1296.29646259","801.348985871","5","green","3"
"97","80","25","1064.45045676","1","1","1","66","2","right","in","Male","Right-handed","1","3","no","right","d","897.029421631","688.984383168","5","red","2"
"97","78","25","1073.57950544","1","0","1","67","1","left","in","Male","Right-handed","1","3","no","left","d","1728.3657778","1240.40761426","5","red","1"
"97","78","25","1076.68120396","1","1","1","68","3","right","in","Male","Right-handed","1","3","no","right","d","1485.78147981","952.937192075","5","green","2"
"97","79","25","1074.9191561","1","1","1","69","3","left","out","Male","Right-handed","1","3","no","left","s","1151.56607696","832.639736553","5","red","0"
"97","79","25","1068.74211331","1","1","1","70","3","left","out","Male","Right-handed","1","3","no","left","d","799.306039744","745.182078776","5","red","1"
"98","80","25","1060.3822875","1","1","1","71","0","right","in","Male","Right-handed","1","3","no","right","d","756.673891277","544.827754305","5","green","1"
"98","78","25","1061.47792874","1","0","1","72","2","right","in","Male","Right-handed","1","3","no","right","d","840.403573264","1392.1164088","5","red","2"
"98","76","25","1061.22558253","1","0","1","73","0","left","out","Male","Right-handed","1","3","no","left","d","1287.91525205","808.796598896","5","green","0"
"98","77","25","1058.37977398","1","1","1","74","2","right","in","Male","Right-handed","1","3","no","right","d","1164.44144827","656.354011455","5","green","3"
"98","75","25","1054.60377833","1","0","1","75","0","right","in","Male","Right-handed","1","3","no","right","s","660.030031629","1048.92198511","5","green","1"
"98","76","25","1050.63165142","1","1","1","76","2","right","in","Male","Right-handed","1","3","no","right","d","935.661949824","736.611647166","5","green","2"
"98","76","25","1055.85491855","1","1","1","77","1","left","in","Male","Right-handed","1","3","no","left","s","1381.1826381","1305.08658307","5","red","2"
"98","77","25","1050.48595662","1","1","1","78","2","right","out","Male","Right-handed","1","3","no","right","s","730.783317501","768.864859595","5","red","2"
"98","77","25","1044.23389764","1","1","1","79","2","right","in","Male","Right-handed","1","3","no","right","d","503.363003625","872.370067664","5","red","1"
"98","77","25","1043.99833981","1","1","1","80","2","right","out","Male","Right-handed","1","3","no","right","s","1435.79921528","624.872756848","5","red","0"
"98","78","25","1038.87336011","1","1","1","81","2","left","out","Male","Right-handed","1","3","no","left","s","728.535756047","744.463359424","5","green","1"
"98","78","25","1033.1378275","1","1","1","82","0","right","out","Male","Right-handed","1","3","no","right","d","560.952596594","817.059145375","5","green","1"
"98","79","25","1034.12923743","1","1","1","83","0","left","out","Male","Right-handed","1","3","no","left","d","1292.65892806","896.551558252","5","red","2"
"98","79","25","1036.57437107","1","1","1","84","1","left","in","Male","Right-handed","1","3","no","left","d","1319.12101361","1057.22430009","5","red","1"
"98","79","25","1038.87431624","1","1","1","85","0","right","in","Male","Right-handed","1","3","no","right","s","862.76244802","1504.77927523","5","green","0"
"100","100","25","943.694063526","1","1","2","86","0","right","in","Male","Right-handed","1","3","no","right","d","1078.21244459","809.175682463","5","red","1"
"100","100","25","938.007569484","1","1","2","87","2","left","out","Male","Right-handed","1","3","no","left","d","1311.8026482","552.839502688","5","red","3"
"100","100","25","849.151840608","1","1","2","88","0","right","in","Male","Right-handed","1","3","no","right","d","813.445022941","529.43574277","5","red","0"
"100","100","25","820.323088562","1","1","2","89","1","left","in","Male","Right-handed","1","3","no","left","s","682.864204056","784.809460797","5","green","3"
"100","100","25","807.876792068","1","1","2","90","1","right","in","Male","Right-handed","1","3","no","right","d","938.659019142","577.524193036","5","red","1"
"100","100","25","823.399467701","1","1","2","91","2","right","out","Male","Right-handed","1","3","no","right","d","1177.06345577","624.962235964","5","green","2"
"100","100","25","815.093376704","1","1","2","92","2","left","in","Male","Right-handed","1","3","no","left","s","1065.81301238","464.70064906","5","green","1"
"100","100","25","903.859921406","1","1","2","93","2","left","in","Male","Right-handed","1","3","no","left","s","1913.18441101","1137.26705764","5","green","1"
"100","100","25","876.455514483","1","1","2","94","1","right","in","Male","Right-handed","1","3","no","right","d","737.66102232","576.779495877","5","green","2"
"100","90","25","891.736844165","1","0","2","95","0","right","out","Male","Right-handed","1","3","no","right","d","1433.23575085","625.301871749","5","green","3"
"100","90","25","887.847724329","1","1","2","96","3","left","in","Male","Right-handed","1","3","no","left","s","960.981011826","736.93204013","5","green","3"
"100","91","25","878.478220013","1","1","2","97","1","right","out","Male","Right-handed","1","3","no","right","s","685.320870828","865.506474247","5","red","2"
"100","92","25","867.225339203","1","1","2","98","0","right","out","Male","Right-handed","1","3","no","right","d","759.21875431","705.162784641","5","red","2"
"100","92","25","869.338750707","1","1","2","99","2","right","out","Male","Right-handed","1","3","no","right","d","904.855156082","888.77104443","5","red","1"
"100","93","25","855.70017248","1","1","2","100","3","right","in","Male","Right-handed","1","3","no","right","s","840.385934011","489.134220599","5","red","0"
"100","93","25","852.152698357","1","1","2","101","1","left","in","Male","Right-handed","1","3","no","left","d","636.947306101","960.933866916","5","red","1"
"100","94","25","886.139456645","1","1","2","102","3","right","in","Male","Right-handed","1","3","no","right","d","971.659815154","1888.19536338","5","red","1"
"100","94","25","890.407138531","1","1","2","103","1","left","in","Male","Right-handed","1","3","no","left","s","1300.90447671","625.010984443","5","green","2"
"100","94","25","886.465923311","1","1","2","104","3","right","in","Male","Right-handed","1","3","no","right","d","1070.58394905","560.464149663","5","red","0"
"100","95","25","883.177477176","1","1","2","105","3","left","in","Male","Right-handed","1","3","no","left","s","832.203565951","809.190435292","5","red","1"
"100","95","25","866.702644632","1","1","2","106","2","left","out","Male","Right-handed","1","3","no","left","s","617.609554189","456.802433319","5","red","1"
"100","95","25","880.758836843","1","1","2","107","2","left","out","Male","Right-handed","1","3","no","left","d","806.403433432","1545.47431308","5","green","0"
"100","95","25","887.244963254","1","1","2","108","0","left","out","Male","Right-handed","1","3","no","left","s","1498.96024626","560.919242372","5","red","1"
"100","95","25","876.551505868","1","1","2","109","2","right","in","Male","Right-handed","1","3","no","right","d","708.577102454","552.62686952","5","green","2"
"100","96","25","862.518346426","1","1","2","110","0","left","out","Male","Right-handed","1","3","no","left","s","522.177030102","529.268009516","5","green","0"
"100","96","25","869.686156749","1","1","2","111","3","left","in","Male","Right-handed","1","3","no","left","d","1136.88476693","960.878062735","5","red","1"
"100","96","25","864.65451618","1","1","2","112","1","right","out","Male","Right-handed","1","3","no","right","s","866.40318969","601.260533039","5","green","0"
"100","96","25","871.807455695","1","1","2","113","0","left","in","Male","Right-handed","1","3","no","left","d","1465.01494846","664.85869676","5","green","1"
"100","96","25","876.263233116","1","1","2","114","0","right","in","Male","Right-handed","1","3","no","right","d","1201.52140154","800.528600284","5","green","1"
"100","93","25","872.677915378","1","0","2","115","1","left","in","Male","Right-handed","1","3","no","left","d","632.216137927","905.191264016","5","red","0"
"100","93","25","869.174192075","1","1","2","116","1","right","out","Male","Right-handed","1","3","no","right","s","1047.59198549","480.533000475","5","green","3"
"100","90","25","868.036594473","1","0","2","117","0","right","out","Male","Right-handed","1","3","no","right","s","688.264060248","977.27807736","5","red","1"
"100","90","25","867.059442764","1","1","2","118","3","right","out","Male","Right-handed","1","3","no","right","d","846.755628365","824.825547795","5","green","1"
"100","91","25","865.847567392","1","1","2","119","1","left","in","Male","Right-handed","1","3","no","left","s","1227.37381039","424.337549863","5","green","2"
"100","91","25","863.60981021","1","1","2","120","2","left","out","Male","Right-handed","1","3","no","left","s","1038.07833496","536.973797051","5","green","3"
"100","91","25","859.874764338","1","1","2","121","0","left","out","Male","Right-handed","1","3","no","left","d","889.604258564","568.692059065","5","red","3"
"100","91","25","866.275862026","1","1","2","122","2","right","out","Male","Right-handed","1","3","no","right","d","1264.24177193","929.188985666","5","red","1"
"100","89","25","870.59377386","1","0","2","123","1","left","in","Male","Right-handed","1","3","no","left","s","979.938718031","1080.77430545","5","red","1"
"100","89","25","884.379886207","1","1","2","124","3","left","out","Male","Right-handed","1","3","no","left","s","1856.28884244","960.215468277","5","green","2"
"100","90","25","885.039308272","1","1","2","125","1","left","in","Male","Right-handed","1","3","no","left","s","940.747506611","880.766031033","5","green","1"
"100","90","25","895.034398732","1","1","2","126","0","left","out","Male","Right-handed","1","3","no","left","d","1773.29551905","816.380515233","5","red","1"
"100","90","25","891.462225442","1","1","2","127","2","left","in","Male","Right-handed","1","3","no","left","d","808.931940068","681.07430102","5","red","0"
"100","90","25","894.778641853","1","1","2","128","3","left","out","Male","Right-handed","1","3","no","left","s","1171.50997772","896.626284538","5","green","2"
"100","90","25","892.807568645","1","1","2","129","3","right","out","Male","Right-handed","1","3","no","right","d","831.02622604","785.07661529","5","red","1"
"100","91","25","895.227548849","1","1","2","130","2","right","in","Male","Right-handed","1","3","no","right","s","842.682564657","1160.73079101","5","green","1"
"100","91","25","893.434730263","1","1","2","131","0","right","in","Male","Right-handed","1","3","no","right","d","825.30822188","800.207565892","5","green","0"
"100","91","25","902.218306225","1","1","2","132","3","left","out","Male","Right-handed","1","3","no","left","d","1723.77444079","888.751160182","5","green","2"
"100","91","25","899.920184388","1","1","2","133","3","right","out","Male","Right-handed","1","3","no","right","d","983.477793464","600.339122643","5","red","0"
"100","91","25","905.797900483","1","1","2","134","1","left","out","Male","Right-handed","1","3","no","left","d","871.013128094","1504.84341796","5","green","0"
"100","92","25","906.092995421","1","1","2","135","2","right","in","Male","Right-handed","1","3","no","right","d","832.474569009","1008.63072578","5","red","0"
"100","92","25","913.289576794","1","1","2","136","2","right","in","Male","Right-handed","1","3","no","right","s","1066.1112761","1480.12601482","5","green","2"
"100","92","25","922.662237208","1","1","2","137","0","right","in","Male","Right-handed","1","3","no","right","s","1144.62262584","1656.71321077","5","green","2"
"100","92","25","917.744523817","1","1","2","138","2","left","in","Male","Right-handed","1","3","no","left","d","764.060568702","559.986286283","5","red","0"
"100","92","25","915.994329046","1","1","2","139","2","left","out","Male","Right-handed","1","3","no","left","s","765.750729784","880.717282555","5","green","2"
"100","92","25","918.444293171","1","1","2","140","3","right","out","Male","Right-handed","1","3","no","right","s","749.243276077","1352.24143582","5","red","0"
"100","92","25","912.764241726","1","1","2","141","1","left","out","Male","Right-handed","1","3","no","left","d","639.876063406","560.84676108","5","red","0"
"100","91","25","907.488260388","1","0","2","142","3","left","out","Male","Right-handed","1","3","no","left","d","615.494447484","608.572163464","5","red","1"
"100","91","25","902.954955189","1","1","2","143","0","right","out","Male","Right-handed","1","3","no","right","s","673.042989103","616.070128536","5","green","2"
"100","91","25","906.245852126","1","1","2","144","3","right","out","Male","Right-handed","1","3","no","right","s","1105.66232827","1088.57342066","5","green","2"
"100","91","25","901.979142814","1","1","2","145","1","right","out","Male","Right-handed","1","3","no","right","s","596.198709064","704.287877728","5","green","1"
"100","91","25","897.085646419","1","1","2","146","0","right","in","Male","Right-handed","1","3","no","right","s","549.96013529","656.991590246","5","green","2"
"100","91","25","893.326725321","1","1","2","147","0","right","in","Male","Right-handed","1","3","no","right","s","863.458717415","464.606359239","5","red","0"
"100","92","25","892.823523919","1","1","2","148","3","left","out","Male","Right-handed","1","3","no","left","d","1003.07564417","720.174429755","5","red","3"
"100","92","25","890.985715192","1","1","2","149","1","left","in","Male","Right-handed","1","3","no","left","s","749.628773918","800.778756952","5","red","1"
"100","100","25","1079.61684978","1","1","3","150","2","left","in","Male","Right-handed","1","3","no","left","d","1630.62475666","528.608942909","5","green","1"
"100","100","25","925.702186562","1","1","3","151","1","left","in","Male","Right-handed","1","3","no","left","d","918.344052654","625.230994026","5","green","0"
"100","100","25","871.642047616","1","1","3","152","2","left","out","Male","Right-handed","1","3","no","left","s","853.992211789","673.051327658","5","green","0"
"100","100","25","798.013282998","1","1","3","153","1","right","out","Male","Right-handed","1","3","no","right","s","585.560957086","568.693021206","5","red","1"
"100","100","25","771.129322659","1","1","3","154","1","right","in","Male","Right-handed","1","3","no","right","d","886.02765963","441.159302974","5","red","2"
"100","100","25","801.98651121","1","1","3","155","2","left","out","Male","Right-handed","1","3","no","left","s","663.684563986","1248.86034395","5","green","3"
"100","100","25","827.404039948","1","1","3","156","2","right","out","Male","Right-handed","1","3","no","right","s","639.463625617","1320.35479913","5","red","0"
"100","100","25","823.337496464","1","1","3","157","3","left","in","Male","Right-handed","1","3","no","left","d","700.828660001","888.914724157","5","red","3"
"100","100","25","804.24766736","1","1","3","158","1","left","out","Male","Right-handed","1","3","no","left","s","662.490546964","640.567522095","5","red","3"
"100","100","25","792.985959797","1","1","3","159","1","right","in","Male","Right-handed","1","3","no","right","s","854.182395","529.078788446","5","red","0"
"100","100","25","777.649936123","1","1","3","160","1","right","out","Male","Right-handed","1","3","no","right","s","679.723134296","568.856264468","5","green","1"
"100","100","25","778.961647776","1","1","3","161","3","right","in","Male","Right-handed","1","3","no","right","d","810.363285211","776.417666706","5","green","0"
"100","100","25","785.230274148","1","1","3","162","0","right","out","Male","Right-handed","1","3","no","right","s","608.013159524","1112.8944217","5","green","3"
"100","100","25","788.829732742","1","1","3","163","1","right","in","Male","Right-handed","1","3","no","right","d","862.559756976","808.685631963","5","green","2"
"100","100","25","789.010061643","1","1","3","164","0","right","out","Male","Right-handed","1","3","no","right","d","1037.94844592","545.120886607","5","green","1"
"100","100","25","790.270984216","1","1","3","165","3","right","in","Male","Right-handed","1","3","no","right","s","705.820889109","912.548756497","5","green","2"
"100","100","25","795.800620381","1","1","3","166","3","left","in","Male","Right-handed","1","3","no","left","d","896.157080428","872.392517622","5","red","1"
"100","100","25","788.946212895","1","1","3","167","3","left","in","Male","Right-handed","1","3","no","left","d","711.889112604","632.953458672","5","red","1"
"100","100","25","784.34311779","1","1","3","168","0","right","out","Male","Right-handed","1","3","no","right","d","890.519254687","512.455557102","5","red","1"
"100","100","25","778.882655997","1","1","3","169","3","right","in","Male","Right-handed","1","3","no","right","s","533.124270777","817.143493072","5","green","2"
"100","100","25","774.874117591","1","1","3","170","0","left","in","Male","Right-handed","1","3","no","left","s","644.639944375","744.766754564","5","green","1"
"100","100","25","767.457218107","1","1","3","171","3","right","out","Male","Right-handed","1","3","no","right","s","767.268667621","456.135990296","5","green","0"
"100","100","25","767.784675012","1","1","3","172","2","right","in","Male","Right-handed","1","3","no","right","s","629.013811855","920.963641973","5","red","2"
"100","95","25","769.064390273","1","0","3","173","3","right","in","Male","Right-handed","1","3","no","right","d","668.467687776","928.527994776","5","green","3"
"100","96","25","761.80557952","1","1","3","174","1","left","in","Male","Right-handed","1","3","no","left","s","598.122028989","577.066213904","5","green","1"
"100","92","25","789.45461603","1","0","3","175","3","left","out","Male","Right-handed","1","3","no","left","s","576.766346616","2384.59471092","5","red","2"
"100","92","25","794.851736561","1","1","3","176","3","left","out","Male","Right-handed","1","3","no","left","d","1262.09459386","608.259146915","5","green","1"
"100","92","25","798.901963418","1","1","3","177","0","left","out","Male","Right-handed","1","3","no","left","d","871.896694276","944.619482843","5","green","0"
"100","93","25","793.723404404","1","1","3","178","0","right","out","Male","Right-handed","1","3","no","right","d","641.313181396","656.134322585","5","green","0"
"100","93","25","790.449168058","1","1","3","179","2","left","in","Male","Right-handed","1","3","no","left","d","790.056015851","600.936612224","5","red","2"
"100","90","25","787.662333108","1","0","3","180","0","left","in","Male","Right-handed","1","3","no","left","d","735.513844247","672.600724941","5","red","1"
"100","90","25","779.694348239","1","1","3","181","2","right","in","Male","Right-handed","1","3","no","right","s","641.145448143","424.228186499","5","red","2"
"100","90","25","785.634661949","1","1","3","182","1","right","in","Male","Right-handed","1","3","no","right","s","1222.67439287","728.77500845","5","red","2"
"100","88","25","793.300520488","1","0","3","183","3","left","in","Male","Right-handed","1","3","no","left","d","1212.29128756","880.256417","5","red","0"
"100","85","25","790.622451185","1","0","3","184","1","left","out","Male","Right-handed","1","3","no","left","s","702.215425943","696.920763837","5","red","0"
"100","86","25","788.604452382","1","1","3","185","3","right","out","Male","Right-handed","1","3","no","right","d","819.448462274","616.500526291","5","green","1"
"100","83","25","780.442970078","1","0","3","186","1","right","out","Male","Right-handed","1","3","no","right","s","565.225464923","408.033749342","5","green","3"
"100","84","25","776.132007877","1","1","3","187","1","right","in","Male","Right-handed","1","3","no","right","d","568.571791436","664.681021383","5","green","1"
"100","84","25","774.777606857","1","1","3","188","2","left","out","Male","Right-handed","1","3","no","left","s","686.296161121","760.32457507","5","red","1"
"100","85","25","769.944987181","1","1","3","189","0","left","in","Male","Right-handed","1","3","no","left","s","545.992907097","616.952732577","5","red","2"
"100","85","25","777.752226719","1","1","3","190","3","left","in","Male","Right-handed","1","3","no","left","d","1427.60209439","752.481522082","5","green","0"
"100","85","25","771.702446401","1","1","3","191","2","right","in","Male","Right-handed","1","3","no","right","s","599.200268373","448.122638345","5","green","0"
"100","86","25","765.702085723","1","1","3","192","0","left","out","Male","Right-handed","1","3","no","left","s","578.754450704","448.619423831","5","red","0"
"100","86","25","762.820602157","1","1","3","193","0","left","out","Male","Right-handed","1","3","no","left","d","709.429880123","568.403737469","5","red","1"
"100","86","25","766.857159901","1","1","3","194","0","right","out","Male","Right-handed","1","3","no","right","d","960.995123228","927.936278041","5","green","2"
"100","86","25","762.578840137","1","1","3","195","1","left","out","Male","Right-handed","1","3","no","left","s","531.547963051","608.560938485","5","red","2"
"100","87","25","758.314416799","1","1","3","196","2","left","in","Male","Right-handed","1","3","no","left","s","540.195365944","584.106520558","5","green","2"
"100","87","25","754.887435913","1","1","3","197","1","right","in","Male","Right-handed","1","3","no","right","s","723.81388857","463.824780006","5","red","0"
"100","87","25","751.663842925","1","1","3","198","0","right","out","Male","Right-handed","1","3","no","right","s","553.403638048","640.459120872","5","red","3"
"100","88","25","746.290914246","1","1","3","199","0","right","in","Male","Right-handed","1","3","no","right","s","550.051217974","415.983599985","5","green","2"
"100","88","25","742.504531464","1","1","3","200","0","left","in","Male","Right-handed","1","3","no","left","d","577.634518541","528.736266238","5","green","2"
"100","86","25","749.548243947","1","0","3","201","3","right","in","Male","Right-handed","1","3","no","right","s","617.231432762","1600.32372839","5","red","2"
"100","84","25","749.572788202","1","0","3","202","2","left","out","Male","Right-handed","1","3","no","left","s","1117.85650372","383.841675203","5","green","1"
"100","85","25","746.105060076","1","1","3","203","2","left","out","Male","Right-handed","1","3","no","left","d","596.339181655","528.291757081","5","green","0"
"100","85","25","746.456997281","1","1","3","204","2","right","in","Male","Right-handed","1","3","no","right","d","994.926951046","535.996261761","5","red","1"
"100","85","25","754.880082407","1","1","3","205","0","right","out","Male","Right-handed","1","3","no","right","s","1692.73929891","743.560229708","5","red","1"
"100","85","25","753.024352487","1","1","3","206","2","right","out","Male","Right-handed","1","3","no","right","d","882.066845711","416.14010826","5","red","1"
"100","86","25","754.848239725","1","1","3","207","0","left","in","Male","Right-handed","1","3","no","left","s","965.7497035","751.869921098","5","red","0"
"100","86","25","751.136511429","1","1","3","208","2","left","out","Male","Right-handed","1","3","no","left","s","647.316300016","424.396240466","5","green","3"
"100","86","25","752.19120137","1","1","3","209","1","left","out","Male","Right-handed","1","3","no","left","d","636.96109679","991.874718975","5","green","1"
"100","86","25","749.507157714","1","1","3","210","2","right","out","Male","Right-handed","1","3","no","right","d","593.540313388","583.388763347","5","red","1"
"100","87","25","748.872631936","1","1","3","211","3","left","out","Male","Right-handed","1","3","no","left","d","532.162450458","888.170668425","5","red","1"
"100","87","25","746.934969926","1","1","3","212","3","left","in","Male","Right-handed","1","3","no","left","d","709.863164302","543.736686373","5","green","1"
"100","87","25","749.347432855","1","1","3","213","1","right","out","Male","Right-handed","1","3","no","right","s","1162.35103651","640.31415829","5","red","1"
"100","100","25","763.613493835","1","1","4","214","2","right","in","Male","Right-handed","1","3","no","right","s","814.613703582","712.613284089","5","green","0"
"100","100","25","778.441690726","1","1","4","215","0","left","in","Male","Right-handed","1","3","no","left","d","674.340917357","912.198857875","5","red","0"
"100","100","25","717.575045397","1","1","4","216","2","left","out","Male","Right-handed","1","3","no","left","d","702.783089153","488.900420327","5","green","0"
"100","100","25","705.9420387","1","1","4","217","1","left","out","Male","Right-handed","1","3","no","left","s","757.441359108","584.644678109","5","red","3"
"100","100","25","726.352369401","1","1","4","218","3","right","in","Male","Right-handed","1","3","no","right","s","679.994458068","935.992926339","5","green","0"
"100","83","25","839.061760688","1","0","4","219","2","right","out","Male","Right-handed","1","3","no","right","d","780.563532417","2024.65390183","5","green","2"
"100","85","25","801.956234312","1","1","4","220","2","right","out","Male","Right-handed","1","3","no","right","s","654.343136695","504.303015414","5","red","3"
"100","87","25","778.257621119","1","1","4","221","0","left","in","Male","Right-handed","1","3","no","left","d","559.869546505","664.865111034","5","green","1"
"100","88","25","811.059216075","1","1","4","222","3","right","out","Male","Right-handed","1","3","no","right","s","1018.47118356","1128.47276788","5","green","1"
"100","90","25","787.30286532","1","1","4","223","2","right","out","Male","Right-handed","1","3","no","right","d","515.007155122","631.984261939","5","red","1"
"100","90","25","775.063730181","1","1","4","224","1","right","in","Male","Right-handed","1","3","no","right","s","672.72099257","632.623765012","5","red","0"
"100","91","25","776.495960932","1","1","4","225","2","left","in","Male","Right-handed","1","3","no","left","d","880.253209863","704.247788519","5","green","0"
"100","92","25","770.332457719","1","1","4","226","2","right","in","Male","Right-handed","1","3","no","right","d","671.955128308","720.785710025","5","red","1"
"100","92","25","752.410209104","1","1","4","227","3","left","in","Male","Right-handed","1","3","no","left","d","638.426758297","400.415195927","5","green","2"
"100","93","25","750.617993876","1","1","4","228","3","right","in","Male","Right-handed","1","3","no","right","s","667.052057603","784.001903756","5","green","1"
"100","93","25","740.219505662","1","1","4","229","0","left","in","Male","Right-handed","1","3","no","left","d","527.665403269","640.818961619","5","green","1"
"100","88","25","737.602888249","1","0","4","230","1","left","out","Male","Right-handed","1","3","no","left","d","719.344422757","672.129596548","5","red","2"
"100","88","25","730.317694693","1","1","4","231","2","right","out","Male","Right-handed","1","3","no","right","s","636.993809585","575.944998887","5","green","1"
"100","84","25","726.43851647","1","0","4","232","3","right","out","Male","Right-handed","1","3","no","right","s","640.624929844","672.601687082","5","green","1"
"100","85","25","718.423774056","1","1","4","233","0","left","out","Male","Right-handed","1","3","no","left","d","628.168731314","504.118605049","5","red","2"
"100","85","25","710.603035485","1","1","4","234","1","right","in","Male","Right-handed","1","3","no","right","d","587.744375804","520.632152316","5","green","0"
"100","86","25","700.431397799","1","1","4","235","2","right","out","Male","Right-handed","1","3","no","right","d","541.272322474","432.381690328","5","red","1"
"100","86","25","696.240802036","1","1","4","236","3","left","out","Male","Right-handed","1","3","no","left","s","608.147217841","599.94817267","5","red","0"
"100","87","25","694.655195647","1","1","4","237","0","right","out","Male","Right-handed","1","3","no","right","s","507.764798851","808.607698539","5","red","0"
"100","88","25","688.338754464","1","1","4","238","3","left","out","Male","Right-handed","1","3","no","left","d","649.279067724","424.209264392","5","red","1"
"100","88","25","680.355791366","1","1","4","239","0","left","in","Male","Right-handed","1","3","no","left","s","489.704770231","471.858657634","5","red","1"
"100","88","25","681.140172046","1","1","4","240","0","right","out","Male","Right-handed","1","3","no","right","d","578.496276194","824.571863276","5","red","2"
"100","89","25","676.889388418","1","1","4","241","2","right","in","Male","Right-handed","1","3","no","right","d","652.117063058","472.119397854","5","green","2"
"100","89","25","674.175202387","1","1","4","242","0","left","in","Male","Right-handed","1","3","no","left","d","716.704307762","479.651679289","5","green","0"
"100","90","25","673.281963555","1","1","4","243","0","right","in","Male","Right-handed","1","3","no","right","d","510.410686692","784.345388105","5","red","3"
"100","90","25","668.300409729","1","1","4","244","3","left","in","Male","Right-handed","1","3","no","left","s","637.811629463","399.895960483","5","red","1"
"100","90","25","664.869601026","1","1","4","245","1","left","out","Male","Right-handed","1","3","no","left","s","532.441471358","584.587591074","5","green","2"
"100","87","25","665.151435459","1","0","4","246","3","left","out","Male","Right-handed","1","3","no","left","d","452.282615458","896.057659188","5","green","3"
"100","88","25","667.654876691","1","1","4","247","1","left","in","Male","Right-handed","1","3","no","left","d","620.825350235","879.711524461","5","red","1"
"100","88","25","666.419711026","1","1","4","248","0","right","out","Male","Right-handed","1","3","no","right","s","576.383414485","672.464742342","5","red","2"
"100","88","25","666.36664793","1","1","4","249","3","left","out","Male","Right-handed","1","3","no","left","d","624.965443101","704.05343603","5","green","2"
"100","89","25","664.724946155","1","1","4","250","2","right","in","Male","Right-handed","1","3","no","right","s","683.680099652","527.567264883","5","green","1"
"100","86","25","664.225679699","1","0","4","251","0","left","out","Male","Right-handed","1","3","no","left","s","579.297098247","712.208543428","5","green","2"
"100","87","25","662.600263936","1","1","4","252","3","right","in","Male","Right-handed","1","3","no","right","d","585.735104614","615.933825222","5","red","0"
"100","87","25","658.898742193","1","1","4","253","1","left","out","Male","Right-handed","1","3","no","left","d","540.509986062","488.568802385","5","red","2"
"100","87","25","663.181594984","1","1","4","254","1","right","in","Male","Right-handed","1","3","no","right","d","1069.05735194","599.934061268","5","red","1"
"100","88","25","660.849676521","1","1","4","255","1","right","out","Male","Right-handed","1","3","no","right","s","434.638552479","695.843486594","5","green","2"
"100","88","25","660.17485623","1","1","4","256","2","left","out","Male","Right-handed","1","3","no","left","s","727.271182016","536.393626008","5","green","1"
"100","88","25","656.363643798","1","1","4","257","1","right","in","Male","Right-handed","1","3","no","right","d","473.013868301","511.949150205","5","red","3"
"100","88","25","653.62293137","1","1","4","258","1","right","in","Male","Right-handed","1","3","no","right","d","593.505034884","472.558134164","5","green","0"
"100","89","25","655.101206221","1","1","4","259","2","right","out","Male","Right-handed","1","3","no","right","d","427.121986013","1016.125163","5","red","3"
"100","89","25","651.507403416","1","1","4","260","2","left","in","Male","Right-handed","1","3","no","left","s","524.682124638","447.702824141","5","red","2"
"100","89","25","650.681602089","1","1","4","261","3","left","out","Male","Right-handed","1","3","no","left","s","511.45685471","712.281024719","5","green","2"
"100","89","25","648.222237614","1","1","4","262","2","left","out","Male","Right-handed","1","3","no","left","s","452.132842172","608.212643431","5","red","2"
"100","90","25","645.749928","1","1","4","263","2","left","out","Male","Right-handed","1","3","no","left","s","521.481402135","527.732111714","5","green","0"
"100","88","25","645.582833155","1","0","4","264","0","left","out","Male","Right-handed","1","3","no","left","s","554.224665062","720.23151679","5","red","1"
"100","88","25","644.031569031","1","1","4","265","1","left","in","Male","Right-handed","1","3","no","left","d","521.848619296","607.985578148","5","green","0"
"100","86","25","649.332705574","1","0","4","266","3","right","out","Male","Right-handed","1","3","no","right","s","1066.54391885","783.43969268","5","green","1"
"100","85","25","652.300306381","1","0","4","267","0","left","in","Male","Right-handed","1","3","no","left","d","835.054069119","784.112229262","5","red","3"
"100","85","25","649.678574921","1","1","4","268","1","right","in","Male","Right-handed","1","3","no","right","s","600.506535183","415.703616945","5","red","1"
"100","85","25","648.482981924","1","1","4","269","3","left","in","Male","Right-handed","1","3","no","left","d","589.259106505","576.191627705","5","green","3"
"100","84","25","650.209348385","1","0","4","270","0","left","in","Male","Right-handed","1","3","no","left","d","717.872026263","775.899714116","5","red","0"
"100","84","25","651.384431368","1","1","4","271","1","right","in","Male","Right-handed","1","3","no","right","s","845.274251888","591.454070915","5","red","1"
"100","84","25","649.065225084","1","1","4","272","0","right","out","Male","Right-handed","1","3","no","right","s","573.013675873","456.088845386","5","green","1"
"100","85","25","648.250800876","1","1","4","273","3","right","in","Male","Right-handed","1","3","no","right","s","728.63806371","471.761481389","5","green","0"
"100","85","25","645.482251532","1","1","4","274","1","left","in","Male","Right-handed","1","3","no","left","s","527.319673924","431.418907867","5","green","1"
"100","85","25","644.562727385","1","1","4","275","1","left","in","Male","Right-handed","1","3","no","left","d","593.115047052","583.828461799","5","red","1"
"100","85","25","641.785826815","1","1","4","276","0","right","out","Male","Right-handed","1","3","no","right","s","499.632462125","439.603520923","5","red","1"
"100","84","25","639.807971884","1","0","4","277","3","right","out","Male","Right-handed","1","3","no","right","s","518.183503387","512.222718972","5","green","2"
"100","100","25","519.239292813","1","1","5","278","2","left","out","Male","Right-handed","1","3","no","left","d","494.342290011","544.136295616","5","red","3"
"100","100","25","594.122248357","1","1","5","279","2","right","out","Male","Right-handed","1","3","no","right","d","522.055479618","815.954928183","5","green","0"
"100","100","25","574.126766144","1","1","5","280","2","left","in","Male","Right-handed","1","3","no","left","d","627.60235096","440.669252474","5","green","1"
"100","100","25","580.533088672","1","1","5","281","0","left","out","Male","Right-handed","1","3","no","left","s","543.122519681","656.38159283","5","green","0"
"100","100","25","570.801008067","1","1","5","282","2","right","out","Male","Right-handed","1","3","no","right","d","543.858557571","519.886813729","5","red","3"
"100","100","25","569.391535596","1","1","5","283","0","right","out","Male","Right-handed","1","3","no","right","s","556.427968028","568.260378455","5","red","2"
"100","100","25","605.771256376","1","1","5","284","1","left","in","Male","Right-handed","1","3","no","left","s","632.092342447","1016.00681966","5","red","2"
"100","100","25","686.632649903","1","1","5","285","2","right","out","Male","Right-handed","1","3","no","right","s","1008.65477931","1496.67002988","5","red","1"
"100","100","25","685.637985385","1","1","5","286","1","left","in","Male","Right-handed","1","3","no","left","s","763.115425494","592.245912985","5","red","0"
"100","100","25","684.607555501","1","1","5","287","0","left","in","Male","Right-handed","1","3","no","left","d","910.882648941","439.784724152","5","red","0"
"100","100","25","673.629166238","1","1","5","288","1","right","out","Male","Right-handed","1","3","no","right","s","583.39774333","544.292803891","5","green","2"
"100","100","25","719.530196155","1","1","5","289","1","left","out","Male","Right-handed","1","3","no","left","s","609.044574711","1839.83847576","5","green","1"
"100","100","25","716.185072318","1","1","5","290","3","right","in","Male","Right-handed","1","3","no","right","s","599.623289714","752.463882829","5","red","1"
"100","100","25","712.18651727","1","1","5","291","2","right","in","Male","Right-handed","1","3","no","right","d","808.199750741","512.210852567","5","red","1"
"100","100","25","719.823077231","1","1","5","292","2","right","in","Male","Right-handed","1","3","no","right","s","637.698738248","1015.7710951","5","green","2"
"100","100","25","714.390779514","1","1","5","293","1","right","out","Male","Right-handed","1","3","no","right","s","577.446580327","688.366047197","5","green","0"
"100","100","25","704.165034957","1","1","5","294","2","right","out","Male","Right-handed","1","3","no","right","s","481.001883871","600.104360231","5","red","1"
"100","100","25","695.331128676","1","1","5","295","0","right","in","Male","Right-handed","1","3","no","right","s","546.663840109","543.645603688","5","green","0"
"100","100","25","689.21711158","1","1","5","296","0","left","in","Male","Right-handed","1","3","no","left","d","534.057868293","624.271739416","5","green","1"
"100","100","25","697.11896489","1","1","5","297","1","right","out","Male","Right-handed","1","3","no","right","d","622.701204536","1071.80715102","5","green","1"
"100","100","25","691.443302571","1","1","5","298","3","right","in","Male","Right-handed","1","3","no","right","s","564.441319981","591.41879241","5","green","2"
"100","100","25","684.520500689","1","1","5","299","0","left","in","Male","Right-handed","1","3","no","left","d","502.013119754","576.270202556","5","red","1"
"100","100","25","679.355993828","1","1","5","300","2","right","out","Male","Right-handed","1","3","no","right","d","483.74687224","647.726813524","5","red","0"
"100","100","25","687.147575757","1","1","5","301","3","left","out","Male","Right-handed","1","3","no","left","s","500.388704977","1232.3192153","5","red","0"
"100","100","25","685.456584027","1","1","5","302","3","right","out","Male","Right-handed","1","3","no","right","d","601.944615313","687.800949698","5","green","1"
"100","100","25","681.002763368","1","1","5","303","2","left","out","Male","Right-handed","1","3","no","left","s","595.698395726","543.616098031","5","green","2"
"100","100","25","684.767906995","1","1","5","304","2","left","in","Male","Right-handed","1","3","no","left","s","1045.21870428","520.104578316","5","green","1"
"100","100","25","689.496889352","1","1","5","305","0","left","in","Male","Right-handed","1","3","no","left","d","490.778840338","1143.57998567","5","green","3"
"100","100","25","685.06058956","1","1","5","306","1","left","out","Male","Right-handed","1","3","no","left","d","529.371279321","592.317111422","5","green","0"
"100","100","25","703.037842717","1","1","5","307","1","left","out","Male","Right-handed","1","3","no","left","s","440.890544912","2007.86582366","5","green","3"
"100","100","25","695.196032925","1","1","5","308","3","right","in","Male","Right-handed","1","3","no","right","s","504.496726476","415.386751831","5","green","0"
"100","100","25","695.149191593","1","1","5","309","1","left","in","Male","Right-handed","1","3","no","left","d","707.099895255","680.294325356","5","green","2"
"100","100","25","693.864819263","1","1","5","310","0","right","out","Male","Right-handed","1","3","no","right","d","553.754498811","751.775310563","5","red","0"
"100","100","25","701.451849124","1","1","5","311","3","right","out","Male","Right-handed","1","3","no","right","d","535.284277396","1368.36339169","5","red","3"
"100","100","25","701.980086246","1","1","5","312","2","left","out","Male","Right-handed","1","3","no","left","s","527.943462027","911.9368348","5","red","2"
"100","97","25","705.150018455","1","0","5","313","3","left","in","Male","Right-handed","1","3","no","left","s","632.537172319","999.65811922","5","red","1"
"100","97","25","710.9567286","1","1","5","314","3","right","in","Male","Right-handed","1","3","no","right","d","920.057625834","919.938961772","5","green","0"
"100","97","25","712.436123541","1","1","5","315","3","left","in","Male","Right-handed","1","3","no","left","d","878.704804227","655.642668517","5","green","0"
"100","97","25","717.124677048","1","1","5","316","3","right","in","Male","Right-handed","1","3","no","right","s","751.271469376","1039.3079512","5","green","1"
"100","97","25","716.544051146","1","1","5","317","0","right","in","Male","Right-handed","1","3","no","right","d","795.898136205","591.901145782","5","red","2"
"100","97","25","712.651930087","1","1","5","318","0","right","in","Male","Right-handed","1","3","no","right","d","546.515670391","567.418505051","5","green","1"
"100","97","25","715.471434751","1","1","5","319","0","right","out","Male","Right-handed","1","3","no","right","d","653.977843816","1008.16440809","5","green","1"
"100","97","25","711.208692433","1","1","5","320","0","left","in","Male","Right-handed","1","3","no","left","s","536.736789643","527.610240516","5","green","2"
"100","97","25","712.212311813","1","1","5","321","2","left","out","Male","Right-handed","1","3","no","left","d","847.412449977","663.323440386","5","red","0"
"100","97","25","717.590371947","1","1","5","322","1","right","in","Male","Right-handed","1","3","no","right","s","1044.6189697","863.831065994","5","red","3"
"100","97","25","713.750151328","1","1","5","323","3","left","in","Male","Right-handed","1","3","no","left","s","618.478367542","463.402079379","5","red","2"
"100","97","25","713.056066851","1","1","5","324","3","left","in","Male","Right-handed","1","3","no","left","d","546.196239568","816.060122269","5","green","1"
"100","97","25","710.768612511","1","1","5","325","3","right","out","Male","Right-handed","1","3","no","right","d","606.707534141","599.808982933","5","green","3"
"100","97","25","704.588726794","1","1","5","326","1","left","out","Male","Right-handed","1","3","no","left","s","448.423788488","367.484636211","5","green","1"
"100","98","25","704.043474663","1","1","5","327","2","left","out","Male","Right-handed","1","3","no","left","s","946.748059522","407.904181016","5","green","0"
"100","98","25","701.690851559","1","1","5","328","0","left","in","Male","Right-handed","1","3","no","left","d","536.4426952","631.676697521","5","red","3"
"100","96","25","702.25699537","1","0","5","329","0","left","out","Male","Right-handed","1","3","no","left","d","919.193302472","543.067356928","5","red","1"
"100","96","25","701.813387143","1","1","5","330","1","right","out","Male","Right-handed","1","3","no","right","s","725.782429124","631.709089603","5","green","1"
"100","96","25","700.259363527","1","1","5","331","1","left","out","Male","Right-handed","1","3","no","left","s","556.384030255","679.408193465","5","red","2"
"100","96","25","698.653810169","1","1","5","332","0","left","in","Male","Right-handed","1","3","no","left","d","567.98616826","655.921689418","5","red","2"
"100","96","25","697.0087167","1","1","5","333","2","right","in","Male","Right-handed","1","3","no","right","s","613.567278995","599.489872824","5","red","2"
"100","94","25","700.11360635","1","0","5","334","3","right","out","Male","Right-handed","1","3","no","right","d","844.994910274","902.979943207","5","red","1"
"100","94","25","696.702490532","1","1","5","335","2","left","out","Male","Right-handed","1","3","no","left","s","508.881844591","495.655933235","5","green","1"
"100","93","25","695.027156132","1","0","5","336","1","right","in","Male","Right-handed","1","3","no","right","s","556.372163849","639.343357987","5","green","1"
"100","93","25","693.069070074","1","1","5","337","1","right","in","Male","Right-handed","1","3","no","right","d","594.965244258","560.118741032","5","red","1"
"100","93","25","690.610843153","1","1","5","338","3","right","in","Male","Right-handed","1","3","no","right","s","470.66720632","615.567249489","5","red","2"
"100","93","25","691.000619536","1","1","5","339","1","left","out","Male","Right-handed","1","3","no","left","d","718.269390509","711.284567322","5","red","0"
"100","93","25","689.505782157","1","1","5","340","0","right","in","Male","Right-handed","1","3","no","right","d","689.835236555","503.816492766","5","red","1"
"100","93","25","687.083969215","1","1","5","341","3","left","out","Male","Right-handed","1","3","no","left","d","477.514764054","591.504743675","5","red","2"
"100","100","25","631.010895927","1","1","6","342","1","right","in","Male","Right-handed","1","3","no","right","d","590.50315486","671.518636993","5","green","2"
"100","100","25","563.31521408","1","1","6","343","1","right","in","Male","Right-handed","1","3","no","right","d","543.117708976","448.12135549","5","red","2"
"100","100","25","591.45278806","1","1","6","344","3","right","out","Male","Right-handed","1","3","no","right","d","647.6864036","647.769468443","5","green","1"
"100","100","25","580.80810065","1","1","6","345","2","left","out","Male","Right-handed","1","3","no","left","s","489.380849417","608.367227423","5","red","2"
"100","100","25","571.344264966","1","1","6","346","0","right","out","Male","Right-handed","1","3","no","right","d","579.089275784","487.888568674","5","green","1"
"100","100","25","577.893093944","1","1","6","347","2","left","out","Male","Right-handed","1","3","no","left","s","645.666869572","575.607608098","5","green","0"
"100","100","25","578.352848455","1","1","6","348","2","right","in","Male","Right-handed","1","3","no","right","d","602.161738473","560.061012569","5","red","2"
"100","100","25","592.737306473","1","1","6","349","3","left","out","Male","Right-handed","1","3","no","left","d","770.95302635","615.90399885","5","red","1"
"100","100","25","595.212229425","1","1","6","350","2","left","out","Male","Right-handed","1","3","no","left","s","454.541722605","775.481503479","5","green","2"
"100","100","25","592.497288366","1","1","6","351","2","right","out","Male","Right-handed","1","3","no","right","d","560.168451652","575.957186006","5","green","0"
"100","100","25","592.976134296","1","1","6","352","3","left","in","Male","Right-handed","1","3","no","left","d","539.716540423","655.812646767","5","green","1"
"100","91","25","588.048345556","1","0","6","353","1","left","in","Male","Right-handed","1","3","no","left","s","531.393379058","536.291959772","5","red","0"
"100","92","25","597.68790602","1","1","6","354","1","right","out","Male","Right-handed","1","3","no","right","s","474.84418126","951.881081935","5","green","0"
"100","92","25","601.288893291","1","1","6","355","3","right","in","Male","Right-handed","1","3","no","right","d","672.633437736","623.570017889","5","green","3"
"100","93","25","600.376143692","1","1","6","356","0","left","in","Male","Right-handed","1","3","no","left","d","519.127684454","656.06761414","5","green","2"
"100","87","25","614.489100305","1","0","6","357","3","left","out","Male","Right-handed","1","3","no","left","s","660.628162637","991.738736376","5","red","1"
"100","88","25","609.806533813","1","1","6","358","2","right","in","Male","Right-handed","1","3","no","right","d","598.355508546","471.415431331","5","red","0"
"100","88","25","610.902175059","1","1","6","359","2","right","in","Male","Right-handed","1","3","no","right","s","595.008861319","664.047291156","5","green","3"
"100","89","25","617.772037866","1","1","6","360","3","right","out","Male","Right-handed","1","3","no","right","s","851.409504542","631.449632237","5","red","0"
"100","90","25","612.766921976","1","1","6","361","1","left","in","Male","Right-handed","1","3","no","left","s","492.039886519","543.29955363","5","red","1"
"100","90","25","615.007909563","1","1","6","362","0","right","in","Male","Right-handed","1","3","no","right","s","711.915731839","607.739590757","5","green","0"
"100","90","25","611.118221884","1","1","6","363","0","right","out","Male","Right-handed","1","3","no","right","s","555.391100708","503.478460549","5","red","0"
"100","91","25","603.811880066","1","1","6","364","0","left","in","Male","Right-handed","1","3","no","left","s","414.079202167","472.065517956","5","red","0"
"100","91","25","597.892718709","1","1","6","365","1","left","out","Male","Right-handed","1","3","no","left","s","499.747598336","423.756416679","5","green","2"
"100","92","25","612.823704333","1","1","6","366","1","right","in","Male","Right-handed","1","3","no","right","d","1303.15716959","639.177549016","5","red","1"
"100","92","25","605.728037564","1","1","6","367","1","left","out","Male","Right-handed","1","3","no","left","d","432.756925331","423.915811377","5","red","1"
"100","92","25","601.353201474","1","1","6","368","0","left","out","Male","Right-handed","1","3","no","left","s","471.659173726","503.555752545","5","red","1"
"100","92","25","599.222798509","1","1","6","369","1","left","out","Male","Right-handed","1","3","no","left","d","572.136523964","511.267312926","5","green","3"
"100","93","25","606.942661504","1","1","6","370","1","right","in","Male","Right-handed","1","3","no","right","s","630.586912444","1015.61073826","5","red","0"
"100","93","25","602.406950806","1","1","6","371","1","right","out","Male","Right-handed","1","3","no","right","s","478.430080891","463.312600263","5","red","3"
"100","93","25","601.927788191","1","1","6","372","1","right","out","Male","Right-handed","1","3","no","right","d","534.9584323","640.147387177","5","green","2"
"100","93","25","601.320601709","1","1","6","373","0","left","in","Male","Right-handed","1","3","no","left","d","653.573103155","511.422538346","5","green","3"
"100","93","25","599.24273378","1","1","6","374","0","right","in","Male","Right-handed","1","3","no","right","s","618.250019404","447.25190071","5","green","1"
"100","94","25","607.894792595","1","1","6","375","0","left","in","Male","Right-handed","1","3","no","left","d","610.837684883","1175.98778209","5","red","1"
"100","94","25","607.982265633","1","1","6","376","3","right","in","Male","Right-handed","1","3","no","right","s","670.503257489","551.4094404","5","green","0"
"100","94","25","608.557726894","1","1","6","377","0","left","out","Male","Right-handed","1","3","no","left","d","706.16373203","551.234010018","5","green","0"
"100","94","25","607.804673963","1","1","6","378","3","left","in","Male","Right-handed","1","3","no","left","d","473.639580687","687.749956222","5","green","2"
"100","94","25","608.978313577","1","1","6","379","1","left","in","Male","Right-handed","1","3","no","left","s","545.399586792","759.406371811","5","green","1"
"100","94","25","605.629718264","1","1","6","380","2","right","in","Male","Right-handed","1","3","no","right","d","572.909443927","383.856748747","5","red","1"
"100","95","25","608.541783861","1","1","6","381","1","right","in","Male","Right-handed","1","3","no","right","d","804.644960337","639.579723967","5","green","1"
"100","95","25","608.215083984","1","1","6","382","0","left","in","Male","Right-handed","1","3","no","left","s","439.158691052","751.135486776","5","red","1"
"100","95","25","606.420819932","1","1","6","383","0","left","in","Male","Right-handed","1","3","no","left","d","441.890209446","623.821778127","5","green","2"
"100","95","25","608.197927894","1","1","6","384","3","left","in","Male","Right-handed","1","3","no","left","s","566.294724324","799.378200321","5","red","1"
"100","95","25","605.513032404","1","1","6","385","3","left","out","Male","Right-handed","1","3","no","left","d","461.009876057","519.11517662","5","green","1"
"100","95","25","608.550433331","1","1","6","386","2","right","out","Male","Right-handed","1","3","no","right","s","708.66818514","775.72396302","5","green","2"
"100","95","25","609.425669711","1","1","6","387","3","left","in","Male","Right-handed","1","3","no","left","s","546.280587265","751.342026384","5","red","0"
"100","95","25","610.189290535","1","1","6","388","0","right","out","Male","Right-handed","1","3","no","right","s","571.776362503","718.855334398","5","green","2"
"100","95","25","608.737695152","1","1","6","389","2","left","in","Male","Right-handed","1","3","no","left","d","473.460943168","607.564481089","5","green","1"
"100","95","25","610.227985274","1","1","6","390","2","right","out","Male","Right-handed","1","3","no","right","s","580.349039109","783.174783181","5","red","0"
"100","96","25","619.017695698","1","1","6","391","3","left","out","Male","Right-handed","1","3","no","left","d","459.701684966","1639.72532798","5","red","2"
"100","96","25","622.749817813","1","1","6","392","3","right","out","Male","Right-handed","1","3","no","right","s","571.295291988","1047.41655511","5","red","3"
"100","96","25","623.455961004","1","1","6","393","1","right","in","Male","Right-handed","1","3","no","right","s","759.94164294","558.996884587","5","red","1"
"100","96","25","621.270168004","1","1","6","394","3","right","out","Male","Right-handed","1","3","no","right","d","527.672138256","487.545725753","5","red","0"
"100","96","25","621.656931106","1","1","6","395","3","left","in","Male","Right-handed","1","3","no","left","s","581.190912514","703.119838514","5","red","2"
"100","96","25","621.239837677","1","1","6","396","1","right","out","Male","Right-handed","1","3","no","right","s","525.840863155","671.592721852","5","red","0"
"100","94","25","619.939791047","1","0","6","397","2","left","out","Male","Right-handed","1","3","no","left","s","481.399248119","615.475204663","5","green","1"
"100","94","25","619.257189762","1","1","6","398","2","left","out","Male","Right-handed","1","3","no","left","d","483.011475777","679.051559855","5","green","1"
"100","94","25","616.936022288","1","1","6","399","3","left","out","Male","Right-handed","1","3","no","left","d","417.642010412","551.61694215","5","red","2"
"100","94","25","615.671481434","1","1","6","400","2","right","out","Male","Right-handed","1","3","no","right","s","461.371961799","623.284262003","5","red","3"
"100","93","25","617.989851123","1","0","6","401","0","right","in","Male","Right-handed","1","3","no","right","d","470.696391266","1038.85093421","5","red","3"
"100","93","25","617.169448272","1","1","6","402","0","right","out","Male","Right-handed","1","3","no","right","s","624.375650648","511.514903885","5","green","2"
"100","93","25","616.15900502","1","1","6","403","2","right","in","Male","Right-handed","1","3","no","right","s","661.98093293","447.063000353","5","green","1"
"100","93","25","613.587356689","1","1","6","404","2","left","out","Male","Right-handed","1","3","no","left","s","493.67071557","414.619604713","5","red","1"
"100","93","25","613.152628782","1","1","6","405","0","left","in","Male","Right-handed","1","3","no","left","d","436.303377178","735.226164079","5","green","1"
"100","100","25","569.340061051","1","1","7","406","3","right","out","Male","Right-handed","1","3","no","right","d","698.760377493","439.919744609","5","green","1"
"100","100","25","653.579036358","1","1","7","407","3","right","in","Male","Right-handed","1","3","no","right","d","988.352320652","487.283702678","5","red","1"
"100","100","25","615.214250634","1","1","7","408","3","right","in","Male","Right-handed","1","3","no","right","s","661.015264047","415.954094328","5","green","0"
"100","100","25","567.093421649","1","1","7","409","1","left","out","Male","Right-handed","1","3","no","left","s","469.706989569","375.754879819","5","red","1"
"100","100","25","570.521634382","1","1","7","410","1","right","in","Male","Right-handed","1","3","no","right","d","681.360377621","487.10859301","5","green","2"
"100","100","25","567.58952562","1","1","7","411","3","left","in","Male","Right-handed","1","3","no","left","d","657.885098552","447.972865058","5","green","0"
"100","100","25","553.732690281","1","1","7","412","1","left","out","Male","Right-handed","1","3","no","left","s","557.586706546","383.596649954","5","green","0"
"100","87","25","589.343714782","1","0","7","413","0","right","in","Male","Right-handed","1","3","no","right","s","934.182176915","743.059595658","5","red","2"
"100","88","25","587.773667654","1","1","7","414","3","right","out","Male","Right-handed","1","3","no","right","s","550.691041762","599.735539501","5","green","2"
"100","90","25","582.430262414","1","1","7","415","2","right","in","Male","Right-handed","1","3","no","right","s","581.311180143","487.368050375","5","green","1"
"100","81","25","579.805181602","1","0","7","416","0","right","out","Male","Right-handed","1","3","no","right","d","467.054366741","640.054380211","5","green","2"
"100","83","25","608.121787919","1","1","7","417","3","left","out","Male","Right-handed","1","3","no","left","d","543.578253816","1295.630661","5","red","0"
"100","84","25","605.300846946","1","1","7","418","1","right","out","Male","Right-handed","1","3","no","right","d","511.970317308","630.928793225","5","red","0"
"100","85","25","600.407228483","1","1","7","419","1","right","out","Male","Right-handed","1","3","no","right","d","553.785928751","519.79444819","5","red","2"
"100","86","25","601.745430739","1","1","7","420","3","right","in","Male","Right-handed","1","3","no","right","s","625.451324323","615.509200314","5","green","1"
"100","87","25","613.135468094","1","1","7","421","1","left","in","Male","Right-handed","1","3","no","left","d","625.016115862","942.955940996","5","red","3"
"100","82","25","621.775596564","1","0","7","422","3","left","in","Male","Right-handed","1","3","no","left","d","496.451944583","1023.58335958","5","red","2"
"100","83","25","613.220943858","1","1","7","423","3","right","in","Male","Right-handed","1","3","no","right","s","512.2608839","423.322811787","5","green","2"
"100","84","25","606.988572161","1","1","7","424","0","left","out","Male","Right-handed","1","3","no","left","d","437.817787165","551.793976099","5","red","3"
"100","85","25","612.484685922","1","1","7","425","0","right","in","Male","Right-handed","1","3","no","right","s","834.323162647","599.498532093","5","green","1"
"100","85","25","610.295762764","1","1","7","426","2","left","in","Male","Right-handed","1","3","no","left","s","645.92568551","487.108913723","5","red","3"
"100","86","25","610.087856305","1","1","7","427","1","right","out","Male","Right-handed","1","3","no","right","s","731.696068628","479.747572679","5","red","1"
"100","86","25","620.6175208","1","1","7","428","0","left","in","Male","Right-handed","1","3","no","left","s","793.294582569","911.245696824","5","green","0"
"100","87","25","615.713314525","1","1","7","429","0","left","in","Male","Right-handed","1","3","no","left","s","517.956117389","487.877022982","5","green","1"
"100","88","25","626.82131694","1","1","7","430","0","right","in","Male","Right-handed","1","3","no","right","d","843.314370602","943.512379227","5","red","1"
"100","88","25","628.197984102","1","1","7","431","0","right","in","Male","Right-handed","1","3","no","right","d","590.159991226","735.06933509","5","green","1"
"100","85","25","639.601574072","1","0","7","432","0","right","out","Male","Right-handed","1","3","no","right","d","632.567640118","1239.62218646","5","red","0"
"100","82","25","634.410856076","1","0","7","433","3","right","out","Male","Right-handed","1","3","no","right","s","541.236723256","447.286217073","5","green","1"
"100","82","25","629.234230625","1","1","7","434","0","right","in","Male","Right-handed","1","3","no","right","s","473.657540652","494.919895344","5","red","1"
"100","83","25","628.410260785","1","1","7","435","1","right","out","Male","Right-handed","1","3","no","right","d","425.461651303","783.568619578","5","red","1"
"100","83","25","622.42034212","1","1","7","436","2","right","in","Male","Right-handed","1","3","no","right","s","494.231323079","391.214241227","5","red","3"
"100","84","25","617.995823747","1","1","7","437","2","left","in","Male","Right-handed","1","3","no","left","d","466.848147847","494.823360527","5","green","1"
"100","84","25","613.579514707","1","1","7","438","2","left","out","Male","Right-handed","1","3","no","left","s","497.293497274","447.221753624","5","red","2"
"100","85","25","610.314761232","1","1","7","439","1","left","out","Male","Right-handed","1","3","no","left","d","494.066796962","511.088996122","5","red","1"
"100","85","25","609.465227353","1","1","7","440","1","left","out","Male","Right-handed","1","3","no","left","s","602.650185405","558.511965507","5","green","0"
"100","86","25","607.851034305","1","1","7","441","3","right","out","Male","Right-handed","1","3","no","right","d","495.344199541","607.364355754","5","red","3"
"100","86","25","603.825388669","1","1","7","442","2","right","in","Male","Right-handed","1","3","no","right","d","470.864124519","446.940167015","5","red","0"
"100","84","25","611.816743563","1","0","7","443","0","left","in","Male","Right-handed","1","3","no","left","s","471.542113234","1343.45163606","5","red","0"
"100","84","25","614.222229777","1","1","7","444","0","left","out","Male","Right-handed","1","3","no","left","s","780.071557635","631.189854159","5","red","2"
"100","85","25","612.896333954","1","1","7","445","0","right","in","Male","Right-handed","1","3","no","right","d","523.490031898","598.882761832","5","red","3"
"100","85","25","611.042738258","1","1","7","446","2","left","out","Male","Right-handed","1","3","no","left","d","506.426460674","567.37136014","5","green","2"
"100","85","25","610.992345237","1","1","7","447","2","left","in","Male","Right-handed","1","3","no","left","d","586.763633378","631.08882935","5","green","1"
"100","86","25","610.690943459","1","1","7","448","2","left","in","Male","Right-handed","1","3","no","left","s","485.573657348","710.490480255","5","red","0"
"100","86","25","608.271006032","1","1","7","449","2","left","out","Male","Right-handed","1","3","no","left","d","529.312909431","479.114483878","5","green","0"
"100","84","25","613.50668549","1","0","7","450","3","right","in","Male","Right-handed","1","3","no","right","s","1088.84538586","598.907777499","5","green","1"
"100","84","25","616.893867673","1","1","7","451","2","left","in","Male","Right-handed","1","3","no","left","s","587.299866647","951.334265114","5","red","1"
"100","85","25","612.713856486","1","1","7","452","1","left","in","Male","Right-handed","1","3","no","left","s","409.870476574","430.99620724","5","green","1"
"100","85","25","610.358378292","1","1","7","453","0","right","out","Male","Right-handed","1","3","no","right","s","600.672023441","398.629782883","5","red","2"
"100","85","25","612.784240188","1","1","7","454","3","left","out","Male","Right-handed","1","3","no","left","s","467.295864141","991.155358195","5","red","1"
"100","86","25","610.884316652","1","1","7","455","3","left","in","Male","Right-handed","1","3","no","left","d","396.839559134","638.73656771","5","red","2"
"100","84","25","619.514209836","1","0","7","456","2","left","out","Male","Right-handed","1","3","no","left","s","542.546517915","1559.47122012","5","green","1"
"100","84","25","617.782742659","1","1","7","457","2","right","out","Male","Right-handed","1","3","no","right","d","571.964621433","486.991211804","5","red","1"
"100","84","25","615.545280602","1","1","7","458","0","left","in","Male","Right-handed","1","3","no","left","d","527.648726157","470.745781172","5","green","0"
"100","85","25","616.032581279","1","1","7","459","2","right","out","Male","Right-handed","1","3","no","right","s","548.415257504","735.303776789","5","green","2"
"100","85","25","613.7732005","1","1","7","460","0","left","out","Male","Right-handed","1","3","no","left","s","616.85972561","366.673551321","5","green","1"
"100","85","25","610.910996594","1","1","7","461","2","left","out","Male","Right-handed","1","3","no","left","s","412.486217329","494.493346154","5","green","2"
"100","85","25","611.696395756","1","1","7","462","3","left","out","Male","Right-handed","1","3","no","left","d","832.076884049","479.280613563","5","green","0"
"100","86","25","611.458141435","1","1","7","463","1","right","out","Male","Right-handed","1","3","no","right","d","612.852087494","582.90320284","5","green","0"
"100","86","25","609.464054612","1","1","7","464","1","right","in","Male","Right-handed","1","3","no","right","s","484.276049809","503.337987958","5","red","3"
"100","86","25","607.783218507","1","1","7","465","3","right","out","Male","Right-handed","1","3","no","right","s","450.016452612","567.211324015","5","green","3"
"100","86","25","606.348729143","1","1","7","466","1","left","in","Male","Right-handed","1","3","no","left","d","449.746411695","590.812322845","5","red","2"
"100","87","25","606.790754168","1","1","7","467","1","left","out","Male","Right-handed","1","3","no","left","s","685.287837318","582.220724133","5","red","1"
"100","87","25","605.807084675","1","1","7","468","2","right","out","Male","Right-handed","1","3","no","right","d","562.755007463","526.88414475","5","green","0"
"100","87","25","607.512204759","1","1","7","469","1","left","in","Male","Right-handed","1","3","no","left","s","927.49497602","502.37456407","5","green","2"
"100","0","25","656.408372423","1","0","8","470","3","right","in","Male","Right-handed","1","3","no","right","d","561.473114893","751.343629953","5","red","2"
"100","50","25","616.187028671","1","1","8","471","3","right","in","Male","Right-handed","1","3","no","right","d","544.948984075","606.982385763","5","red","0"
"100","33","25","625.857935814","1","0","8","472","3","right","out","Male","Right-handed","1","3","no","right","d","642.674290244","647.725209955","5","green","2"
"100","50","25","623.092996383","1","1","8","473","0","left","in","Male","Right-handed","1","3","no","left","s","574.326677669","655.26967851","5","red","1"
"100","60","25","633.251978964","1","1","8","474","2","right","in","Male","Right-handed","1","3","no","right","d","604.909613264","742.86620531","5","red","1"
"100","50","25","628.115599748","1","0","8","475","0","right","out","Male","Right-handed","1","3","no","right","d","637.406568088","567.460839257","5","green","3"
"100","57","25","636.028301058","1","1","8","476","3","right","out","Male","Right-handed","1","3","no","right","d","744.037130947","622.971886881","5","red","2"
"100","62","25","623.725343532","1","1","8","477","0","left","out","Male","Right-handed","1","3","no","left","d","451.648885231","623.560396479","5","red","1"
"100","66","25","601.560542867","1","1","8","478","1","left","in","Male","Right-handed","1","3","no","left","s","441.250706371","407.233568715","5","red","1"
"100","60","25","600.09485107","1","0","8","479","0","right","in","Male","Right-handed","1","3","no","right","s","606.993610742","566.813639055","5","green","2"
"100","63","25","620.402664186","1","1","8","480","3","right","out","Male","Right-handed","1","3","no","right","s","575.39497493","1071.56661576","5","red","1"
"100","66","25","639.453603314","1","1","8","481","2","left","in","Male","Right-handed","1","3","no","left","s","707.043449647","990.984417805","5","green","1"
"100","69","25","649.972981106","1","1","8","482","0","right","in","Male","Right-handed","1","3","no","right","s","712.705328914","839.705700302","5","red","2"
"100","71","25","655.202637897","1","1","8","483","2","right","out","Male","Right-handed","1","3","no","right","s","799.249914851","647.126437519","5","green","1"
"100","73","25","652.452123328","1","1","8","484","0","right","in","Male","Right-handed","1","3","no","right","d","556.954579888","670.935258813","5","red","0"
"100","75","25","662.320237979","1","1","8","485","2","right","in","Male","Right-handed","1","3","no","right","s","557.357716981","1063.32619852","5","green","0"
"100","76","25","656.041287321","1","1","8","486","3","left","out","Male","Right-handed","1","3","no","left","d","559.988851992","551.167301572","5","red","3"
"100","77","25","647.744158788","1","1","8","487","1","left","out","Male","Right-handed","1","3","no","left","s","550.605090496","462.780856986","5","red","1"
"100","78","25","643.751744725","1","1","8","488","0","right","in","Male","Right-handed","1","3","no","right","d","512.36287085","631.413712305","5","green","0"
"100","80","25","638.788828003","1","1","8","489","1","left","in","Male","Right-handed","1","3","no","left","d","513.944309994","575.042510598","5","green","2"
"100","80","25","633.661128675","1","1","8","490","2","right","in","Male","Right-handed","1","3","no","right","s","574.584210753","487.63007345","5","green","0"
"100","81","25","628.940893227","1","1","8","491","0","left","in","Male","Right-handed","1","3","no","left","s","468.265381589","591.366516081","5","green","2"
"100","82","25","625.786247011","1","1","8","492","2","left","out","Male","Right-handed","1","3","no","left","s","601.750262825","511.017797685","5","green","1"
"100","79","25","621.249941737","1","0","8","493","2","left","out","Male","Right-handed","1","3","no","left","s","466.400431553","567.429409316","5","red","2"
"100","76","25","619.927300624","1","0","8","494","2","left","out","Male","Right-handed","1","3","no","left","d","441.194902191","735.172925608","5","red","1"
"100","76","25","642.397298476","1","1","8","495","1","right","out","Male","Right-handed","1","3","no","right","d","601.679064389","1806.61542517","5","red","2"
"100","77","25","640.907959665","1","1","8","496","1","left","in","Male","Right-handed","1","3","no","left","d","541.195030477","663.175270666","5","green","3"
"100","78","25","643.118713497","1","1","8","497","0","left","in","Male","Right-handed","1","3","no","left","d","878.883441745","526.734692175","5","green","0"
"100","79","25","643.133004806","1","1","8","498","3","left","in","Male","Right-handed","1","3","no","left","d","759.599441445","527.466881503","5","red","0"
"100","80","25","643.363723092","1","1","8","499","0","right","out","Male","Right-handed","1","3","no","right","d","765.11379242","534.995314373","5","red","2"
"100","80","25","642.867628864","1","1","8","500","3","right","out","Male","Right-handed","1","3","no","right","s","521.388395168","734.581208873","5","red","3"
"100","81","25","641.22326631","1","1","8","501","3","right","in","Male","Right-handed","1","3","no","right","s","581.23420886","599.261845399","5","red","0"
"100","81","25","635.894398238","1","1","8","502","2","right","out","Male","Right-handed","1","3","no","right","s","411.954153338","518.787086528","5","red","0"
"100","79","25","639.486674554","1","0","8","503","3","left","out","Male","Right-handed","1","3","no","left","d","549.567261034","966.496324942","5","green","1"
"100","80","25","645.447909181","1","1","8","504","1","right","out","Male","Right-handed","1","3","no","right","d","585.154933571","1111.10483938","5","green","1"
"100","80","25","645.303037722","1","1","8","505","3","right","out","Male","Right-handed","1","3","no","right","s","785.660955611","494.804117707","5","green","1"
"100","81","25","638.369827285","1","1","8","506","0","right","in","Male","Right-handed","1","3","no","right","s","434.265241758","343.283261376","5","green","0"
"100","81","25","634.423572192","1","1","8","507","1","left","in","Male","Right-handed","1","3","no","left","s","497.900928979","478.923338526","5","green","2"
"100","82","25","628.700400581","1","1","8","508","0","left","in","Male","Right-handed","1","3","no","left","d","447.675242764","374.764515982","5","red","1"
"100","80","25","627.662629095","1","0","8","509","3","left","out","Male","Right-handed","1","3","no","left","s","455.100085118","719.278997167","5","green","1"
"100","80","25","626.581398078","1","1","8","510","2","left","out","Male","Right-handed","1","3","no","left","d","487.846875896","678.81743887","5","green","0"
"100","80","25","625.57919363","1","1","8","511","1","left","in","Male","Right-handed","1","3","no","left","s","626.492681635","542.484940889","5","red","3"
"100","81","25","621.716725423","1","1","8","512","0","left","in","Male","Right-handed","1","3","no","left","d","520.077317653","398.908803782","5","red","1"
"100","81","25","617.693409882","1","1","8","513","2","right","out","Male","Right-handed","1","3","no","right","s","498.661982536","390.719700736","5","red","3"
"100","82","25","616.053476369","1","1","8","514","1","right","out","Male","Right-handed","1","3","no","right","d","473.446831766","614.345971804","5","green","0"
"100","82","25","620.370407425","1","1","8","515","3","left","out","Male","Right-handed","1","3","no","left","s","558.146672628","1071.11793732","5","green","1"
"100","82","25","618.979356425","1","1","8","516","1","left","in","Male","Right-handed","1","3","no","left","s","543.547144591","566.434876202","5","red","1"
"100","83","25","618.005705737","1","1","8","517","2","right","in","Male","Right-handed","1","3","no","right","s","513.237777762","631.250469044","5","green","3"
"100","83","25","619.400029927","1","1","8","518","3","left","out","Male","Right-handed","1","3","no","left","s","829.757803444","542.897378679","5","red","0"
"100","84","25","616.550095797","1","1","8","519","0","right","out","Male","Right-handed","1","3","no","right","d","515.353525894","438.453120961","5","green","3"
"100","84","25","615.502584808","1","1","8","520","1","left","in","Male","Right-handed","1","3","no","left","d","431.055218557","695.198852102","5","green","0"
"100","84","25","619.717121038","1","1","8","521","1","right","out","Male","Right-handed","1","3","no","right","d","662.647696667","1006.66924093","5","green","0"
"100","83","25","626.197168185","1","0","8","522","3","left","in","Male","Right-handed","1","3","no","left","s","496.248291398","1430.07094828","5","green","1"
"100","83","25","623.77391161","1","1","8","523","3","left","out","Male","Right-handed","1","3","no","left","d","503.887370487","486.795255747","5","green","2"
"100","83","25","621.693178123","1","1","8","524","1","left","out","Male","Right-handed","1","3","no","left","s","428.361865091","590.305274521","5","red","0"
"100","83","25","619.405301658","1","1","8","525","2","left","out","Male","Right-handed","1","3","no","left","d","428.089899892","559.054292336","5","red","1"
"100","84","25","620.164207429","1","1","8","526","0","right","out","Male","Right-handed","1","3","no","right","d","542.666785545","782.659075588","5","red","1"
"100","84","25","620.098494156","1","1","8","527","2","right","in","Male","Right-handed","1","3","no","right","d","618.338857092","614.366818193","5","green","2"
"100","84","25","618.367911577","1","1","8","528","0","right","in","Male","Right-handed","1","3","no","right","d","540.927875984","495.060367935","5","red","1"
"100","85","25","616.421398209","1","1","8","529","1","left","out","Male","Right-handed","1","3","no","left","d","436.613828019","566.540391001","5","green","1"
"100","85","25","613.638532636","1","1","8","530","2","left","in","Male","Right-handed","1","3","no","left","d","455.151078592","438.182117904","5","red","2"
"100","85","25","611.642598623","1","1","8","531","2","right","in","Male","Right-handed","1","3","no","right","s","614.94730995","364.833937664","5","red","2"
"100","85","25","612.163347234","1","1","8","532","1","right","in","Male","Right-handed","1","3","no","right","s","482.503786024","806.395736305","5","green","2"
"100","85","25","614.521196729","1","1","8","533","1","left","out","Male","Right-handed","1","3","no","left","s","616.090333498","910.041096251","5","green","1"
dis_reply=No
dis_loc=2
tar_loc=1
