"acc_1","acc_2","age","avg_rt","correct_1","correct_2","count_block_loop","count_trial_sequence","cue_position","detection","dis_shape","gender","hand","high_loc","low_loc","practice","response_keyboard_response_1","response_keyboard_response_2","response_time_keyboard_response_1","response_time_keyboard_response_2","subject_nr","tar_color","tar_position"
"0","100","20","2287.70021353","0","1","0","0","3","right","out","Female","Right-handed","3","2","yes","None","s","3000.12732333","1575.27310373","11","red","2"
"50","100","20","1936.0458441","1","1","0","1","3","left","out","Female","Right-handed","3","2","yes","left","s","1255.43593648","1913.34701284","11","green","0"
"66","100","20","1629.82462948","1","1","0","2","2","right","out","Female","Right-handed","3","2","yes","right","s","896.876120492","1137.88828003","11","red","3"
"75","100","20","1521.99422331","1","1","0","3","0","left","out","Female","Right-handed","3","2","yes","left","s","1227.51428298","1169.49172655","11","green","2"
"80","100","20","1397.7946124","1","1","0","4","3","right","in","Female","Right-handed","3","2","yes","right","d","904.059465449","897.932872062","11","green","3"
"83","83","20","1293.81702515","1","0","0","5","1","right","in","Female","Right-handed","3","2","yes","right","s","1090.38256652","457.475611329","11","red","3"
"85","71","20","1216.86500822","1","0","0","6","0","right","out","Female","Right-handed","3","2","yes","right","s","780.168092453","730.137720868","11","red","1"
"87","75","20","1180.35570194","1","1","0","7","0","left","out","Female","Right-handed","3","2","yes","left","s","1247.79749882","601.783617047","11","green","3"
"88","77","20","1140.90760332","1","1","0","8","3","left","out","Female","Right-handed","3","2","yes","left","d","993.332683352","657.312945352","11","green","3"
"90","80","20","1120.45925557","1","1","0","9","2","left","out","Female","Right-handed","3","2","yes","left","s","910.863726835","961.984524924","11","green","3"
"90","81","20","1085.54681653","1","1","0","10","0","left","in","Female","Right-handed","3","2","yes","left","d","903.453958024","569.390894168","11","green","2"
"91","83","20","1076.67692095","1","1","0","11","1","right","in","Female","Right-handed","3","2","yes","right","d","741.134992877","1217.08114633","11","green","1"
"92","84","20","1064.3236304","1","1","0","12","3","right","in","Female","Right-handed","3","2","yes","right","d","990.656006999","841.512280447","11","green","2"
"92","85","20","1032.39091314","1","1","0","13","2","right","out","Female","Right-handed","3","2","yes","right","s","657.374843089","577.156334448","11","green","1"
"93","86","20","1015.98255232","1","1","0","14","2","left","in","Female","Right-handed","3","2","yes","left","d","978.947712767","593.583289023","11","green","0"
"93","87","20","1001.0122325","1","1","0","15","3","left","in","Female","Right-handed","3","2","yes","left","s","727.402033197","825.512837207","11","red","1"
"94","88","20","980.660833174","1","1","0","16","1","right","out","Female","Right-handed","3","2","yes","right","s","820.001372655","490.075515243","11","green","0"
"94","88","20","957.498818527","1","1","0","17","0","right","in","Female","Right-handed","3","2","yes","right","d","597.72274046","529.766398571","11","red","0"
"94","84","20","938.882100825","1","0","0","18","3","right","in","Female","Right-handed","3","2","yes","right","d","542.239274211","665.323090167","11","red","0"
"95","85","20","930.507960755","1","1","0","19","1","left","in","Female","Right-handed","3","2","yes","left","s","1012.89846269","529.900136175","11","red","2"
"95","85","20","925.906213913","1","1","0","20","1","left","out","Female","Right-handed","3","2","yes","left","s","850.418178565","817.324375586","11","red","3"
"95","86","20","918.821609898","1","1","0","21","1","left","in","Female","Right-handed","3","2","yes","left","s","715.088872968","825.000978177","11","red","1"
"100","100","20","644.570028794","1","1","1","22","3","right","in","Female","Right-handed","3","2","no","right","d","799.181923552","489.958134036","11","red","1"
"100","100","20","735.349959558","1","1","1","23","0","right","out","Female","Right-handed","3","2","no","right","d","938.614760655","713.645019991","11","red","3"
"100","100","20","716.144181324","1","1","1","24","3","left","in","Female","Right-handed","3","2","no","left","d","658.217037208","697.248212502","11","green","0"
"100","75","20","789.667310873","1","0","1","25","3","left","out","Female","Right-handed","3","2","no","left","s","1066.81299763","953.660401417","11","green","3"
"100","80","20","779.716527594","1","1","1","26","0","left","in","Female","Right-handed","3","2","no","left","d","846.489115298","633.337673658","11","red","1"
"100","83","20","772.270491412","1","1","1","27","2","left","out","Female","Right-handed","3","2","no","left","d","661.075237504","809.005383499","11","red","0"
"100","71","20","804.818443529","1","0","1","28","3","right","out","Female","Right-handed","3","2","no","right","d","1206.74294093","793.469371523","11","green","1"
"100","62","20","779.107732856","1","0","1","29","2","left","out","Female","Right-handed","3","2","no","left","s","773.012008161","425.253508127","11","red","3"
"100","66","20","748.619755235","1","1","1","30","0","right","in","Female","Right-handed","3","2","no","right","d","543.725782109","465.706086439","11","red","0"
"100","60","20","785.449541155","1","0","1","31","0","right","in","Female","Right-handed","3","2","no","right","d","1088.33865825","1145.49657061","11","red","2"
"100","63","20","782.722664363","1","1","1","32","2","right","out","Female","Right-handed","3","2","no","right","s","820.967682965","689.940109929","11","green","3"
"100","58","20","764.498048885","1","0","1","33","1","left","out","Female","Right-handed","3","2","no","left","d","550.425170122","577.629387122","11","green","0"
"100","61","20","771.084629974","1","1","1","34","0","left","in","Female","Right-handed","3","2","no","left","d","883.181646454","817.06555965","11","green","2"
"100","64","20","784.736590068","1","1","1","35","3","left","out","Female","Right-handed","3","2","no","left","s","1066.67797717","857.746165388","11","red","3"
"100","66","20","782.065776665","1","1","1","36","2","left","in","Female","Right-handed","3","2","no","left","d","936.106138268","553.242639782","11","red","1"
"100","68","20","787.807171543","1","1","1","37","2","left","out","Female","Right-handed","3","2","no","left","d","818.923774697","928.932414723","11","green","3"
"100","70","20","770.732177252","1","1","1","38","0","right","in","Female","Right-handed","3","2","no","right","d","505.507615988","489.556921226","11","red","0"
"100","72","20","768.556591389","1","1","1","39","2","right","in","Female","Right-handed","3","2","no","right","d","862.066820055","601.076443389","11","green","1"
"100","73","20","767.567868163","1","1","1","40","0","left","out","Female","Right-handed","3","2","no","left","d","681.70642768","817.835272475","11","green","1"
"100","75","20","760.432166491","1","1","1","41","1","right","out","Female","Right-handed","3","2","no","right","d","584.315305161","665.392364321","11","red","0"
"100","71","20","759.882158188","1","0","1","42","0","left","out","Female","Right-handed","3","2","no","left","s","584.853142","912.91084224","11","red","3"
"100","72","20","762.38924226","1","1","1","43","1","right","in","Female","Right-handed","3","2","no","right","s","684.53800874","945.538006816","11","red","1"
"100","73","20","750.945805552","1","1","1","44","1","left","in","Female","Right-handed","3","2","no","left","s","565.213598517","433.166797411","11","red","3"
"100","75","20","750.210849198","1","1","1","45","1","left","in","Female","Right-handed","3","2","no","left","d","656.859776924","809.753929223","11","green","1"
"100","76","20","755.153394145","1","1","1","46","3","right","out","Female","Right-handed","3","2","no","right","s","650.312407195","1097.23653853","11","green","1"
"100","76","20","756.796619767","1","1","1","47","3","right","in","Female","Right-handed","3","2","no","right","s","730.916413677","864.838106942","11","red","3"
"100","77","20","759.859682777","1","1","1","48","2","left","out","Female","Right-handed","3","2","no","left","d","797.571620174","881.427021925","11","red","3"
"100","78","20","754.459391967","1","1","1","49","1","right","in","Female","Right-handed","3","2","no","right","s","584.102992707","633.200087492","11","green","3"
"100","79","20","744.845362592","1","1","1","50","0","right","out","Female","Right-handed","3","2","no","right","s","430.665230726","520.639849443","11","red","3"
"100","76","20","741.592138153","1","0","1","51","2","right","out","Female","Right-handed","3","2","no","right","d","637.24717339","657.250085471","11","red","0"
"100","77","20","738.39611876","1","1","1","52","1","right","out","Female","Right-handed","3","2","no","right","s","604.070946996","680.960126951","11","red","1"
"100","78","20","742.509401321","1","1","1","53","1","right","in","Female","Right-handed","3","2","no","right","s","938.548372922","801.493948455","11","red","1"
"100","78","20","743.401889478","1","1","1","54","1","left","in","Female","Right-handed","3","2","no","left","s","798.947481853","744.975539168","11","red","3"
"100","79","20","747.397002897","1","1","1","55","3","left","in","Female","Right-handed","3","2","no","left","s","925.764405016","832.707086425","11","red","0"
"100","80","20","741.765955803","1","1","1","56","0","left","out","Female","Right-handed","3","2","no","left","s","675.267138458","425.353570796","11","red","0"
"100","77","20","745.756793232","1","0","1","57","2","right","in","Female","Right-handed","3","2","no","right","s","617.990241324","1152.88196518","11","green","0"
"100","78","20","749.127663131","1","1","1","58","2","left","in","Female","Right-handed","3","2","no","left","d","1019.49714661","721.460812318","11","green","2"
"100","76","20","747.521216645","1","0","1","59","1","right","in","Female","Right-handed","3","2","no","right","d","743.09391202","633.071481307","11","green","3"
"100","74","20","757.700532765","1","0","1","60","1","right","in","Female","Right-handed","3","2","no","right","s","880.535758613","1408.49333204","11","green","2"
"100","75","20","764.063831964","1","1","1","61","2","left","out","Female","Right-handed","3","2","no","left","s","695.19339997","1329.27160151","11","red","3"
"100","75","20","764.60487457","1","1","1","62","1","right","out","Female","Right-handed","3","2","no","right","d","819.698939656","752.794217917","11","red","2"
"100","76","20","766.858520643","1","1","1","63","3","left","in","Female","Right-handed","3","2","no","left","s","741.27225833","977.243760995","11","green","2"
"100","76","20","762.825940378","1","1","1","64","0","right","out","Female","Right-handed","3","2","no","right","d","586.007069813","600.908068707","11","green","0"
"100","77","20","757.650551893","1","1","1","65","1","right","out","Female","Right-handed","3","2","no","right","s","589.640755781","480.576938249","11","red","0"
"100","77","20","758.773425551","1","1","1","66","1","right","out","Female","Right-handed","3","2","no","right","d","583.154642361","1033.20509062","11","red","0"
"100","76","20","764.370461779","1","0","1","67","0","left","in","Female","Right-handed","3","2","no","left","d","1071.80715102","960.667033136","11","green","3"
"100","76","20","769.955627284","1","1","1","68","3","left","in","Female","Right-handed","3","2","no","left","s","1132.36911835","921.377362618","11","red","3"
"100","77","20","768.435621086","1","1","1","69","2","left","out","Female","Right-handed","3","2","no","left","d","577.014899715","816.975759819","11","red","0"
"100","77","20","769.620729372","1","1","1","70","2","left","in","Female","Right-handed","3","2","no","left","d","756.59820285","896.41365137","11","green","1"
"100","78","20","771.288223458","1","1","1","71","0","right","out","Female","Right-handed","3","2","no","right","s","673.113225399","1032.87764196","11","green","3"
"100","76","20","777.529386083","1","0","1","72","2","right","out","Female","Right-handed","3","2","no","right","s","978.589475588","1200.58555903","11","green","1"
"100","76","20","780.186333043","1","1","1","73","1","left","in","Female","Right-handed","3","2","no","left","s","846.186040873","985.195215208","11","red","3"
"100","77","20","783.821193701","1","1","1","74","3","left","in","Female","Right-handed","3","2","no","left","d","608.835469393","1336.83242646","11","green","0"
"100","77","20","785.710155465","1","1","1","75","1","right","in","Female","Right-handed","3","2","no","right","s","731.300307949","1040.34994994","11","green","3"
"100","78","20","785.342352813","1","1","1","76","0","right","out","Female","Right-handed","3","2","no","right","s","593.980973981","936.981045179","11","green","1"
"100","78","20","788.801464122","1","1","1","77","3","left","out","Female","Right-handed","3","2","no","left","s","893.475914083","1064.6292582","11","green","2"
"100","78","20","787.913949504","1","1","1","78","3","left","in","Female","Right-handed","3","2","no","left","d","707.19546793","769.230793901","11","red","3"
"100","79","20","788.367629754","1","1","1","79","3","right","in","Female","Right-handed","3","2","no","right","d","611.823879443","1016.63092847","11","green","3"
"100","79","20","789.381424527","1","1","1","80","0","right","out","Female","Right-handed","3","2","no","right","s","783.175745322","913.187297429","11","green","3"
"100","80","20","792.888660612","1","1","1","81","3","right","in","Female","Right-handed","3","2","no","right","s","902.875390549","1096.75578872","11","green","0"
"100","80","20","796.198629148","1","1","1","82","0","right","in","Female","Right-handed","3","2","no","right","s","1189.29900329","800.294479299","11","red","1"
"100","80","20","805.242930989","1","1","1","83","2","left","out","Female","Right-handed","3","2","no","left","d","1305.13821797","1408.75246869","11","green","3"
"100","80","20","804.065545262","1","1","1","84","2","left","out","Female","Right-handed","3","2","no","left","s","685.523241158","776.612019194","11","green","2"
"100","81","20","808.972938801","1","1","1","85","3","left","out","Female","Right-handed","3","2","no","left","d","1228.09766116","1008.17980235","11","green","1"
"100","100","20","847.599105337","1","1","2","86","1","left","out","Female","Right-handed","3","2","no","left","d","838.087379083","857.110831592","11","green","2"
"100","50","20","836.648096276","1","0","2","87","2","right","in","Female","Right-handed","3","2","no","right","d","769.67883091","881.715343519","11","red","1"
"100","66","20","812.227486915","1","1","2","88","2","left","in","Female","Right-handed","3","2","no","left","d","821.334900125","705.437636263","11","red","2"
"100","50","20","848.791999861","1","0","2","89","1","right","in","Female","Right-handed","3","2","no","right","d","635.993824337","1280.97725306","11","red","1"
"100","60","20","837.440275095","1","1","2","90","3","right","in","Female","Right-handed","3","2","no","right","d","686.545034934","897.521717128","11","red","1"
"100","50","20","845.042349172","1","0","2","91","0","left","out","Female","Right-handed","3","2","no","left","s","1005.02879047","761.076648643","11","red","3"
"100","57","20","838.417897436","1","1","2","92","1","left","in","Female","Right-handed","3","2","no","left","s","827.745645831","769.596728207","11","green","0"
"100","62","20","826.021990214","1","1","2","93","0","right","in","Female","Right-handed","3","2","no","right","d","653.220638824","825.280640504","11","green","0"
"100","66","20","834.606085563","1","1","2","94","2","right","out","Female","Right-handed","3","2","no","right","s","533.695461838","1272.86223488","11","red","0"
"100","70","20","837.487885041","1","1","2","95","1","left","in","Female","Right-handed","3","2","no","left","s","693.437813297","1033.41034738","11","red","1"
"100","63","20","845.214103495","1","0","2","96","1","left","in","Female","Right-handed","3","2","no","left","s","588.005757452","1256.94681862","11","green","0"
"100","66","20","826.793086119","1","1","2","97","2","right","in","Female","Right-handed","3","2","no","right","d","606.724211253","641.59957871","11","red","0"
"100","69","20","847.968838867","1","1","2","98","3","right","in","Female","Right-handed","3","2","no","right","d","1171.12929059","1033.02645311","11","red","1"
"100","64","20","843.457466173","1","0","2","99","2","right","in","Female","Right-handed","3","2","no","right","s","600.830135283","968.789107024","11","red","3"
"100","60","20","844.482057032","1","0","2","100","2","right","out","Female","Right-handed","3","2","no","right","s","716.31784778","1001.33481033","11","red","3"
"100","62","20","834.59745302","1","1","2","101","0","left","in","Female","Right-handed","3","2","no","left","d","707.877305209","664.779480483","11","red","2"
"100","64","20","846.505066088","1","1","2","102","2","left","out","Female","Right-handed","3","2","no","left","s","896.569197505","1177.48455283","11","green","1"
"100","66","20","853.568531203","1","1","2","103","2","left","in","Female","Right-handed","3","2","no","left","s","1042.0654474","905.229428945","11","green","3"
"100","68","20","851.230639148","1","1","2","104","3","left","out","Female","Right-handed","3","2","no","left","d","865.671000365","752.626163951","11","green","1"
"100","70","20","852.730997234","1","1","2","105","0","left","in","Female","Right-handed","3","2","no","left","d","937.298872435","825.176729273","11","red","1"
"100","66","20","850.801194692","1","0","2","106","2","right","in","Female","Right-handed","3","2","no","right","d","543.761060613","1080.64922711","11","green","2"
"100","68","20","855.235261559","1","1","2","107","3","right","out","Female","Right-handed","3","2","no","right","s","919.431272021","977.270059519","11","green","0"
"100","69","20","847.002717337","1","1","2","108","0","right","out","Female","Right-handed","3","2","no","right","s","506.847878447","824.925610463","11","red","1"
"100","70","20","847.13465848","1","1","2","109","1","right","out","Female","Right-handed","3","2","no","right","d","659.723429353","1040.61518015","11","green","2"
"100","72","20","838.216511238","1","1","2","110","3","left","out","Female","Right-handed","3","2","no","left","d","631.172214907","617.189739985","11","red","3"
"100","73","20","832.890892368","1","1","2","111","0","right","out","Female","Right-handed","3","2","no","right","s","726.847839962","672.653001271","11","green","2"
"100","74","20","832.335005107","1","1","2","112","1","right","in","Female","Right-handed","3","2","no","right","s","658.439291788","977.324580843","11","green","0"
"100","75","20","835.49990122","1","1","2","113","2","right","out","Female","Right-handed","3","2","no","right","d","913.002566351","928.901626212","11","red","1"
"100","75","20","825.605141921","1","1","2","114","3","right","in","Female","Right-handed","3","2","no","right","s","448.573561775","648.530201286","11","green","3"
"100","76","20","817.955246117","1","1","2","115","1","left","out","Female","Right-handed","3","2","no","left","d","543.139196792","649.077338821","11","red","1"
"100","77","20","818.365241482","1","1","2","116","2","right","out","Female","Right-handed","3","2","no","right","s","916.638497314","744.691707563","11","green","3"
"100","78","20","816.207520271","1","1","2","117","0","right","out","Female","Right-handed","3","2","no","right","s","697.301771686","801.334553757","11","red","3"
"100","78","20","810.172582056","1","1","2","118","3","right","in","Female","Right-handed","3","2","no","right","s","553.001142382","681.107975957","11","green","3"
"100","79","20","814.787417203","1","1","2","119","3","left","out","Female","Right-handed","3","2","no","left","s","1045.54679437","888.607159741","11","green","2"
"100","80","20","810.45468861","1","1","2","120","1","left","out","Female","Right-handed","3","2","no","left","d","813.205129109","513.078703778","11","red","1"
"100","80","20","810.353797432","1","1","2","121","3","right","in","Female","Right-handed","3","2","no","right","d","676.903740356","936.741472062","11","red","0"
"100","81","20","808.474927411","1","1","2","122","0","left","out","Female","Right-handed","3","2","no","left","s","617.300065491","864.371147827","11","green","3"
"100","81","20","806.330238975","1","1","2","123","2","right","out","Female","Right-handed","3","2","no","right","d","820.967362251","632.986171467","11","red","3"
"100","82","20","803.618285956","1","1","2","124","0","left","in","Female","Right-handed","3","2","no","left","s","624.567437428","776.560705004","11","green","0"
"100","80","20","801.219481688","1","0","2","125","1","left","out","Female","Right-handed","3","2","no","left","d","750.188098571","665.144131935","11","red","3"
"100","80","20","806.448552371","1","1","2","126","3","right","in","Female","Right-handed","3","2","no","right","s","1166.52961502","864.69314436","11","green","2"
"100","80","20","801.838818744","1","1","2","127","1","left","in","Female","Right-handed","3","2","no","left","d","737.277769475","488.40171056","11","red","3"
"100","81","20","797.41192341","1","1","2","128","3","right","in","Female","Right-handed","3","2","no","right","d","534.036059764","688.928578987","11","green","3"
"100","81","20","791.03968479","1","1","2","129","3","right","out","Female","Right-handed","3","2","no","right","s","409.5545736","624.512274675","11","green","3"
"100","80","20","792.796724473","1","0","2","130","2","right","out","Female","Right-handed","3","2","no","right","s","1011.08963755","729.123303505","11","red","1"
"100","78","20","794.100347796","1","0","2","131","2","left","out","Female","Right-handed","3","2","no","left","d","896.704538676","808.822255989","11","red","0"
"100","78","20","793.968081292","1","1","2","132","0","right","in","Female","Right-handed","3","2","no","right","s","927.49850387","648.269140352","11","green","3"
"100","79","20","792.114165811","1","1","2","133","0","left","in","Female","Right-handed","3","2","no","left","s","760.983000251","648.977276154","11","green","3"
"100","79","20","789.232792929","1","1","2","134","1","left","in","Female","Right-handed","3","2","no","left","s","613.544508324","688.309280877","11","green","3"
"100","78","20","788.938819376","1","0","2","135","1","left","in","Female","Right-handed","3","2","no","left","s","892.035268242","657.03296231","11","green","0"
"100","78","20","788.572202579","1","1","2","136","3","left","out","Female","Right-handed","3","2","no","left","d","811.850434535","728.632290864","11","green","0"
"100","78","20","786.40259674","1","1","2","137","0","right","out","Female","Right-handed","3","2","no","right","s","903.228175595","448.277222338","11","green","0"
"100","79","20","786.440205131","1","1","2","138","0","left","out","Female","Right-handed","3","2","no","left","d","999.911803739","576.879879258","11","red","1"
"100","79","20","785.96096544","1","1","2","139","2","right","out","Female","Right-handed","3","2","no","right","d","752.536043408","768.586480122","11","green","0"
"100","80","20","785.70897228","1","1","2","140","3","left","out","Female","Right-handed","3","2","no","left","d","736.163289445","808.039393902","11","green","0"
"100","80","20","787.154845649","1","1","2","141","2","left","in","Female","Right-handed","3","2","no","left","d","764.695581784","968.660180126","11","red","3"
"100","80","20","784.81521395","1","1","2","142","0","right","in","Female","Right-handed","3","2","no","right","s","443.359078088","864.232599519","11","red","0"
"100","81","20","782.144731027","1","1","2","143","0","left","in","Female","Right-handed","3","2","no","left","s","874.913647842","384.940760976","11","red","3"
"100","81","20","781.676841027","1","1","2","144","0","left","in","Female","Right-handed","3","2","no","left","d","956.530147407","552.548294669","11","red","1"
"100","81","20","783.659448364","1","1","2","145","1","right","out","Female","Right-handed","3","2","no","right","d","745.25744649","1056.00911596","11","red","3"
"100","81","20","781.404809084","1","1","2","146","1","right","out","Female","Right-handed","3","2","no","right","s","555.706682966","736.546221577","11","green","3"
"100","82","20","781.08803636","1","1","2","147","3","left","out","Female","Right-handed","3","2","no","left","s","635.399862606","888.129937788","11","green","1"
"100","82","20","779.577187683","1","1","2","148","1","left","out","Female","Right-handed","3","2","no","left","d","562.905742892","808.90339655","11","red","3"
"100","82","20","776.779787526","1","1","2","149","3","left","in","Female","Right-handed","3","2","no","left","s","576.471610746","624.615544479","11","green","3"
"100","100","20","560.025734066","1","1","3","150","2","left","in","Female","Right-handed","3","2","no","left","d","550.935746298","569.115721833","11","green","2"
"100","100","20","768.132189198","1","1","3","151","3","left","in","Female","Right-handed","3","2","no","left","d","647.842591161","1304.6346975","11","red","0"
"100","100","20","789.963757217","1","1","3","152","3","right","out","Female","Right-handed","3","2","no","right","s","538.057488569","1129.19629794","11","red","3"
"100","100","20","764.075000818","1","1","3","153","2","left","out","Female","Right-handed","3","2","no","left","d","523.918505372","848.898957873","11","green","2"
"100","100","20","729.944170163","1","1","3","154","0","left","out","Female","Right-handed","3","2","no","left","d","546.298547231","640.543147856","11","green","3"
"100","100","20","724.122254771","1","1","3","155","1","right","out","Female","Right-handed","3","2","no","right","s","476.973078652","913.05227697","11","green","3"
"100","100","20","724.780909033","1","1","3","156","1","left","out","Female","Right-handed","3","2","no","left","d","856.762215824","600.703453379","11","red","1"
"100","100","20","708.655757484","1","1","3","157","0","right","in","Female","Right-handed","3","2","no","right","d","646.137997963","545.421395323","11","red","1"
"100","100","20","702.745013312","1","1","3","158","2","right","out","Female","Right-handed","3","2","no","right","s","549.957248866","760.960871006","11","red","0"
"100","100","20","692.057605949","1","1","3","159","1","right","out","Female","Right-handed","3","2","no","right","d","623.476690209","568.26518916","11","green","3"
"100","100","20","678.4268825","1","1","3","160","3","right","out","Female","Right-handed","3","2","no","right","d","507.141972888","577.097323132","11","red","3"
"100","100","20","702.748438712","1","1","3","161","3","left","out","Female","Right-handed","3","2","no","left","d","875.753596965","1064.81751712","11","red","2"
"100","100","20","704.715389061","1","1","3","162","0","left","out","Female","Right-handed","3","2","no","left","s","632.314276314","824.323310177","11","red","0"
"100","100","20","717.416177586","1","1","3","163","1","left","out","Female","Right-handed","3","2","no","left","d","668.020612909","1097.03224391","11","red","0"
"100","100","20","722.188180247","1","1","3","164","2","left","out","Female","Right-handed","3","2","no","left","d","977.506104786","600.486330222","11","red","1"
"100","100","20","727.062036609","1","1","3","165","0","right","out","Female","Right-handed","3","2","no","right","s","927.19061874","673.14914533","11","red","1"
"100","100","20","724.778906594","1","1","3","166","0","right","out","Female","Right-handed","3","2","no","right","d","775.798689308","600.69896339","11","green","3"
"100","100","20","730.255422787","1","1","3","167","2","right","in","Female","Right-handed","3","2","no","right","s","1022.41948964","624.292906519","11","green","1"
"100","100","20","724.187587523","1","1","3","168","0","right","in","Female","Right-handed","3","2","no","right","s","596.987985426","632.945120118","11","green","3"
"100","100","20","721.678865546","1","1","3","169","1","right","out","Female","Right-handed","3","2","no","right","s","731.435328407","616.590967547","11","red","1"
"100","100","20","709.916051515","1","1","3","170","3","right","in","Female","Right-handed","3","2","no","right","s","412.233174238","537.086367553","11","red","3"
"100","100","20","716.407494542","1","1","3","171","0","left","in","Female","Right-handed","3","2","no","left","d","872.79886185","832.656734379","11","green","3"
"100","100","20","705.101521357","1","1","3","172","3","left","in","Female","Right-handed","3","2","no","left","d","416.360759269","496.379463293","11","green","3"
"100","100","20","708.72360179","1","1","3","173","2","left","in","Female","Right-handed","3","2","no","left","d","943.008217326","641.054686172","11","red","3"
"100","96","20","699.121507508","1","0","3","174","1","left","in","Female","Right-handed","3","2","no","left","d","472.627087605","464.71540189","11","red","3"
"100","96","20","698.432133211","1","1","3","175","3","right","in","Female","Right-handed","3","2","no","right","s","498.212021246","864.183530326","11","red","3"
"100","92","20","708.72087127","1","0","3","176","0","left","in","Female","Right-handed","3","2","no","left","s","599.749971618","1352.70614994","11","green","0"
"100","89","20","709.030442692","1","0","3","177","3","right","out","Female","Right-handed","3","2","no","right","s","586.317199939","848.460542275","11","green","0"
"100","86","20","710.699292508","1","0","3","178","2","left","out","Female","Right-handed","3","2","no","left","s","562.085998732","952.768175967","11","red","1"
"100","86","20","702.194600935","1","1","3","179","2","left","out","Female","Right-handed","3","2","no","left","s","470.509415192","440.607675448","11","green","3"
"100","87","20","716.902151892","1","1","3","180","3","right","in","Female","Right-handed","3","2","no","right","d","1260.17897106","1056.07839012","11","green","2"
"100","87","20","716.148671315","1","1","3","181","1","right","out","Female","Right-handed","3","2","no","right","s","640.72146466","744.860082243","11","green","1"
"100","87","20","716.229151011","1","1","3","182","1","left","in","Female","Right-handed","3","2","no","left","d","853.248156056","584.360846504","11","green","3"
"100","88","20","724.204593292","1","1","3","183","2","left","out","Female","Right-handed","3","2","no","left","d","1197.94031262","776.848064461","11","red","3"
"100","88","20","741.300416992","1","1","3","184","0","right","out","Female","Right-handed","3","2","no","right","d","516.602705669","2128.51413995","11","red","0"
"100","88","20","744.735863601","1","1","3","185","0","left","in","Female","Right-handed","3","2","no","left","d","1114.00088389","615.952105904","11","red","2"
"100","89","20","754.340456569","1","1","3","186","0","right","in","Female","Right-handed","3","2","no","right","s","1199.71161426","1000.49999262","11","green","2"
"100","89","20","775.058334442","1","1","3","187","2","right","out","Female","Right-handed","3","2","no","right","s","803.167432425","2280.07219906","11","green","1"
"100","89","20","768.918015831","1","1","3","188","3","right","in","Female","Right-handed","3","2","no","right","s","646.613937062","424.557880158","11","green","0"
"100","90","20","764.814285934","1","1","3","189","1","right","out","Female","Right-handed","3","2","no","right","s","673.220664481","536.316975438","11","green","0"
"100","90","20","760.938190292","1","1","3","190","3","left","out","Female","Right-handed","3","2","no","left","d","650.799571269","560.989157954","11","green","1"
"100","88","20","757.173776996","1","0","3","191","1","left","in","Female","Right-handed","3","2","no","left","d","517.359910662","688.305753027","11","red","1"
"100","88","20","755.614353975","1","1","3","192","3","left","in","Female","Right-handed","3","2","no","left","d","724.152882927","656.084291251","11","red","1"
"100","88","20","753.5709172","1","1","3","193","1","right","in","Female","Right-handed","3","2","no","right","s","554.755446199","776.65082555","11","red","3"
"100","88","20","756.165022011","1","1","3","194","1","right","out","Female","Right-handed","3","2","no","right","s","844.359255765","896.252011677","11","red","2"
"100","89","20","757.287308476","1","1","3","195","3","right","out","Female","Right-handed","3","2","no","right","s","935.799215278","679.781183473","11","red","0"
"100","89","20","751.600084892","1","1","3","196","3","right","in","Female","Right-handed","3","2","no","right","d","507.548637832","472.426962271","11","red","1"
"100","89","20","753.911707979","1","1","3","197","1","left","out","Female","Right-handed","3","2","no","left","d","805.074075239","920.041910864","11","green","0"
"100","89","20","753.694091408","1","1","3","198","0","left","in","Female","Right-handed","3","2","no","left","s","541.673535285","944.823456741","11","green","3"
"100","90","20","749.466730125","1","1","3","199","0","right","in","Female","Right-handed","3","2","no","right","s","524.360769534","560.291284992","11","green","1"
"100","90","20","746.406752253","1","1","3","200","2","left","in","Female","Right-handed","3","2","no","left","d","418.825764596","767.989952683","11","red","3"
"100","90","20","743.054362473","1","1","3","201","3","left","in","Female","Right-handed","3","2","no","left","s","575.609532381","568.555435038","11","red","3"
"100","90","20","740.56490011","1","1","3","202","1","right","in","Female","Right-handed","3","2","no","right","d","718.108071529","504.117642909","11","green","2"
"100","90","20","740.718430353","1","1","3","203","1","right","in","Female","Right-handed","3","2","no","right","s","681.885706624","815.825359858","11","green","0"
"100","89","20","736.977047922","1","0","3","204","2","left","out","Female","Right-handed","3","2","no","left","d","637.431904468","432.452888764","11","green","0"
"100","89","20","734.620158403","1","1","3","205","2","left","out","Female","Right-handed","3","2","no","left","d","538.076089962","671.906379828","11","green","0"
"100","89","20","734.393084981","1","1","3","206","2","right","in","Female","Right-handed","3","2","no","right","s","586.669343557","856.684603113","11","red","0"
"100","89","20","733.787813","1","1","3","207","0","left","out","Female","Right-handed","3","2","no","left","s","662.291383769","736.283236362","11","green","3"
"100","89","20","732.075489216","1","1","3","208","1","right","in","Female","Right-handed","3","2","no","right","s","465.758362769","799.763056735","11","red","3"
"100","88","20","731.615751232","1","0","3","209","0","right","in","Female","Right-handed","3","2","no","right","s","728.441145513","680.541274887","11","red","0"
"100","88","20","729.885700379","1","1","3","210","2","right","out","Female","Right-handed","3","2","no","right","s","516.058775271","736.106523125","11","green","3"
"100","88","20","729.262679462","1","1","3","211","3","left","out","Female","Right-handed","3","2","no","left","s","686.711485334","695.805321666","11","red","1"
"100","88","20","728.254640327","1","1","3","212","0","left","in","Female","Right-handed","3","2","no","left","s","667.225884415","664.286543561","11","green","1"
"100","89","20","725.070119035","1","1","3","213","2","left","in","Female","Right-handed","3","2","no","left","d","544.882917058","504.007638118","11","green","3"
"100","0","20","755.898565961","1","0","4","214","1","right","out","Female","Right-handed","3","2","no","right","s","558.922479013","952.874652908","11","green","0"
"100","50","20","702.54175211","1","1","4","215","1","left","out","Female","Right-handed","3","2","no","left","d","801.695035929","496.67484059","11","green","3"
"100","66","20","747.448722693","1","1","4","216","2","left","out","Female","Right-handed","3","2","no","left","s","842.136709978","832.388617742","11","green","0"
"100","75","20","793.274858677","1","1","4","217","3","left","in","Female","Right-handed","3","2","no","left","s","1156.73085003","704.775683233","11","green","2"
"100","60","20","792.403511686","1","0","4","218","2","left","in","Female","Right-handed","3","2","no","left","s","609.36015697","968.476090475","11","red","0"
"100","66","20","781.737291025","1","1","4","219","3","right","out","Female","Right-handed","3","2","no","right","s","551.968444339","904.843931103","11","red","3"
"100","71","20","746.925317972","1","1","4","220","1","right","in","Female","Right-handed","3","2","no","right","d","427.584455138","648.522504158","11","green","2"
"100","75","20","747.900487998","1","1","4","221","2","right","in","Female","Right-handed","3","2","no","right","d","901.188436605","608.264919761","11","green","1"
"100","77","20","736.219360886","1","1","4","222","0","right","in","Female","Right-handed","3","2","no","right","s","620.876985138","664.663702844","11","green","3"
"100","70","20","726.444382155","1","0","4","223","3","left","out","Female","Right-handed","3","2","no","left","d","756.471520946","520.467626198","11","red","1"
"100","72","20","725.536820758","1","1","4","224","2","left","out","Female","Right-handed","3","2","no","left","s","807.912712","625.009701589","11","green","0"
"100","75","20","733.038455815","1","1","4","225","1","right","out","Female","Right-handed","3","2","no","right","d","910.531467465","720.581415411","11","green","1"
"100","69","20","714.587400127","1","0","4","226","0","right","out","Female","Right-handed","3","2","no","right","d","506.235636038","480.113827698","11","red","1"
"100","71","20","701.418292097","1","1","4","227","2","right","in","Female","Right-handed","3","2","no","right","d","555.721115083","504.71866034","11","red","1"
"100","73","20","708.24731258","1","1","4","228","2","left","in","Female","Right-handed","3","2","no","left","s","687.372476225","920.334722452","11","green","3"
"100","75","20","693.829474854","1","1","4","229","1","right","out","Female","Right-handed","3","2","no","right","d","499.147863758","455.97595417","11","red","0"
"100","76","20","690.083563269","1","1","4","230","1","left","in","Female","Right-handed","3","2","no","left","d","451.693464433","808.604491402","11","red","1"
"100","77","20","691.455891856","1","1","4","231","1","left","out","Female","Right-handed","3","2","no","left","d","445.202219596","984.368736061","11","green","1"
"100","78","20","692.396996135","1","1","4","232","2","left","out","Female","Right-handed","3","2","no","left","s","441.836650261","976.837096054","11","red","2"
"100","80","20","692.474629945","1","1","4","233","2","left","out","Female","Right-handed","3","2","no","left","d","691.457085622","696.44225903","11","red","3"
"100","76","20","702.929830932","1","0","4","234","0","right","in","Female","Right-handed","3","2","no","right","s","1088.06059949","736.007101885","11","green","2"
"100","77","20","695.531665432","1","1","4","235","2","left","in","Female","Right-handed","3","2","no","left","d","407.685454289","672.654925553","11","red","2"
"100","78","20","704.870900335","1","1","4","236","3","right","out","Female","Right-handed","3","2","no","right","s","684.329865564","1136.33827083","11","red","0"
"100","79","20","711.102321775","1","1","4","237","0","right","in","Female","Right-handed","3","2","no","right","d","820.973455811","887.876573981","11","red","3"
"100","80","20","709.134695255","1","1","4","238","3","left","out","Female","Right-handed","3","2","no","left","d","611.476225815","712.347091736","11","red","0"
"100","80","20","716.958436346","1","1","4","239","0","left","out","Female","Right-handed","3","2","no","left","s","793.012033819","1032.09189345","11","green","1"
"100","81","20","705.411414951","1","1","4","240","3","left","in","Female","Right-handed","3","2","no","left","d","441.709647645","368.668069681","11","red","3"
"100","82","20","705.336995166","1","1","4","241","1","right","out","Female","Right-handed","3","2","no","right","s","686.421880882","720.233441072","11","red","3"
"100","82","20","712.475095201","1","1","4","242","1","left","in","Female","Right-handed","3","2","no","left","d","696.936478808","1127.74731354","11","green","3"
"100","83","20","715.83809219","1","1","4","243","1","left","in","Female","Right-handed","3","2","no","left","s","858.358087084","768.371922673","11","green","2"
"100","80","20","709.454937173","1","0","4","244","3","right","in","Female","Right-handed","3","2","no","right","d","411.857618523","624.062954812","11","red","3"
"100","81","20","712.27397904","1","1","4","245","2","right","out","Female","Right-handed","3","2","no","right","s","710.663344927","888.665208915","11","green","3"
"100","81","20","717.318605656","1","1","4","246","3","right","in","Female","Right-handed","3","2","no","right","s","837.226262858","920.267051864","11","red","2"
"100","82","20","714.611660448","1","1","4","247","1","right","out","Female","Right-handed","3","2","no","right","d","610.669310201","639.89562694","11","green","3"
"100","82","20","710.519683527","1","1","4","248","2","right","out","Female","Right-handed","3","2","no","right","s","470.361245472","672.423690992","11","green","3"
"100","83","20","711.175791933","1","1","4","249","1","right","out","Female","Right-handed","3","2","no","right","d","732.200871957","736.078300321","11","green","0"
"100","83","20","712.257322244","1","1","4","250","3","right","in","Female","Right-handed","3","2","no","right","d","485.71252637","1016.67230054","11","green","3"
"100","84","20","713.13925452","1","1","4","251","1","left","in","Female","Right-handed","3","2","no","left","s","571.207095725","920.334401737","11","red","3"
"100","84","20","709.465948077","1","1","4","252","1","left","in","Female","Right-handed","3","2","no","left","s","539.934625724","599.825980759","11","green","1"
"100","85","20","705.478310775","1","1","4","253","0","right","in","Female","Right-handed","3","2","no","right","d","603.396486133","496.524425874","11","green","3"
"100","85","20","702.153062777","1","1","4","254","0","left","out","Female","Right-handed","3","2","no","left","s","474.162343981","664.123941724","11","red","0"
"100","85","20","697.856243637","1","1","4","255","0","right","out","Female","Right-handed","3","2","no","right","d","483.739175112","559.634142666","11","green","0"
"100","86","20","700.295604034","1","1","4","256","2","left","in","Female","Right-handed","3","2","no","left","s","845.281307587","760.216173847","11","red","0"
"100","86","20","698.526205485","1","1","4","257","3","right","in","Female","Right-handed","3","2","no","right","d","764.934192761","479.94994301","11","green","1"
"100","86","20","699.528062696","1","1","4","258","0","left","out","Female","Right-handed","3","2","no","left","s","551.558251546","935.661308397","11","red","1"
"100","86","20","699.324631377","1","1","4","259","1","left","out","Female","Right-handed","3","2","no","left","d","660.28307472","720.057369262","11","green","3"
"100","85","20","700.631868041","1","0","4","260","0","right","in","Female","Right-handed","3","2","no","right","s","489.778213663","1031.75129552","11","red","0"
"100","85","20","700.345324444","1","1","4","261","0","right","out","Female","Right-handed","3","2","no","right","s","662.40555784","711.349992913","11","red","3"
"100","83","20","704.63265475","1","0","4","262","0","right","in","Female","Right-handed","3","2","no","right","s","652.979782852","1167.86923605","11","green","3"
"100","84","20","703.510583231","1","1","4","263","3","right","out","Female","Right-handed","3","2","no","right","s","601.598885969","695.459271607","11","red","3"
"100","84","20","707.738870094","1","1","4","264","2","right","out","Female","Right-handed","3","2","no","right","s","1094.14902795","744.157398576","11","red","1"
"100","82","20","707.258768793","1","0","4","265","0","left","out","Female","Right-handed","3","2","no","left","s","485.693604263","879.853600619","11","green","0"
"100","83","20","704.853901063","1","1","4","266","3","right","out","Female","Right-handed","3","2","no","right","s","423.390803086","736.210755069","11","green","0"
"100","81","20","702.511717868","1","0","4","267","0","left","in","Female","Right-handed","3","2","no","left","d","660.813535144","495.938481985","11","green","3"
"100","81","20","698.875942293","1","1","4","268","3","left","in","Female","Right-handed","3","2","no","left","d","541.519913433","463.568209063","11","green","0"
"100","82","20","695.797567268","1","1","4","269","3","right","in","Female","Right-handed","3","2","no","right","s","453.073816101","599.900065617","11","red","3"
"100","82","20","695.05945137","1","1","4","270","0","right","in","Female","Right-handed","3","2","no","right","d","875.687209233","431.762712929","11","red","1"
"100","82","20","695.451168058","1","1","4","271","3","left","in","Female","Right-handed","3","2","no","left","d","844.302489444","591.255549149","11","red","1"
"100","83","20","695.06033369","1","1","4","272","1","left","in","Female","Right-handed","3","2","no","left","s","992.955203356","351.828677319","11","red","0"
"100","83","20","697.661633814","1","1","4","273","0","left","out","Female","Right-handed","3","2","no","left","d","726.612436123","975.664246134","11","red","2"
"100","83","20","703.350678756","1","1","4","274","3","left","in","Female","Right-handed","3","2","no","left","d","1569.16447031","520.222280235","11","green","1"
"100","83","20","703.154669571","1","1","4","275","2","right","in","Female","Right-handed","3","2","no","right","s","574.721796922","807.674421738","11","red","3"
"100","84","20","699.475164284","1","1","4","276","2","left","out","Female","Right-handed","3","2","no","left","s","575.359696426","367.3319765","11","green","3"
"100","84","20","699.334755645","1","1","4","277","2","left","out","Female","Right-handed","3","2","no","left","s","636.954361804","744.023660973","11","red","1"
"100","0","20","987.756915708","1","0","5","278","0","left","in","Female","Right-handed","3","2","no","left","s","679.347578578","1296.16625284","11","green","1"
"100","50","20","849.071742367","1","1","5","279","1","left","out","Female","Right-handed","3","2","no","left","d","587.916278337","832.856859713","11","green","1"
"100","66","20","720.354189771","1","1","5","280","1","right","in","Female","Right-handed","3","2","no","right","d","477.491031243","448.347137919","11","green","0"
"100","75","20","708.1689943","1","1","5","281","1","right","in","Female","Right-handed","3","2","no","right","s","775.08894994","568.13786583","11","red","1"
"100","80","20","712.985504383","1","1","5","282","2","right","in","Female","Right-handed","3","2","no","right","d","775.733584431","688.769505004","11","red","2"
"100","83","20","701.86352286","1","1","5","283","0","right","out","Female","Right-handed","3","2","no","right","s","684.265402115","608.241828377","11","red","3"
"100","85","20","687.091874664","1","1","5","284","1","right","out","Female","Right-handed","3","2","no","right","s","541.004526555","655.919444422","11","green","2"
"100","87","20","739.900024727","1","1","5","285","3","left","in","Female","Right-handed","3","2","no","left","d","1042.53497222","1176.57917811","11","green","0"
"100","88","20","741.921044284","1","1","5","286","0","left","in","Female","Right-handed","3","2","no","left","s","548.065358882","968.113042591","11","red","0"
"100","90","20","740.794908093","1","1","5","287","2","right","out","Female","Right-handed","3","2","no","right","d","532.638710268","928.680654488","11","red","3"
"100","81","20","747.515387405","1","0","5","288","1","right","out","Female","Right-handed","3","2","no","right","s","581.123883356","1048.31647769","11","red","3"
"100","83","20","768.131868485","1","1","5","289","2","right","out","Female","Right-handed","3","2","no","right","s","973.949710811","1015.8766099","11","red","0"
"100","84","20","761.157715195","1","1","5","290","2","left","in","Female","Right-handed","3","2","no","left","s","738.47306935","616.462682077","11","green","0"
"100","78","20","753.643021028","1","0","5","291","0","right","in","Female","Right-handed","3","2","no","right","s","663.870577918","648.033415799","11","green","2"
"100","80","20","749.545292148","1","1","5","292","2","right","out","Female","Right-handed","3","2","no","right","d","711.612336702","672.741838958","11","red","1"
"100","81","20","742.43500577","1","1","5","293","0","left","out","Female","Right-handed","3","2","no","left","d","703.229201877","568.332218318","11","red","3"
"100","76","20","738.517799477","1","0","5","294","1","right","out","Female","Right-handed","3","2","no","right","d","527.844682214","823.840315377","11","green","3"
"100","77","20","736.902748281","1","1","5","295","3","left","in","Female","Right-handed","3","2","no","left","s","714.414412103","704.479343794","11","green","1"
"100","78","20","730.674688402","1","1","5","296","2","left","out","Female","Right-handed","3","2","no","left","s","669.002317478","568.13690369","11","red","1"
"100","80","20","718.551185582","1","1","5","297","3","right","in","Female","Right-handed","3","2","no","right","s","552.726932188","423.682331819","11","green","3"
"100","80","20","710.11357296","1","1","5","298","1","right","in","Female","Right-handed","3","2","no","right","s","498.426578697","584.296062341","11","green","3"
"100","81","20","701.355315593","1","1","5","299","3","right","out","Female","Right-handed","3","2","no","right","d","466.884709205","567.97911256","11","green","3"
"100","82","20","710.863902529","1","1","5","300","3","right","out","Female","Right-handed","3","2","no","right","d","584.648205961","1255.4574243","11","green","3"
"100","79","20","708.520276","1","0","5","301","1","right","out","Female","Right-handed","3","2","no","right","s","605.080232941","704.153498698","11","red","3"
"100","80","20","704.487072994","1","1","5","302","0","right","out","Female","Right-handed","3","2","no","right","d","527.551549912","687.828851787","11","green","0"
"100","80","20","709.267487987","1","1","5","303","1","left","in","Female","Right-handed","3","2","no","left","d","753.322433344","904.233292262","11","red","3"
"100","81","20","706.311699818","1","1","5","304","3","left","in","Female","Right-handed","3","2","no","left","s","539.004876773","719.917538099","11","green","3"
"100","82","20","709.818648098","1","1","5","305","1","left","in","Female","Right-handed","3","2","no","left","s","993.497530184","615.51497316","11","red","2"
"100","82","20","705.605474578","1","1","5","306","2","left","out","Female","Right-handed","3","2","no","left","s","591.10834157","584.164890446","11","red","3"
"100","83","20","703.758069423","1","1","5","307","3","left","in","Female","Right-handed","3","2","no","left","s","764.718031742","535.648608135","11","green","0"
"100","83","20","697.422297956","1","1","5","308","1","left","out","Female","Right-handed","3","2","no","left","d","486.307450243","528.390857608","11","green","1"
"100","84","20","693.909307504","1","1","5","309","2","left","out","Female","Right-handed","3","2","no","left","d","641.957815887","528.0553911","11","green","1"
"100","84","20","702.078121615","1","1","5","310","0","right","in","Female","Right-handed","3","2","no","right","s","759.505151624","1167.45519469","11","red","3"
"100","85","20","705.400711743","1","1","5","311","3","right","out","Female","Right-handed","3","2","no","right","d","910.090165444","720.002206509","11","red","1"
"100","85","20","708.269396007","1","1","5","312","1","left","in","Female","Right-handed","3","2","no","left","s","627.815946269","983.793375723","11","red","0"
"100","86","20","717.575593283","1","1","5","313","3","right","out","Female","Right-handed","3","2","no","right","d","926.23841983","1160.34657603","11","green","1"
"100","86","20","720.015975528","1","1","5","314","1","left","out","Female","Right-handed","3","2","no","left","d","767.891814296","847.847658439","11","red","0"
"100","86","20","723.647446611","1","1","5","315","0","left","out","Female","Right-handed","3","2","no","left","s","796.529942148","919.493811189","11","green","3"
"100","87","20","725.429183566","1","1","5","316","3","right","in","Female","Right-handed","3","2","no","right","s","642.127152711","944.143223031","11","red","0"
"100","87","20","728.625587948","1","1","5","317","2","right","in","Female","Right-handed","3","2","no","right","d","634.778960924","1071.79175676","11","red","3"
"100","85","20","736.72744436","1","0","5","318","1","left","out","Female","Right-handed","3","2","no","left","d","602.311191047","1519.29221057","11","green","1"
"100","85","20","737.46950662","1","1","5","319","3","right","out","Female","Right-handed","3","2","no","right","d","911.954794765","623.833323818","11","green","2"
"100","86","20","733.551818656","1","1","5","320","1","right","out","Female","Right-handed","3","2","no","right","s","522.45765457","615.560193788","11","green","3"
"100","86","20","732.462516006","1","1","5","321","2","left","out","Female","Right-handed","3","2","no","left","s","627.115186882","744.1298172","11","red","3"
"100","86","20","733.365287106","1","1","5","322","3","left","in","Female","Right-handed","3","2","no","left","d","962.618896578","583.55553446","11","red","2"
"100","86","20","732.740040453","1","1","5","323","2","left","in","Female","Right-handed","3","2","no","left","d","625.18416983","784.023712286","11","red","3"
"100","87","20","729.848208536","1","1","5","324","1","right","in","Female","Right-handed","3","2","no","right","s","569.857532572","623.790348185","11","green","0"
"100","87","20","731.538391084","1","1","5","325","3","left","in","Female","Right-handed","3","2","no","left","s","894.481030747","727.472910919","11","red","1"
"100","87","20","730.701833318","1","1","5","326","0","left","out","Female","Right-handed","3","2","no","left","s","693.012546961","688.081574164","11","red","1"
"100","86","20","728.543398654","1","0","5","327","0","left","out","Female","Right-handed","3","2","no","left","s","525.843428864","719.716771338","11","green","0"
"100","86","20","729.980259884","1","1","5","328","0","left","in","Female","Right-handed","3","2","no","left","s","972.384628065","631.262014736","11","red","3"
"100","86","20","730.708403103","1","1","5","329","3","right","in","Female","Right-handed","3","2","no","right","s","919.833126258","615.854288229","11","green","0"
"100","86","20","728.167597924","1","1","5","330","3","left","out","Female","Right-handed","3","2","no","left","d","528.542555177","663.548902101","11","green","3"
"100","87","20","735.091594995","1","1","5","331","0","left","out","Female","Right-handed","3","2","no","left","d","1100.0591396","1104.06773986","11","red","1"
"100","87","20","732.274140454","1","1","5","332","0","left","in","Female","Right-handed","3","2","no","left","s","616.583911847","543.679278626","11","green","0"
"100","85","20","740.121892731","1","0","5","333","0","right","in","Female","Right-handed","3","2","no","right","d","672.224848509","1671.27168746","11","green","1"
"100","85","20","741.861791963","1","1","5","334","2","left","out","Female","Right-handed","3","2","no","left","s","894.874225716","783.718072153","11","green","0"
"100","86","20","742.086119054","1","1","5","335","0","right","in","Female","Right-handed","3","2","no","right","d","950.350956977","559.394569547","11","red","2"
"100","86","20","741.220302715","1","1","5","336","2","right","in","Female","Right-handed","3","2","no","right","d","518.0783093","863.927600813","11","green","3"
"100","86","20","741.018776931","1","1","5","337","3","right","in","Female","Right-handed","3","2","no","right","d","466.681056021","991.576455256","11","red","3"
"100","86","20","739.210114073","1","1","5","338","0","left","out","Female","Right-handed","3","2","no","left","d","662.279196651","599.10148856","11","red","3"
"100","87","20","738.171158807","1","1","5","339","2","right","out","Female","Right-handed","3","2","no","right","s","701.854302342","647.735472792","11","red","1"
"100","87","20","736.444160811","1","1","5","340","2","left","in","Female","Right-handed","3","2","no","left","s","547.353053804","711.387516412","11","green","2"
"100","87","20","736.491133991","1","1","5","341","2","right","in","Female","Right-handed","3","2","no","right","d","894.950876287","583.950012284","11","red","0"
"100","100","20","922.542034338","1","1","6","342","0","right","out","Female","Right-handed","3","2","no","right","d","981.06281947","864.021249207","11","green","1"
"100","100","20","676.849058674","1","1","6","343","2","right","in","Female","Right-handed","3","2","no","right","d","430.634762926","431.677403092","11","green","3"
"100","100","20","608.285605793","1","1","6","344","2","right","in","Female","Right-handed","3","2","no","right","d","374.180175661","568.137224403","11","red","3"
"100","100","20","598.561887798","1","1","6","345","1","left","out","Female","Right-handed","3","2","no","left","d","690.811809704","447.96965792","11","green","0"
"100","100","20","608.450645051","1","1","6","346","2","left","out","Female","Right-handed","3","2","no","left","d","664.588014417","631.423333714","11","red","0"
"100","100","20","576.222255861","1","1","6","347","2","right","out","Female","Right-handed","3","2","no","right","s","485.992188698","344.168431126","11","red","2"
"100","100","20","585.017370311","1","1","6","348","0","left","in","Female","Right-handed","3","2","no","left","d","795.762795033","479.813318981","11","green","2"
"100","100","20","604.183477408","1","1","6","349","3","left","in","Female","Right-handed","3","2","no","left","s","476.411829716","1000.28062447","11","green","3"
"100","88","20","620.767693043","1","0","6","350","1","right","out","Female","Right-handed","3","2","no","right","s","794.955237993","711.927598246","11","green","2"
"100","90","20","624.53514156","1","1","6","351","3","right","out","Female","Right-handed","3","2","no","right","s","557.47189105","759.412465371","11","red","2"
"100","90","20","621.319424234","1","1","6","352","2","right","out","Female","Right-handed","3","2","no","right","d","418.150662306","760.173839642","11","green","2"
"100","91","20","625.149024956","1","1","6","353","3","left","in","Female","Right-handed","3","2","no","left","s","510.759943889","823.789321901","11","red","3"
"100","92","20","622.092304949","1","1","6","354","1","right","in","Female","Right-handed","3","2","no","right","d","618.351044212","552.472285528","11","green","3"
"100","92","20","608.799789997","1","1","6","355","3","right","in","Female","Right-handed","3","2","no","right","s","399.958178937","472.036012297","11","green","3"
"100","93","20","595.654457952","1","1","6","356","0","left","in","Female","Right-handed","3","2","no","left","s","439.594861655","383.644757004","11","green","0"
"100","93","20","598.254964808","1","1","6","357","0","right","out","Female","Right-handed","3","2","no","right","d","634.206807725","640.318327567","11","red","3"
"100","94","20","604.617452537","1","1","6","358","3","left","out","Female","Right-handed","3","2","no","left","s","804.857593507","607.976918878","11","red","1"
"100","94","20","600.105625268","1","1","6","359","1","left","in","Female","Right-handed","3","2","no","left","d","495.4862757","551.322847706","11","red","1"
"100","94","20","591.898217159","1","1","6","360","1","right","in","Female","Right-handed","3","2","no","right","s","408.155299827","480.174442584","11","red","3"
"100","90","20","593.094008235","1","0","6","361","0","left","out","Female","Right-handed","3","2","no","left","d","623.7977246","607.830352727","11","red","3"
"100","90","20","594.177426382","1","1","6","362","0","right","out","Female","Right-handed","3","2","no","right","d","728.38085134","503.310727296","11","green","2"
"100","90","20","602.691025376","1","1","6","363","2","left","in","Female","Right-handed","3","2","no","left","s","834.988964241","727.964244273","11","red","0"
"100","91","20","605.273651177","1","1","6","364","1","left","out","Female","Right-handed","3","2","no","left","s","636.657701651","687.525135934","11","green","0"
"100","91","20","605.604907154","1","1","6","365","1","left","in","Female","Right-handed","3","2","no","left","d","515.164625538","711.282963753","11","red","3"
"100","92","20","606.931264003","1","1","6","366","0","right","in","Female","Right-handed","3","2","no","right","d","541.785143645","735.7425131","11","red","0"
"100","92","20","610.449892706","1","1","6","367","1","left","out","Female","Right-handed","3","2","no","left","s","741.41176878","655.419451798","11","green","2"
"100","92","20","607.744579636","1","1","6","368","1","left","out","Female","Right-handed","3","2","no","left","d","514.802539796","560.01033981","11","red","0"
"100","92","20","609.292704011","1","1","6","369","3","left","in","Female","Right-handed","3","2","no","left","d","686.601801255","615.582323033","11","red","0"
"100","93","20","604.653324329","1","1","6","370","1","right","out","Female","Right-handed","3","2","no","right","d","518.257267533","431.244118912","11","red","3"
"100","93","20","600.042307479","1","1","6","371","1","left","in","Female","Right-handed","3","2","no","left","d","460.811033578","471.834604106","11","red","0"
"100","93","20","605.494548457","1","1","6","372","1","left","out","Female","Right-handed","3","2","no","left","s","570.562781946","967.560773639","11","red","1"
"100","93","20","604.219713043","1","1","6","373","2","right","in","Female","Right-handed","3","2","no","right","s","586.235417951","543.164212459","11","green","3"
"100","93","20","609.53809475","1","1","6","374","3","left","in","Female","Right-handed","3","2","no","left","s","911.750820867","647.701797858","11","green","2"
"100","94","20","608.621086449","1","1","6","375","3","left","in","Female","Right-handed","3","2","no","left","d","605.33295532","551.386669728","11","green","0"
"100","94","20","606.485210839","1","1","6","376","2","right","out","Female","Right-handed","3","2","no","right","d","580.927285871","486.803594303","11","green","1"
"100","94","20","605.584697738","1","1","6","377","0","left","out","Female","Right-handed","3","2","no","left","d","732.534093468","415.599385","11","green","3"
"100","94","20","605.032216902","1","1","6","378","2","left","out","Female","Right-handed","3","2","no","left","s","467.134865874","703.15094774","11","red","0"
"100","92","20","612.523486791","1","0","6","379","1","left","in","Female","Right-handed","3","2","no","left","s","1115.78116551","663.619779823","11","green","1"
"100","92","20","609.826392423","1","1","6","380","2","left","out","Female","Right-handed","3","2","no","left","s","551.374482609","463.299130288","11","red","1"
"100","92","20","612.803671755","1","1","6","381","1","right","out","Female","Right-handed","3","2","no","right","d","601.966744558","855.868386803","11","red","3"
"100","92","20","609.60258131","1","1","6","382","3","right","in","Female","Right-handed","3","2","no","right","s","363.583795748","599.534131312","11","green","3"
"100","92","20","614.854467158","1","1","6","383","2","left","in","Female","Right-handed","3","2","no","left","d","1101.15694252","559.206631333","11","red","1"
"100","93","20","614.899713803","1","1","6","384","3","right","out","Female","Right-handed","3","2","no","right","d","593.869044907","639.731100824","11","red","1"
"100","93","20","612.083537254","1","1","6","385","3","right","out","Female","Right-handed","3","2","no","right","s","430.437844727","551.538046584","11","red","3"
"100","93","20","607.494953927","1","1","6","386","2","right","in","Female","Right-handed","3","2","no","right","s","476.034670432","335.159904633","11","green","3"
"100","93","20","605.880831889","1","1","6","387","0","right","in","Female","Right-handed","3","2","no","right","s","474.723272202","591.767408179","11","green","3"
"100","93","20","604.198447743","1","1","6","388","2","right","out","Female","Right-handed","3","2","no","right","s","470.265352082","583.352201988","11","green","0"
"100","93","20","601.535588448","1","1","6","389","3","right","in","Female","Right-handed","3","2","no","right","s","361.77785703","590.98454609","11","red","3"
"100","93","20","598.456530082","1","1","6","390","0","right","in","Female","Right-handed","3","2","no","right","s","397.697147508","503.626309553","11","red","0"
"100","92","20","598.458470465","1","0","6","391","1","left","out","Female","Right-handed","3","2","no","left","s","630.051641318","567.055457168","11","green","1"
"100","92","20","600.258277642","1","1","6","392","0","right","out","Female","Right-handed","3","2","no","right","s","580.816960366","799.680312606","11","green","0"
"100","92","20","597.733869841","1","1","6","393","3","right","in","Female","Right-handed","3","2","no","right","s","522.58850575","415.389638254","11","red","0"
"100","90","20","598.666068308","1","0","6","394","3","left","in","Female","Right-handed","3","2","no","left","s","759.128313053","535.152464075","11","green","0"
"100","90","20","598.88796749","1","1","6","395","0","left","out","Female","Right-handed","3","2","no","left","d","589.653905041","631.643343298","11","green","1"
"100","90","20","600.631406511","1","1","6","396","0","right","in","Female","Right-handed","3","2","no","right","s","566.267142947","823.287084284","11","red","3"
"100","91","20","599.975281566","1","1","6","397","1","left","out","Female","Right-handed","3","2","no","left","s","496.948088643","630.828730558","11","green","3"
"100","91","20","600.493000503","1","1","6","398","2","right","out","Female","Right-handed","3","2","no","right","s","483.413971442","775.556550481","11","green","3"
"100","91","20","600.573680462","1","1","6","399","3","left","out","Female","Right-handed","3","2","no","left","s","691.276203108","519.068673139","11","red","1"
"100","91","20","601.566784704","1","1","6","400","0","right","out","Female","Right-handed","3","2","no","right","s","503.740483624","814.593177907","11","red","3"
"100","91","20","602.172348751","1","1","6","401","2","right","in","Female","Right-handed","3","2","no","right","d","564.415342173","711.385912844","11","red","1"
"100","91","20","603.431633197","1","1","6","402","3","left","out","Female","Right-handed","3","2","no","left","s","870.966945324","487.010454624","11","green","1"
"100","91","20","608.377482502","1","1","6","403","0","right","in","Female","Right-handed","3","2","no","right","d","596.621088978","1223.52749126","11","green","1"
"100","92","20","607.232203901","1","1","6","404","0","left","in","Female","Right-handed","3","2","no","left","d","505.139757399","567.310103829","11","green","1"
"100","92","20","606.59245556","1","1","6","405","2","left","in","Female","Right-handed","3","2","no","left","d","525.735989784","606.840630319","11","red","3"
"100","100","20","563.422412627","1","1","7","406","1","left","out","Female","Right-handed","3","2","no","left","d","606.882002383","519.962822871","11","red","0"
"100","100","20","525.541958009","1","1","7","407","3","right","out","Female","Right-handed","3","2","no","right","d","407.630932963","567.692073819","11","red","3"
"100","66","20","509.098326324","1","0","7","408","3","right","out","Female","Right-handed","3","2","no","right","d","377.133627919","575.288497989","11","green","3"
"100","75","20","498.79319452","1","1","7","409","3","left","in","Female","Right-handed","3","2","no","left","s","415.906628703","519.848969514","11","red","3"
"100","80","20","517.334349782","1","1","7","410","1","right","out","Female","Right-handed","3","2","no","right","d","663.566220641","519.431721019","11","red","1"
"100","83","20","540.875572928","1","1","7","411","2","left","out","Female","Right-handed","3","2","no","left","s","718.03494881","599.12842851","11","green","0"
"100","85","20","556.868216276","1","1","7","412","1","right","in","Female","Right-handed","3","2","no","right","s","585.829394435","719.818758287","11","green","3"
"100","87","20","541.112747374","1","1","7","413","3","right","in","Female","Right-handed","3","2","no","right","d","430.252472221","431.396457909","11","green","3"
"100","77","20","569.471803103","1","0","7","414","0","left","in","Female","Right-handed","3","2","no","left","d","824.830037788","767.858460073","11","green","0"
"100","80","20","588.326102309","1","1","7","415","3","right","in","Female","Right-handed","3","2","no","right","s","1020.52888251","495.500707815","11","green","2"
"100","81","20","582.427744812","1","1","7","416","2","left","in","Female","Right-handed","3","2","no","left","s","504.098720801","542.789618883","11","green","2"
"100","83","20","594.916375512","1","1","7","417","0","right","out","Female","Right-handed","3","2","no","right","s","848.769710261","615.812916165","11","red","1"
"100","84","20","585.716762258","1","1","7","418","0","left","out","Female","Right-handed","3","2","no","left","s","447.345549102","503.297257321","11","green","0"
"100","85","20","595.205286992","1","1","7","419","2","left","in","Female","Right-handed","3","2","no","left","d","557.121671714","879.990545361","11","red","3"
"100","86","20","584.234667053","1","1","7","420","2","right","in","Female","Right-handed","3","2","no","right","d","405.642187447","455.64978836","11","red","3"
"100","81","20","589.204194309","1","0","7","421","0","right","in","Female","Right-handed","3","2","no","right","d","608.190193474","719.304012835","11","red","1"
"100","82","20","590.415694354","1","1","7","422","3","right","in","Female","Right-handed","3","2","no","right","s","579.759246655","639.840143475","11","red","0"
"100","83","20","585.583540675","1","1","7","423","2","right","in","Female","Right-handed","3","2","no","right","d","599.475440709","407.398415546","11","green","1"
"100","84","20","578.98345715","1","1","7","424","1","right","out","Female","Right-handed","3","2","no","right","s","473.233877885","447.130029512","11","green","0"
"100","85","20","575.969838161","1","1","7","425","1","left","out","Female","Right-handed","3","2","no","left","d","629.680896305","407.741258468","11","red","0"
"100","85","20","575.91734115","1","1","7","426","0","right","in","Female","Right-handed","3","2","no","right","s","574.390820406","575.343981456","11","red","3"
"100","86","20","573.37212443","1","1","7","427","0","right","out","Female","Right-handed","3","2","no","right","s","448.900689727","590.944456882","11","red","3"
"100","82","20","575.273752132","1","0","7","428","1","right","out","Female","Right-handed","3","2","no","right","s","602.60624763","631.612875499","11","green","1"
"100","83","20","577.896374578","1","1","7","429","3","left","out","Female","Right-handed","3","2","no","left","s","701.297222684","575.136158992","11","red","1"
"100","84","20","577.972768843","1","1","7","430","3","right","in","Female","Right-handed","3","2","no","right","d","663.872181487","495.740280932","11","red","0"
"100","84","20","592.990832178","1","1","7","431","3","left","in","Female","Right-handed","3","2","no","left","s","1273.39686458","663.487966502","11","green","1"
"100","85","20","600.917779205","1","1","7","432","3","right","in","Female","Right-handed","3","2","no","right","d","711.066482021","902.970321799","11","red","1"
"100","85","20","602.516905963","1","1","7","433","2","left","out","Female","Right-handed","3","2","no","left","d","819.757309546","471.629347354","11","green","3"
"100","86","20","597.093704817","1","1","7","434","0","right","in","Female","Right-handed","3","2","no","right","d","507.237866281","383.250279181","11","red","3"
"100","86","20","592.271324199","1","1","7","435","3","left","out","Female","Right-handed","3","2","no","left","s","425.952022515","478.892550013","11","green","3"
"100","87","20","593.845177603","1","1","7","436","3","left","out","Female","Right-handed","3","2","no","left","s","571.65128417","710.470275293","11","green","2"
"100","87","20","588.167667748","1","1","7","437","2","left","in","Female","Right-handed","3","2","no","left","s","361.087039768","463.242684681","11","red","2"
"100","87","20","585.853331338","1","1","7","438","1","right","in","Female","Right-handed","3","2","no","right","d","408.720397325","614.8687351","11","green","2"
"100","88","20","589.396088976","1","1","7","439","1","left","out","Female","Right-handed","3","2","no","left","d","677.302387457","735.311794629","11","green","1"
"100","88","20","586.414421999","1","1","7","440","1","right","out","Female","Right-handed","3","2","no","right","s","579.072919387","391.002570201","11","green","1"
"100","88","20","584.265113472","1","1","7","441","1","right","out","Female","Right-handed","3","2","no","right","d","418.562779381","599.515850632","11","green","0"
"100","89","20","587.358635262","1","1","7","442","1","left","in","Female","Right-handed","3","2","no","left","d","1014.16913028","383.281709122","11","red","3"
"100","89","20","585.202015182","1","1","7","443","0","right","out","Female","Right-handed","3","2","no","right","d","531.905238087","478.908906411","11","green","2"
"100","89","20","586.488761198","1","1","7","444","1","left","out","Female","Right-handed","3","2","no","left","d","863.43915388","407.331065673","11","green","3"
"100","90","20","589.35249031","1","1","7","445","0","left","in","Female","Right-handed","3","2","no","left","d","1035.02033004","367.05552131","11","red","0"
"100","90","20","587.740648486","1","1","7","446","0","right","in","Female","Right-handed","3","2","no","right","d","543.741817793","502.792133279","11","green","3"
"100","90","20","590.967838435","1","1","7","447","0","right","out","Female","Right-handed","3","2","no","right","d","511.282707183","935.282545543","11","red","3"
"100","88","20","593.305480121","1","0","7","448","1","right","in","Female","Right-handed","3","2","no","right","s","511.936000945","871.036860907","11","green","3"
"100","86","20","592.503376824","1","0","7","449","3","right","out","Female","Right-handed","3","2","no","right","d","468.548892479","647.476977569","11","red","0"
"100","86","20","592.814855486","1","1","7","450","2","left","out","Female","Right-handed","3","2","no","left","d","614.060536631","598.979296648","11","red","1"
"100","86","20","593.06238726","1","1","7","451","0","left","out","Female","Right-handed","3","2","no","left","d","633.677309445","574.72532477","11","red","0"
"100","87","20","593.556154597","1","1","7","452","2","left","in","Female","Right-handed","3","2","no","left","d","633.173788968","599.365115204","11","red","0"
"100","87","20","591.285873295","1","1","7","453","2","left","in","Female","Right-handed","3","2","no","left","s","442.011439214","527.153864952","11","green","3"
"100","87","20","588.180065336","1","1","7","454","2","left","out","Female","Right-handed","3","2","no","left","d","487.65188198","390.550684628","11","red","3"
"100","88","20","591.161634562","1","1","7","455","3","left","in","Female","Right-handed","3","2","no","left","s","939.293070083","535.223983224","11","green","1"
"100","88","20","591.290893682","1","1","7","456","0","left","in","Female","Right-handed","3","2","no","left","s","692.755013877","502.752685496","11","green","2"
"100","88","20","591.698747697","1","1","7","457","0","right","out","Female","Right-handed","3","2","no","right","d","562.500681517","662.49792338","11","green","3"
"100","86","20","593.668499015","1","0","7","458","2","left","in","Female","Right-handed","3","2","no","left","s","809.031040595","583.160094495","11","red","1"
"100","87","20","596.548099889","1","1","7","459","1","left","out","Female","Right-handed","3","2","no","left","d","931.752129378","566.581763067","11","green","3"
"100","87","20","597.906127456","1","1","7","460","3","right","in","Female","Right-handed","3","2","no","right","s","639.290760946","703.18847124","11","green","0"
"100","87","20","596.352574314","1","1","7","461","3","left","in","Female","Right-handed","3","2","no","left","s","518.863416383","502.95088655","11","green","3"
"100","87","20","598.785399912","1","1","7","462","1","left","out","Female","Right-handed","3","2","no","left","s","799.518352198","670.528914583","11","red","2"
"100","86","20","597.136915456","1","0","7","463","1","left","out","Female","Right-handed","3","2","no","left","s","511.222733725","495.123869243","11","red","3"
"100","86","20","598.257299495","1","1","7","464","2","right","out","Female","Right-handed","3","2","no","right","s","743.729566532","582.749580988","11","red","0"
"100","86","20","597.617613189","1","1","7","465","2","right","in","Female","Right-handed","3","2","no","right","s","552.40974636","567.342495909","11","red","0"
"100","86","20","598.280217067","1","1","7","466","2","left","in","Female","Right-handed","3","2","no","left","s","853.010827936","423.062071566","11","green","1"
"100","87","20","601.1815185","1","1","7","467","0","right","out","Female","Right-handed","3","2","no","right","s","901.758024095","654.563787706","11","green","1"
"100","85","20","600.467240121","1","0","7","468","0","left","in","Female","Right-handed","3","2","no","left","s","601.091196217","511.272765058","11","red","1"
"100","85","20","601.705360404","1","1","7","469","2","right","out","Female","Right-handed","3","2","no","right","s","584.775850004","774.638026509","11","red","3"
"100","0","20","611.180207092","1","0","8","470","1","left","out","Female","Right-handed","3","2","no","left","s","791.258692143","431.101722041","11","green","0"
"100","50","20","602.476599127","1","1","8","471","3","left","out","Female","Right-handed","3","2","no","left","s","635.811017543","551.734964782","11","green","0"
"100","66","20","650.431338516","1","1","8","472","3","right","out","Female","Right-handed","3","2","no","right","s","845.373352415","647.308282174","11","red","3"
"100","50","20","637.585967302","1","0","8","473","1","left","out","Female","Right-handed","3","2","no","left","d","646.995907053","551.103800264","11","green","3"
"100","60","20","614.177853695","1","1","8","474","0","left","in","Female","Right-handed","3","2","no","left","d","481.531702868","559.559095665","11","red","3"
"100","66","20","639.187116975","1","1","8","475","0","right","in","Female","Right-handed","3","2","no","right","s","905.293250966","623.173615783","11","green","2"
"100","71","20","643.395002603","1","1","8","476","3","left","out","Female","Right-handed","3","2","no","left","d","729.598601174","607.686031572","11","red","0"
"100","75","20","662.269695508","1","1","8","477","3","left","in","Female","Right-handed","3","2","no","left","d","1069.52270749","519.262384198","11","red","1"
"100","77","20","649.807176246","1","1","8","478","2","left","in","Female","Right-handed","3","2","no","left","d","557.147970234","543.066074073","11","green","3"
"100","80","20","648.392374583","1","1","8","479","2","left","out","Female","Right-handed","3","2","no","left","s","511.707011377","759.611307851","11","red","3"
"100","81","20","639.598646075","1","1","8","480","0","left","in","Female","Right-handed","3","2","no","left","d","560.086348951","543.236373036","11","green","0"
"100","83","20","645.584486246","1","1","8","481","1","right","in","Female","Right-handed","3","2","no","right","s","951.893910482","470.963545761","11","red","2"
"100","84","20","644.079534229","1","1","8","482","3","left","in","Female","Right-handed","3","2","no","left","d","548.467854547","703.572365513","11","green","3"
"100","85","20","645.724025331","1","1","8","483","1","left","out","Female","Right-handed","3","2","no","left","d","727.057265993","607.147553308","11","red","2"
"100","86","20","658.920105733","1","1","8","484","1","left","out","Female","Right-handed","3","2","no","left","s","576.655379684","1110.67508305","11","green","3"
"100","87","20","675.467243748","1","1","8","485","2","right","out","Female","Right-handed","3","2","no","right","s","968.211822405","879.13680555","11","red","1"
"100","88","20","678.074515069","1","1","8","486","0","right","out","Female","Right-handed","3","2","no","right","d","504.787293068","934.794419325","11","green","3"
"100","88","20","674.901596135","1","1","8","487","2","right","out","Female","Right-handed","3","2","no","right","s","594.478400895","647.445547627","11","red","2"
"100","89","20","684.910652714","1","1","8","488","3","left","in","Female","Right-handed","3","2","no","left","s","827.101973479","903.045368799","11","red","2"
"100","85","20","687.276350317","1","0","8","489","3","right","in","Female","Right-handed","3","2","no","right","s","656.781522786","807.66768675","11","red","0"
"100","85","20","686.559077613","1","1","8","490","1","right","out","Female","Right-handed","3","2","no","right","s","601.283303709","743.143943353","11","red","1"
"100","86","20","691.634236197","1","1","8","491","0","left","out","Female","Right-handed","3","2","no","left","d","613.711279435","982.713853484","11","green","0"
"100","86","20","689.910625185","1","1","8","492","0","right","out","Female","Right-handed","3","2","no","right","s","512.557223337","791.425142541","11","green","0"
"100","87","20","702.855263093","1","1","8","493","2","right","out","Female","Right-handed","3","2","no","right","s","634.083653673","1367.08021626","11","red","3"
"100","88","20","702.744263555","1","1","8","494","1","right","out","Female","Right-handed","3","2","no","right","d","537.624204389","862.536344877","11","green","0"
"100","88","20","705.551267586","1","1","8","495","0","right","out","Female","Right-handed","3","2","no","right","d","624.245440895","927.207295852","11","green","0"
"100","88","20","706.13603781","1","1","8","496","3","left","out","Female","Right-handed","3","2","no","left","s","595.865487552","846.814639681","11","red","0"
"100","89","20","705.144034345","1","1","8","497","1","right","in","Female","Right-handed","3","2","no","right","s","501.416592315","855.303289303","11","green","0"
"100","86","20","703.229135524","1","0","8","498","2","right","in","Female","Right-handed","3","2","no","right","s","484.099977999","815.123959044","11","green","0"
"100","86","20","701.692331244","1","1","8","499","2","left","in","Female","Right-handed","3","2","no","left","s","579.74738025","734.502634021","11","red","0"
"100","83","20","701.355830522","1","0","8","500","1","right","out","Female","Right-handed","3","2","no","right","d","543.199490963","839.322126742","11","green","1"
"100","81","20","707.478452651","1","0","8","501","2","left","in","Female","Right-handed","3","2","no","left","s","667.726518466","1126.83295885","11","green","0"
"100","81","20","714.504829063","1","1","8","502","1","right","in","Female","Right-handed","3","2","no","right","s","655.393473989","1223.30427454","11","green","3"
"100","82","20","717.270782444","1","1","8","503","1","left","in","Female","Right-handed","3","2","no","left","s","826.006415557","791.088072467","11","red","3"
"100","82","20","724.589992762","1","1","8","504","1","right","in","Female","Right-handed","3","2","no","right","s","1428.45936205","518.426925068","11","green","1"
"100","83","20","728.327372335","1","1","8","505","0","left","in","Female","Right-handed","3","2","no","left","d","839.215970514","879.055344276","11","red","2"
"100","83","20","722.754324256","1","1","8","506","1","right","out","Female","Right-handed","3","2","no","right","s","469.706668857","574.542517974","11","red","3"
"100","81","20","721.137735485","1","0","8","507","0","left","in","Female","Right-handed","3","2","no","left","d","564.361141562","758.286760363","11","green","1"
"100","82","20","725.402967279","1","1","8","508","0","left","in","Female","Right-handed","3","2","no","left","d","575.933773907","1199.02977698","11","red","1"
"100","82","20","727.081860723","1","1","8","509","0","right","out","Female","Right-handed","3","2","no","right","s","778.644061056","806.473349014","11","green","3"
"100","82","20","730.240791203","1","1","8","510","3","right","in","Female","Right-handed","3","2","no","right","d","850.049678547","863.146342292","11","red","1"
"100","80","20","738.108055188","1","0","8","511","0","right","in","Female","Right-handed","3","2","no","right","d","818.663996619","1302.66776051","11","red","1"
"100","81","20","733.716106102","1","1","8","512","2","right","out","Female","Right-handed","3","2","no","right","s","475.239941937","623.268547033","11","green","3"
"100","81","20","728.368824578","1","1","8","513","3","right","in","Female","Right-handed","3","2","no","right","d","469.966126222","526.905311852","11","red","3"
"100","82","20","728.526576509","1","1","8","514","2","left","in","Female","Right-handed","3","2","no","left","d","608.54907208","862.386250876","11","green","3"
"100","82","20","729.789342149","1","1","8","515","2","right","in","Female","Right-handed","3","2","no","right","s","806.063476934","767.164114961","11","green","1"
"100","82","20","725.810672398","1","1","8","516","2","right","in","Female","Right-handed","3","2","no","right","d","478.762019547","606.82170821","11","green","3"
"100","83","20","727.436379627","1","1","8","517","3","left","in","Female","Right-handed","3","2","no","left","s","1041.31914667","566.370092038","11","green","1"
"100","83","20","724.130360973","1","1","8","518","3","left","in","Female","Right-handed","3","2","no","left","d","499.909558743","630.973372424","11","red","3"
"100","84","20","721.879096716","1","1","8","519","2","right","in","Female","Right-handed","3","2","no","right","s","680.478094293","542.656201993","11","green","2"
"100","84","20","720.069443189","1","1","8","520","2","right","out","Female","Right-handed","3","2","no","right","s","748.084858273","511.088675408","11","red","0"
"100","82","20","721.101468059","1","0","8","521","0","right","in","Female","Right-handed","3","2","no","right","s","588.75558603","958.713886839","11","red","3"
"100","83","20","725.982696662","1","1","8","522","1","right","in","Female","Right-handed","3","2","no","right","d","585.374301727","1374.23886626","11","red","0"
"100","83","20","728.859561048","1","1","8","523","0","left","out","Female","Right-handed","3","2","no","left","d","699.874857523","1062.79188953","11","red","3"
"100","83","20","730.516702389","1","1","8","524","3","left","out","Female","Right-handed","3","2","no","left","d","689.503618612","950.501050978","11","red","1"
"100","83","20","732.784476354","1","1","8","525","3","right","out","Female","Right-handed","3","2","no","right","d","684.081633175","1030.94245563","11","red","3"
"100","82","20","736.089530925","1","0","8","526","0","left","out","Female","Right-handed","3","2","no","left","d","699.691730013","1142.65344386","11","green","1"
"100","82","20","736.564930795","1","1","8","527","1","left","out","Female","Right-handed","3","2","no","left","d","601.214670982","926.110775786","11","red","1"
"100","83","20","736.508640999","1","1","8","528","2","left","out","Female","Right-handed","3","2","no","left","s","771.794899756","694.692765918","11","red","1"
"100","83","20","734.598759928","1","1","8","529","3","left","out","Female","Right-handed","3","2","no","left","d","469.370881636","774.460671844","11","green","3"
"100","81","20","746.162713422","1","0","8","530","2","left","out","Female","Right-handed","3","2","no","left","s","689.011002404","2190.98884365","11","green","1"
"100","82","20","745.805308217","1","1","8","531","1","left","in","Female","Right-handed","3","2","no","left","d","601.504275433","846.502905986","11","green","3"
"100","82","20","748.166266095","1","1","8","532","3","right","in","Female","Right-handed","3","2","no","right","s","1111.03203737","678.059271737","11","red","2"
"100","82","20","744.62833905","1","1","8","533","0","right","out","Female","Right-handed","3","2","no","right","d","508.701603503","534.776266932","11","green","3"
dis_reply=Yes
dis_loc=2
tar_loc=3
