"acc_1","acc_2","age","avg_rt","correct_1","correct_2","count_block_loop","count_trial_sequence","cue_position","detection","dis_shape","gender","hand","high_loc","low_loc","practice","response_keyboard_response_1","response_keyboard_response_2","response_time_keyboard_response_1","response_time_keyboard_response_2","subject_nr","tar_color","tar_position"
"100","0","21","2278.20266859","1","0","0","0","2","right","in","Female","Right-handed","2","0","yes","right","d","1615.02134663","2941.38399054","6","red","3"
"100","50","21","1811.52238767","1","1","0","1","0","left","in","Female","Right-handed","2","0","yes","left","s","1232.34124082","1457.34297267","6","green","2"
"100","66","21","1550.48690594","1","1","0","2","3","right","out","Female","Right-handed","2","0","yes","right","s","1014.82654577","1042.00533922","6","red","2"
"100","50","21","1394.11347166","1","0","0","3","2","right","in","Female","Right-handed","2","0","yes","right","s","1032.53501541","817.451322234","6","red","0"
"100","60","21","1338.18972462","1","1","0","4","1","right","in","Female","Right-handed","2","0","yes","right","s","1218.95373271","1010.03574022","6","red","1"
"100","66","21","1255.08799927","1","1","0","5","0","right","out","Female","Right-handed","2","0","yes","right","s","933.531341323","745.627403741","6","green","0"
"100","71","21","1263.95209982","1","1","0","6","0","left","out","Female","Right-handed","2","0","yes","left","d","1384.16789179","1250.10551446","6","green","3"
"100","75","21","1229.85415432","1","1","0","7","0","left","in","Female","Right-handed","2","0","yes","left","d","1132.53578512","849.801286442","6","green","0"
"100","77","21","1185.16654822","1","1","0","8","1","right","in","Female","Right-handed","2","0","yes","right","d","902.081617521","753.249781274","6","green","0"
"100","80","21","1148.07788892","1","1","0","9","0","left","in","Female","Right-handed","2","0","yes","left","s","930.873916312","697.685994094","6","red","1"
"100","81","21","1190.00410979","1","1","0","10","2","left","out","Female","Right-handed","2","0","yes","left","s","2073.35884923","1145.17378777","6","red","3"
"100","83","21","1154.70495345","1","1","0","11","1","right","out","Female","Right-handed","2","0","yes","right","d","578.746180312","954.082287169","6","red","3"
"100","84","21","1131.14548345","1","1","0","12","2","left","out","Female","Right-handed","2","0","yes","left","s","903.392370118","793.471316743","6","green","0"
"100","85","21","1103.89490851","1","1","0","13","1","left","out","Female","Right-handed","2","0","yes","left","s","858.169320884","641.105547816","6","green","1"
"100","80","21","1168.98046945","1","0","0","14","2","left","out","Female","Right-handed","2","0","yes","left","s","1438.7409976","2721.6156477","6","red","2"
"100","81","21","1134.67099974","1","1","0","15","1","left","out","Female","Right-handed","2","0","yes","left","d","694.972765082","545.085142794","6","green","2"
"100","82","21","1123.6443099","1","1","0","16","3","right","out","Female","Right-handed","2","0","yes","right","s","692.619375663","1201.81516945","6","red","2"
"100","77","21","1113.34899943","1","0","0","17","1","left","in","Female","Right-handed","2","0","yes","left","d","1251.35276595","625.304677017","6","green","3"
"100","78","21","1101.79409357","1","1","0","18","3","right","in","Female","Right-handed","2","0","yes","right","s","866.887573539","920.724002391","6","green","3"
"100","80","21","1092.20155122","1","1","0","19","3","left","in","Female","Right-handed","2","0","yes","left","d","970.493474139","849.39301924","6","green","1"
"100","80","21","1084.1892314","1","1","0","20","2","right","out","Female","Right-handed","2","0","yes","right","s","903.01008064","944.875589149","6","green","1"
"100","81","21","1066.89140897","1","1","0","21","0","left","in","Female","Right-handed","2","0","yes","left","s","749.641763971","657.632512052","6","green","2"
"100","0","21","755.998288677","1","0","1","22","1","right","in","Female","Right-handed","2","0","no","right","s","718.518525645","793.478051709","6","red","3"
"100","50","21","679.046174924","1","1","1","23","1","right","in","Female","Right-handed","2","0","no","right","s","834.128700703","370.05942164","6","red","2"
"100","66","21","734.793997713","1","1","1","24","3","left","in","Female","Right-handed","2","0","no","left","d","650.818330395","1041.76095619","6","green","2"
"100","75","21","807.900459453","1","1","1","25","1","right","out","Female","Right-handed","2","0","no","right","s","1069.19439548","985.245293863","6","red","1"
"100","60","21","825.210611997","1","0","1","26","1","right","in","Female","Right-handed","2","0","no","right","s","706.927329079","1081.97511526","6","green","2"
"100","50","21","883.331018857","1","0","1","27","2","right","in","Female","Right-handed","2","0","no","right","s","938.5078395","1409.35826682","6","red","1"
"100","57","21","920.777080335","1","1","1","28","2","left","out","Female","Right-handed","2","0","no","left","s","1288.9165557","1001.9903427","6","green","0"
"100","50","21","978.746933987","1","0","1","29","1","left","in","Female","Right-handed","2","0","no","left","s","1471.55182588","1297.51999323","6","green","1"
"100","55","21","989.604651816","1","1","1","30","0","left","in","Female","Right-handed","2","0","no","left","s","1112.04673681","1040.88605208","6","red","0"
"100","60","21","975.149083275","1","1","1","31","2","right","out","Female","Right-handed","2","0","no","right","d","1160.54426219","529.553670621","6","red","1"
"100","63","21","979.051253846","1","1","1","32","0","right","in","Female","Right-handed","2","0","no","right","s","1155.0652073","881.080711828","6","green","2"
"100","66","21","993.434584455","1","1","1","33","3","right","out","Female","Right-handed","2","0","no","right","d","957.726224288","1345.576218","6","red","1"
"100","69","21","972.188181453","1","1","1","34","2","right","out","Female","Right-handed","2","0","no","right","s","713.222276957","721.240413899","6","green","2"
"100","71","21","972.737477637","1","1","1","35","0","right","out","Female","Right-handed","2","0","no","right","d","685.884730743","1273.87192533","6","green","2"
"100","73","21","960.179066701","1","1","1","36","1","left","in","Female","Right-handed","2","0","no","left","d","815.293888243","753.428738933","6","green","2"
"100","68","21","944.729805206","1","0","1","37","3","left","in","Female","Right-handed","2","0","no","left","s","752.979420511","673.002345051","6","red","2"
"100","64","21","929.636795566","1","0","1","38","1","right","out","Female","Right-handed","2","0","no","right","s","686.656044664","689.641238002","6","red","2"
"100","66","21","925.307226682","1","1","1","39","0","right","out","Female","Right-handed","2","0","no","right","s","838.170000795","865.239110522","6","green","2"
"100","63","21","937.959690944","1","0","1","40","0","left","in","Female","Right-handed","2","0","no","left","s","1361.7497569","969.658338401","6","green","1"
"100","65","21","934.028694481","1","1","1","41","0","right","out","Female","Right-handed","2","0","no","right","s","685.434450183","1033.24507321","6","green","2"
"100","66","21","935.495889563","1","1","1","42","3","left","out","Female","Right-handed","2","0","no","left","d","1216.79309159","712.886490814","6","green","3"
"100","68","21","927.243383523","1","1","1","43","3","left","in","Female","Right-handed","2","0","no","left","s","786.382925772","721.498587582","6","green","2"
"100","69","21","930.799594642","1","1","1","44","1","right","out","Female","Right-handed","2","0","no","right","s","1025.16022804","992.912250453","6","green","1"
"100","70","21","926.458959258","1","1","1","45","3","left","out","Female","Right-handed","2","0","no","left","d","619.676490736","1033.57220011","6","green","3"
"100","72","21","930.728601411","1","1","1","46","2","right","in","Female","Right-handed","2","0","no","right","s","937.149300718","1129.25072545","6","red","1"
"100","73","21","927.252959487","1","1","1","47","3","right","out","Female","Right-handed","2","0","no","right","s","950.970091621","729.753731171","6","green","0"
"100","74","21","926.12665641","1","1","1","48","1","left","in","Female","Right-handed","2","0","no","left","d","760.43919673","1033.24635606","6","red","2"
"100","75","21","937.83506454","1","1","1","49","0","left","out","Female","Right-handed","2","0","no","left","s","1003.02015102","1504.90401712","6","red","3"
"100","72","21","959.629637273","1","0","1","50","0","right","in","Female","Right-handed","2","0","no","right","d","1306.38224586","1833.3731017","6","red","1"
"100","73","21","981.321449433","1","1","1","51","0","right","in","Female","Right-handed","2","0","no","right","s","1947.91209651","1272.85590766","6","green","1"
"100","74","21","978.308320643","1","1","1","52","2","right","out","Female","Right-handed","2","0","no","right","s","934.38571982","841.443194093","6","red","2"
"100","75","21","972.250969434","1","1","1","53","2","right","in","Female","Right-handed","2","0","no","right","s","728.01033721","840.935826682","6","green","0"
"100","72","21","987.972435001","1","0","1","54","1","left","in","Female","Right-handed","2","0","no","left","s","836.623845114","2145.49482113","6","red","0"
"100","70","21","988.695680899","1","0","1","55","1","left","out","Female","Right-handed","2","0","no","left","s","1120.10528355","905.020307525","6","red","1"
"100","71","21","999.691676022","1","1","1","56","3","left","in","Female","Right-handed","2","0","no","left","d","1770.58333782","976.527682633","6","green","2"
"100","72","21","988.845587336","1","1","1","57","3","left","in","Female","Right-handed","2","0","no","left","d","833.097288823","385.367677809","6","red","2"
"100","72","21","982.828862738","1","1","1","58","0","right","in","Female","Right-handed","2","0","no","right","d","859.66993537","672.783619024","6","green","2"
"100","71","21","985.620147871","1","0","1","59","3","left","in","Female","Right-handed","2","0","no","left","d","1288.42426178","889.371133809","6","red","1"
"100","71","21","996.972040863","1","1","1","60","2","left","in","Female","Right-handed","2","0","no","left","d","1831.92348053","1024.76446863","6","red","3"
"100","72","21","999.196755126","1","1","1","61","3","right","in","Female","Right-handed","2","0","no","right","s","1586.54013911","585.381083598","6","green","1"
"100","73","21","1010.07975607","1","1","1","62","1","right","in","Female","Right-handed","2","0","no","right","s","1705.88629582","1184.91329213","6","red","2"
"100","71","21","1018.32800248","1","0","1","63","0","right","out","Female","Right-handed","2","0","no","right","s","1472.53224445","1240.47996572","6","red","2"
"100","72","21","1023.27246118","1","1","1","64","0","left","in","Female","Right-handed","2","0","no","left","d","708.986304287","1752.89314881","6","green","3"
"100","72","21","1025.24559956","1","1","1","65","0","right","out","Female","Right-handed","2","0","no","right","d","731.547156305","1488.63394371","6","green","3"
"100","73","21","1021.5850232","1","1","1","66","2","right","in","Female","Right-handed","2","0","no","right","s","599.976716262","1121.06261081","6","red","3"
"100","73","21","1022.02265436","1","1","1","67","0","left","out","Female","Right-handed","2","0","no","left","d","938.673327227","1144.7587856","6","red","1"
"100","72","21","1027.63169089","1","0","1","68","2","right","in","Female","Right-handed","2","0","no","right","d","1346.19615555","1225.09858707","6","green","2"
"100","72","21","1021.7916528","1","1","1","69","1","right","out","Female","Right-handed","2","0","no","right","s","469.73338516","1024.88633944","6","green","3"
"100","73","21","1022.49718728","1","1","1","70","1","left","out","Female","Right-handed","2","0","no","left","s","1048.2496145","1064.47607099","6","red","0"
"100","74","21","1016.47491257","1","1","1","71","1","right","in","Female","Right-handed","2","0","no","right","d","641.868843921","800.89805956","6","red","3"
"98","74","21","1017.84770923","0","1","1","72","2","left","out","Female","Right-handed","2","0","no","right","s","721.518151053","1451.45693342","6","green","2"
"98","75","21","1014.32433752","1","1","1","73","1","left","in","Female","Right-handed","2","0","no","left","d","860.176340643","809.088419195","6","red","3"
"98","75","21","1010.72551446","1","1","1","74","3","left","out","Female","Right-handed","2","0","no","left","d","790.633651224","856.539779914","6","green","3"
"98","75","21","1010.62273345","1","1","1","75","3","left","in","Female","Right-handed","2","0","no","left","s","977.181936437","1033.1687436","6","green","1"
"98","76","21","1004.07323141","1","1","1","76","2","right","out","Female","Right-handed","2","0","no","right","s","539.839566704","760.960675498","6","red","3"
"98","76","21","1004.69427964","1","1","1","77","2","left","out","Female","Right-handed","2","0","no","left","s","1261.31281799","816.391046216","6","red","1"
"98","77","21","1004.00662655","1","1","1","78","3","right","out","Female","Right-handed","2","0","no","right","d","666.01818569","1264.97792214","6","red","2"
"98","77","21","995.85279285","1","1","1","79","2","left","out","Female","Right-handed","2","0","no","left","s","557.596143238","504.572400239","6","green","3"
"98","77","21","991.816119848","1","1","1","80","2","right","in","Female","Right-handed","2","0","no","right","s","882.133932168","633.244239359","6","green","2"
"98","76","21","998.38188709","1","0","1","81","0","left","out","Female","Right-handed","2","0","no","left","s","746.728410266","2024.79589847","6","red","3"
"98","77","21","997.855436576","1","1","1","82","3","left","out","Female","Right-handed","2","0","no","left","s","996.285506097","936.251305301","6","green","0"
"98","77","21","991.94448193","1","1","1","83","3","left","out","Female","Right-handed","2","0","no","left","d","597.855843513","664.896653556","6","green","3"
"98","76","21","990.538969214","1","0","1","84","0","left","out","Female","Right-handed","2","0","no","left","s","702.31259477","1104.48176684","6","red","0"
"98","76","21","989.966179047","1","1","1","85","2","left","out","Female","Right-handed","2","0","no","left","s","858.942238369","1048.81855874","6","red","2"
"100","100","21","1013.16749924","1","1","2","86","1","right","in","Female","Right-handed","2","0","no","right","d","1017.22707995","1009.10791852","6","green","2"
"100","50","21","814.197371696","1","0","2","87","0","left","in","Female","Right-handed","2","0","no","left","s","628.77959857","601.674889739","6","green","1"
"100","66","21","891.216407488","1","1","2","88","0","right","out","Female","Right-handed","2","0","no","right","s","1409.18187486","681.327083285","6","red","2"
"100","75","21","859.542051201","1","1","2","89","2","right","out","Female","Right-handed","2","0","no","right","d","527.981857927","1001.05610675","6","green","2"
"100","80","21","890.235165757","1","1","2","90","2","left","out","Female","Right-handed","2","0","no","left","d","936.446298591","1089.56894937","6","green","1"
"100","66","21","882.371820775","1","0","2","91","1","right","out","Female","Right-handed","2","0","no","right","s","917.093855915","769.016335819","6","green","1"
"100","71","21","859.623294587","1","1","2","92","2","right","in","Female","Right-handed","2","0","no","right","d","645.647480353","800.616794567","6","red","3"
"100","62","21","880.139500381","1","0","2","93","2","right","in","Female","Right-handed","2","0","no","right","d","798.239993124","1249.26588875","6","red","2"
"100","66","21","868.642584425","1","1","2","94","1","left","in","Female","Right-handed","2","0","no","left","d","696.689539893","856.644973663","6","red","2"
"100","70","21","868.624457033","1","1","2","95","1","right","in","Female","Right-handed","2","0","no","right","d","975.404546935","761.518074082","6","green","1"
"100","72","21","879.069202092","1","1","2","96","1","right","out","Female","Right-handed","2","0","no","right","s","590.037510552","1376.99579482","6","green","0"
"100","75","21","873.151893359","1","1","2","97","0","right","out","Female","Right-handed","2","0","no","right","d","575.59581996","1040.52717462","6","green","2"
"100","69","21","908.763949273","1","0","2","98","2","left","out","Female","Right-handed","2","0","no","left","s","1391.19438522","1281.02285527","6","green","2"
"100","64","21","935.498443811","1","0","2","99","1","right","in","Female","Right-handed","2","0","no","right","s","1109.60515141","1456.48859418","6","red","1"
"100","60","21","935.474902738","1","0","2","100","3","right","in","Female","Right-handed","2","0","no","right","d","1045.13164613","825.159009331","6","red","0"
"100","62","21","926.73456835","1","1","2","101","0","right","in","Female","Right-handed","2","0","no","right","d","622.593372281","968.665732752","6","red","3"
"100","64","21","927.943413913","1","1","2","102","3","left","out","Female","Right-handed","2","0","no","left","d","1053.17800578","841.391880069","6","green","1"
"100","61","21","968.269964434","1","0","2","103","2","right","in","Female","Right-handed","2","0","no","right","d","1402.85036574","1904.79228083","6","red","2"
"100","63","21","972.400338713","1","1","2","104","2","right","out","Female","Right-handed","2","0","no","right","s","668.303263315","1425.19088817","6","red","2"
"100","65","21","969.902344602","1","1","2","105","1","right","out","Female","Right-handed","2","0","no","right","s","724.018747579","1120.8621654","6","green","2"
"100","66","21","953.693163457","1","1","2","106","2","left","out","Female","Right-handed","2","0","no","left","s","721.426747948","537.592333172","6","green","2"
"100","63","21","962.665862378","1","0","2","107","3","left","in","Female","Right-handed","2","0","no","left","s","1157.11327827","1145.07180115","6","green","0"
"100","65","21","947.684585747","1","1","2","108","3","left","in","Female","Right-handed","2","0","no","left","s","699.598724333","536.594275407","6","red","3"
"100","62","21","948.668189945","1","0","2","109","1","right","out","Female","Right-handed","2","0","no","right","d","1005.39887674","937.183296259","6","green","0"
"100","64","21","969.411941286","1","1","2","110","2","right","in","Female","Right-handed","2","0","no","right","s","1685.75901138","1248.76493559","6","red","1"
"100","65","21","961.696387848","1","1","2","111","0","left","out","Female","Right-handed","2","0","no","left","d","648.34916371","889.26594006","6","red","0"
"100","66","21","961.904854725","1","1","2","112","3","right","in","Female","Right-handed","2","0","no","right","d","845.754534235","1088.89545281","6","green","2"
"100","67","21","957.386515142","1","1","2","113","3","right","in","Female","Right-handed","2","0","no","right","d","742.394299525","928.388393281","6","red","1"
"100","68","21","956.529075853","1","1","2","114","0","right","in","Female","Right-handed","2","0","no","right","s","559.978717509","1305.06283402","6","green","3"
"100","70","21","944.016795508","1","1","2","115","0","left","in","Female","Right-handed","2","0","no","left","s","625.629879643","536.69145134","6","red","2"
"100","70","21","937.667841344","1","1","2","116","0","right","out","Female","Right-handed","2","0","no","right","d","669.269570527","825.128862342","6","red","2"
"100","68","21","949.842811715","1","0","2","117","1","right","out","Female","Right-handed","2","0","no","right","s","1533.79958538","1120.73420105","6","green","1"
"100","69","21","939.995732384","1","1","2","118","3","left","out","Female","Right-handed","2","0","no","left","d","585.337145965","664.441241594","6","red","2"
"100","70","21","937.819495828","1","1","2","119","0","left","in","Female","Right-handed","2","0","no","left","s","890.927231583","841.080147374","6","green","2"
"100","68","21","932.428332635","1","0","2","120","0","left","out","Female","Right-handed","2","0","no","left","d","601.68226613","896.575302047","6","green","3"
"100","69","21","932.059301444","1","1","2","121","0","left","out","Female","Right-handed","2","0","no","left","s","957.209876923","881.076542563","6","red","2"
"100","70","21","930.372876475","1","1","2","122","3","right","out","Female","Right-handed","2","0","no","right","s","930.694958654","808.628196543","6","green","1"
"100","71","21","922.58180637","1","1","2","123","3","right","in","Female","Right-handed","2","0","no","right","d","612.348848128","656.275576834","6","green","3"
"100","71","21","917.64187571","1","1","2","124","1","right","in","Female","Right-handed","2","0","no","right","s","778.922828839","680.926192474","6","green","2"
"100","72","21","912.065149728","1","1","2","125","0","left","out","Female","Right-handed","2","0","no","left","s","740.494077079","648.651595738","6","red","3"
"100","73","21","908.042922554","1","1","2","126","0","left","out","Female","Right-handed","2","0","no","left","d","685.141639534","809.166031656","6","red","0"
"100","71","21","910.190180157","1","0","2","127","1","right","out","Female","Right-handed","2","0","no","right","s","891.760122332","1104.69536147","6","red","2"
"100","69","21","906.704567294","1","0","2","128","3","left","out","Female","Right-handed","2","0","no","left","d","680.325176969","840.292477108","6","red","2"
"100","68","21","903.001909756","1","0","2","129","2","right","in","Female","Right-handed","2","0","no","right","d","686.840454437","800.734816822","6","green","0"
"100","66","21","900.313575011","1","0","2","130","2","right","out","Female","Right-handed","2","0","no","right","d","563.511367339","1000.54232509","6","red","3"
"100","67","21","896.612807997","1","1","2","131","2","left","in","Female","Right-handed","2","0","no","left","s","555.030121332","905.126463412","6","green","3"
"100","68","21","891.568387346","1","1","2","132","3","left","in","Female","Right-handed","2","0","no","left","s","502.495465123","816.554609667","6","red","3"
"100","68","21","892.559505292","1","1","2","133","0","left","in","Female","Right-handed","2","0","no","left","d","1038.158391","840.12570653","6","red","1"
"100","69","21","896.902589306","1","1","2","134","1","left","out","Female","Right-handed","2","0","no","left","s","993.859314906","1216.881929","6","green","2"
"100","70","21","896.670040564","1","1","2","135","2","left","out","Female","Right-handed","2","0","no","left","d","866.288803024","904.261501397","6","red","1"
"100","68","21","896.557181782","1","0","2","136","1","left","in","Female","Right-handed","2","0","no","left","d","636.96578894","1144.8626965","6","green","3"
"100","69","21","892.536209938","1","1","2","137","3","left","in","Female","Right-handed","2","0","no","left","d","686.490556937","688.442734832","6","red","2"
"100","69","21","890.65902504","1","1","2","138","3","right","out","Female","Right-handed","2","0","no","right","d","562.120757292","1023.9700634","6","red","3"
"100","70","21","889.286908134","1","1","2","139","1","left","out","Female","Right-handed","2","0","no","left","d","520.685324446","1112.44409979","6","green","3"
"100","69","21","891.013232137","1","0","2","140","3","right","out","Female","Right-handed","2","0","no","right","s","664.19493428","1304.27452233","6","red","2"
"100","69","21","886.456691972","1","1","2","141","1","left","in","Female","Right-handed","2","0","no","left","d","590.896379026","680.797586701","6","green","3"
"100","68","21","885.842144041","1","0","2","142","0","left","out","Female","Right-handed","2","0","no","left","s","638.526055978","1064.32886388","6","green","1"
"100","68","21","886.328931032","1","1","2","143","2","left","in","Female","Right-handed","2","0","no","left","s","996.047858025","832.103721036","6","red","1"
"100","69","21","886.51128204","1","1","2","144","3","right","out","Female","Right-handed","2","0","no","right","s","889.719107034","904.456173975","6","red","2"
"100","70","21","885.50638603","1","1","2","145","3","left","in","Female","Right-handed","2","0","no","left","d","868.159840619","784.275202241","6","green","1"
"100","70","21","886.764575927","1","1","2","146","2","left","out","Female","Right-handed","2","0","no","left","s","627.786030784","1296.72590871","6","red","3"
"100","70","21","883.847536062","1","1","2","147","1","right","in","Female","Right-handed","2","0","no","right","s","619.417996341","792.39821222","6","green","3"
"100","71","21","884.340677001","1","1","2","148","0","left","in","Female","Right-handed","2","0","no","left","s","972.92447602","856.906354472","6","red","1"
"100","71","21","880.686809045","1","1","2","149","2","left","in","Female","Right-handed","2","0","no","left","s","844.513696996","456.472558543","6","green","0"
"100","100","21","784.413108681","1","1","3","150","1","right","out","Female","Right-handed","2","0","no","right","s","815.913825794","752.912391567","6","red","0"
"100","100","21","662.181259734","1","1","3","151","3","right","in","Female","Right-handed","2","0","no","right","s","478.382363883","601.51645769","6","red","0"
"100","100","21","655.442686084","1","1","3","152","0","right","out","Female","Right-handed","2","0","no","right","d","587.020887373","696.910190196","6","green","3"
"100","100","21","727.632818333","1","1","3","153","2","left","in","Female","Right-handed","2","0","no","left","d","975.658872067","912.747558094","6","red","2"
"100","80","21","736.944589834","1","0","3","154","2","left","in","Female","Right-handed","2","0","no","left","d","643.050028607","905.33332307","6","red","2"
"100","83","21","821.418323896","1","1","3","155","0","right","in","Female","Right-handed","2","0","no","right","s","1366.87121719","1120.70277121","6","green","1"
"100","71","21","805.9746659","1","0","3","156","1","right","out","Female","Right-handed","2","0","no","right","d","785.323291179","641.302144669","6","red","1"
"100","75","21","813.397313903","1","1","3","157","2","left","in","Female","Right-handed","2","0","no","left","s","737.889569655","992.822130199","6","green","2"
"100","77","21","817.305273257","1","1","3","158","3","left","out","Female","Right-handed","2","0","no","left","s","736.628527518","960.509368658","6","red","0"
"100","80","21","817.443753416","1","1","3","159","2","right","in","Female","Right-handed","2","0","no","right","s","940.162396057","697.217753626","6","green","2"
"100","81","21","801.967213488","1","1","3","160","0","left","out","Female","Right-handed","2","0","no","left","d","477.613294951","816.790333464","6","red","2"
"100","83","21","831.409471692","1","1","3","161","2","left","out","Female","Right-handed","2","0","no","left","d","1022.30652689","1288.242097","6","red","1"
"100","84","21","840.168237961","1","1","3","162","2","left","out","Female","Right-handed","2","0","no","left","d","809.816116195","1080.73075019","6","red","0"
"100","78","21","859.761727912","1","0","3","163","1","right","out","Female","Right-handed","2","0","no","right","s","772.483239557","1456.47095498","6","red","2"
"100","80","21","860.538339701","1","1","3","164","1","left","out","Female","Right-handed","2","0","no","left","d","742.079038991","1000.7427705","6","green","2"
"100","81","21","873.743227351","1","1","3","165","2","left","in","Female","Right-handed","2","0","no","left","s","1303.47145786","840.161626347","6","green","3"
"100","82","21","871.588673878","1","1","3","166","3","left","out","Female","Right-handed","2","0","no","left","s","713.118686772","961.112949864","6","green","3"
"100","83","21","861.704794768","1","1","3","167","0","right","in","Female","Right-handed","2","0","no","right","d","562.720810659","824.636889139","6","green","3"
"100","84","21","860.471176845","1","1","3","168","3","left","in","Female","Right-handed","2","0","no","left","s","620.222664378","1056.30944409","6","red","1"
"100","85","21","848.667879923","1","1","3","169","2","left","in","Female","Right-handed","2","0","no","left","d","615.968411087","632.842065698","6","red","3"
"100","85","21","843.9705014","1","1","3","170","3","right","out","Female","Right-handed","2","0","no","right","s","795.517142732","704.528719176","6","red","2"
"100","81","21","834.837672459","1","0","3","171","2","left","out","Female","Right-handed","2","0","no","left","d","541.035504173","745.061025203","6","green","3"
"100","82","21","827.375893687","1","1","3","172","3","right","out","Female","Right-handed","2","0","no","right","s","541.711887151","784.721634249","6","green","3"
"100","83","21","820.076796247","1","1","3","173","3","left","in","Female","Right-handed","2","0","no","left","s","736.228278132","568.166832155","6","green","2"
"100","84","21","814.6108152","1","1","3","174","3","left","out","Female","Right-handed","2","0","no","left","s","789.865544429","576.988995708","6","green","1"
"100","84","21","811.050304815","1","1","3","175","0","right","in","Female","Right-handed","2","0","no","right","d","603.606542025","840.468548352","6","green","3"
"100","85","21","825.161925441","1","1","3","176","0","right","in","Female","Right-handed","2","0","no","right","d","1423.04564126","961.082482162","6","red","2"
"100","85","21","817.644248074","1","1","3","177","2","left","out","Female","Right-handed","2","0","no","left","s","684.702583918","544.631334395","6","red","2"
"100","86","21","810.528557228","1","1","3","178","0","right","out","Female","Right-handed","2","0","no","right","s","662.287335443","560.291091629","6","green","0"
"100","86","21","809.373201337","1","1","3","179","1","right","in","Female","Right-handed","2","0","no","right","s","998.841906624","552.893854376","6","green","1"
"100","87","21","802.557819939","1","1","3","180","1","right","in","Female","Right-handed","2","0","no","right","s","579.61274589","616.580010109","6","red","3"
"100","87","21","801.139896942","1","1","3","181","1","left","out","Female","Right-handed","2","0","no","left","s","682.177613231","832.190954877","6","green","2"
"100","87","21","796.838099823","1","1","3","182","1","left","in","Female","Right-handed","2","0","no","left","d","653.646374536","664.714809484","6","green","2"
"100","88","21","795.617695581","1","1","3","183","3","left","in","Female","Right-handed","2","0","no","left","d","526.32249068","984.366220491","6","red","3"
"100","88","21","796.455213487","1","1","3","184","1","right","in","Female","Right-handed","2","0","no","right","d","561.040917802","1088.82072676","6","red","3"
"100","86","21","791.792733464","1","0","3","185","0","right","out","Female","Right-handed","2","0","no","right","s","584.674553632","672.53731171","6","red","3"
"100","86","21","793.719674019","1","1","3","186","3","left","out","Female","Right-handed","2","0","no","left","d","990.083564888","736.095503095","6","red","2"
"100","86","21","796.545461423","1","1","3","187","1","left","in","Female","Right-handed","2","0","no","left","d","649.665047709","1152.53414307","6","green","2"
"100","87","21","790.523280844","1","1","3","188","0","left","out","Female","Right-handed","2","0","no","left","d","579.194857309","544.165980342","6","green","2"
"100","85","21","805.129277665","1","0","3","189","0","left","in","Female","Right-handed","2","0","no","left","s","1820.82457788","928.701729539","6","green","1"
"100","82","21","803.109314609","1","0","3","190","1","left","in","Female","Right-handed","2","0","no","left","s","612.336019623","832.285565108","6","red","3"
"100","80","21","804.878821322","1","0","3","191","2","left","in","Female","Right-handed","2","0","no","left","s","674.941373728","1079.91581934","6","green","0"
"100","81","21","801.080608454","1","1","3","192","2","right","in","Female","Right-handed","2","0","no","right","d","666.461731284","616.649604754","6","red","3"
"100","81","21","801.947023169","1","1","3","193","3","left","out","Female","Right-handed","2","0","no","left","d","494.180989694","1184.22472207","6","red","3"
"100","82","21","803.296366568","1","1","3","194","0","left","in","Female","Right-handed","2","0","no","left","d","892.636950715","832.698001575","6","green","2"
"100","82","21","802.862312984","1","1","3","195","0","left","out","Female","Right-handed","2","0","no","left","d","630.315170735","936.344632682","6","green","0"
"100","82","21","804.351510426","1","1","3","196","0","right","out","Female","Right-handed","2","0","no","right","s","561.827946643","1183.88123882","6","green","2"
"100","81","21","811.155960103","1","0","3","197","0","right","out","Female","Right-handed","2","0","no","right","d","941.476676493","1320.45351334","6","green","1"
"100","81","21","808.5398173","1","1","3","198","1","right","out","Female","Right-handed","2","0","no","right","d","573.92041708","792.009508489","6","red","2"
"100","82","21","806.831314127","1","1","3","199","2","right","out","Female","Right-handed","2","0","no","right","d","693.616792001","752.61252524","6","red","2"
"100","82","21","812.6516059","1","1","3","200","1","left","in","Female","Right-handed","2","0","no","left","d","767.207195765","1440.12519339","6","red","3"
"100","80","21","812.33560393","1","0","3","201","3","left","in","Female","Right-handed","2","0","no","left","d","479.621918272","1112.8170886","6","red","2"
"100","81","21","816.08046022","1","1","3","202","3","right","in","Female","Right-handed","2","0","no","right","s","717.350490178","1304.27548447","6","red","1"
"100","81","21","815.486553398","1","1","3","203","2","right","out","Female","Right-handed","2","0","no","right","s","879.966876797","688.052106826","6","green","1"
"100","81","21","815.476225047","1","1","3","204","3","right","in","Female","Right-handed","2","0","no","right","d","861.391841584","768.445146591","6","green","2"
"100","82","21","816.647550475","1","1","3","205","2","right","in","Female","Right-handed","2","0","no","right","s","762.067134137","1000.07376391","6","green","1"
"100","82","21","817.585366055","1","1","3","206","2","right","out","Female","Right-handed","2","0","no","right","d","732.626033657","1007.58004346","6","red","1"
"100","82","21","817.373527299","1","1","3","207","0","left","out","Female","Right-handed","2","0","no","left","s","506.371598201","1104.22583815","6","green","2"
"100","83","21","813.999728449","1","1","3","208","1","right","out","Female","Right-handed","2","0","no","right","s","548.73709773","687.901692593","6","green","1"
"100","83","21","817.141438982","1","1","3","209","1","right","in","Female","Right-handed","2","0","no","right","d","1260.55272901","744.451991882","6","green","1"
"100","83","21","816.302936988","1","1","3","210","3","left","out","Female","Right-handed","2","0","no","left","s","611.971369341","920.014265298","6","red","2"
"100","82","21","814.459494799","1","0","3","211","0","right","in","Female","Right-handed","2","0","no","right","s","604.425642131","799.593400504","6","red","1"
"100","82","21","811.027396965","1","1","3","212","1","right","out","Female","Right-handed","2","0","no","right","s","508.265085681","688.209576736","6","green","0"
"100","82","21","806.914516108","1","1","3","213","3","right","in","Female","Right-handed","2","0","no","right","s","599.723673981","495.882370297","6","red","1"
"100","100","21","650.941323696","1","1","4","214","0","right","out","Female","Right-handed","2","0","no","right","d","588.943238992","712.9394084","6","green","3"
"100","50","21","872.985924563","1","0","4","215","3","right","in","Female","Right-handed","2","0","no","right","d","717.532334249","1472.52871661","6","green","2"
"100","66","21","806.208419605","1","1","4","216","0","right","in","Female","Right-handed","2","0","no","right","s","633.214092371","712.092727007","6","green","2"
"100","75","21","732.84227416","1","1","4","217","0","right","in","Female","Right-handed","2","0","no","right","d","456.732015076","568.755660578","6","green","3"
"100","80","21","780.639186724","1","1","4","218","0","left","in","Female","Right-handed","2","0","no","left","d","823.325815829","1120.32785813","6","green","2"
"100","66","21","775.178615565","1","0","4","219","2","left","in","Female","Right-handed","2","0","no","left","d","774.770241459","720.981278078","6","red","0"
"100","71","21","775.371211147","1","1","4","220","0","right","out","Female","Right-handed","2","0","no","right","d","680.495154673","872.558414602","6","green","2"
"100","75","21","774.083495454","1","1","4","221","2","left","out","Female","Right-handed","2","0","no","left","d","705.159560957","824.979410249","6","green","3"
"100","77","21","769.146188808","1","1","4","222","3","left","in","Female","Right-handed","2","0","no","left","d","738.590647507","720.704823774","6","green","1"
"100","80","21","790.90535898","1","1","4","223","1","left","out","Female","Right-handed","2","0","no","left","s","845.177251466","1128.2985296","6","green","1"
"100","81","21","785.445905456","1","1","4","224","2","left","in","Female","Right-handed","2","0","no","left","d","676.862442496","784.84029793","6","green","1"
"100","83","21","791.869236794","1","1","4","225","3","right","out","Female","Right-handed","2","0","no","right","d","804.636286199","920.415476823","6","red","2"
"100","84","21","784.807252191","1","1","4","226","2","left","in","Female","Right-handed","2","0","no","left","s","568.022832175","832.104041749","6","red","2"
"100","78","21","772.349502382","1","0","4","227","1","right","out","Female","Right-handed","2","0","no","right","d","636.394920425","584.402589306","6","red","2"
"100","80","21","774.80807486","1","1","4","228","2","left","out","Female","Right-handed","2","0","no","left","d","842.147158358","776.309020749","6","red","1"
"100","75","21","774.175139093","1","0","4","229","2","left","in","Female","Right-handed","2","0","no","left","d","800.753738868","728.608466301","6","red","2"
"100","76","21","823.474409545","1","1","4","230","3","right","out","Female","Right-handed","2","0","no","right","s","952.410732842","2272.11474072","6","red","1"
"100","77","21","826.548015815","1","1","4","231","0","right","in","Female","Right-handed","2","0","no","right","s","741.008500167","1016.59014463","6","red","2"
"100","78","21","829.356260169","1","1","4","232","0","left","in","Female","Right-handed","2","0","no","left","s","1015.35283523","744.45648186","6","green","3"
"100","80","21","817.914519495","1","1","4","233","1","left","in","Female","Right-handed","2","0","no","left","s","649.067239331","551.975654062","6","red","3"
"100","80","21","812.093657074","1","1","4","234","2","left","in","Female","Right-handed","2","0","no","left","s","974.623611634","416.729205634","6","green","2"
"100","81","21","801.011897973","1","1","4","235","1","left","out","Female","Right-handed","2","0","no","left","d","536.230907975","600.359005739","6","green","3"
"100","82","21","805.634155719","1","1","4","236","1","left","in","Female","Right-handed","2","0","no","left","d","790.810684606","1023.83696765","6","green","2"
"100","83","21","800.609692118","1","1","4","237","1","left","out","Female","Right-handed","2","0","no","left","d","569.512221718","800.581836888","6","red","2"
"100","80","21","806.752316187","1","0","4","238","3","left","out","Female","Right-handed","2","0","no","left","d","580.126206842","1328.22438083","6","red","2"
"100","80","21","808.574939741","1","1","4","239","1","right","in","Female","Right-handed","2","0","no","right","s","955.64415777","752.636899401","6","green","1"
"100","81","21","809.137084369","1","1","4","240","0","right","in","Female","Right-handed","2","0","no","right","d","831.234269045","816.271420398","6","red","1"
"100","82","21","806.893192654","1","1","4","241","3","right","out","Female","Right-handed","2","0","no","right","d","812.723055647","679.893177031","6","green","0"
"100","82","21","808.652648118","1","1","4","242","3","left","in","Female","Right-handed","2","0","no","left","d","555.352758257","1160.48204394","6","red","3"
"100","83","21","798.499626049","1","1","4","243","2","right","out","Female","Right-handed","2","0","no","right","s","464.117385962","544.006586155","6","green","3"
"100","83","21","790.425488023","1","1","4","244","1","right","in","Female","Right-handed","2","0","no","right","d","471.63521117","624.767483329","6","green","3"
"100","84","21","781.576530577","1","1","4","245","1","right","out","Female","Right-handed","2","0","no","right","d","574.247864695","440.269834795","6","green","0"
"100","84","21","779.008702081","1","1","4","246","2","left","in","Female","Right-handed","2","0","no","left","d","593.785037857","799.891342554","6","red","3"
"100","82","21","782.889053874","1","0","4","247","1","left","out","Female","Right-handed","2","0","no","left","d","917.466203301","904.415122756","6","red","2"
"100","82","21","785.219898002","1","1","4","248","0","right","out","Female","Right-handed","2","0","no","right","s","920.974799683","807.962397083","6","green","1"
"100","83","21","780.867723885","1","1","4","249","3","right","in","Female","Right-handed","2","0","no","right","d","553.416615994","703.666643575","6","red","3"
"100","83","21","779.402770985","1","1","4","250","3","left","out","Female","Right-handed","2","0","no","left","s","757.094805224","696.234127931","6","red","2"
"100","84","21","777.82333304","1","1","4","251","1","right","in","Female","Right-handed","2","0","no","right","s","1014.88331191","423.884946262","6","green","1"
"100","84","21","775.594246823","1","1","4","252","2","right","in","Female","Right-handed","2","0","no","right","d","757.446947713","624.330993414","6","green","1"
"100","85","21","776.079498733","1","1","4","253","0","left","out","Female","Right-handed","2","0","no","left","s","805.973657946","784.034988467","6","green","2"
"100","85","21","770.776262126","1","1","4","254","0","left","out","Female","Right-handed","2","0","no","left","s","733.643975604","383.649620148","6","red","0"
"100","83","21","786.71594386","1","0","4","255","1","right","out","Female","Right-handed","2","0","no","right","s","1368.20826823","1512.27752163","6","red","3"
"100","83","21","784.671289822","1","1","4","256","1","left","out","Female","Right-handed","2","0","no","left","d","693.777789751","703.81385068","6","green","2"
"100","84","21","778.66639721","1","1","4","257","3","left","out","Female","Right-handed","2","0","no","left","s","505.416515932","535.495513872","6","red","2"
"100","84","21","775.673856474","1","1","4","258","3","right","out","Female","Right-handed","2","0","no","right","d","632.031624833","655.97250338","6","red","3"
"100","84","21","772.812841524","1","1","4","259","0","left","in","Female","Right-handed","2","0","no","left","d","536.61993242","751.514405129","6","red","3"
"100","85","21","771.650318101","1","1","4","260","1","right","in","Female","Right-handed","2","0","no","right","s","764.118412241","672.230068992","6","red","2"
"100","85","21","769.173224439","1","1","4","261","3","right","out","Female","Right-handed","2","0","no","right","s","449.772871301","855.726773349","6","red","3"
"100","85","21","768.830135946","1","1","4","262","3","left","out","Female","Right-handed","2","0","no","left","d","985.287307221","519.43646939","6","green","1"
"100","86","21","771.176171948","1","1","4","263","3","right","out","Female","Right-handed","2","0","no","right","d","732.134701879","1040.12917023","6","red","2"
"100","86","21","770.840631118","1","1","4","264","0","left","out","Female","Right-handed","2","0","no","left","s","660.513473779","847.613705462","6","green","1"
"100","86","21","783.145710883","1","1","4","265","1","right","out","Female","Right-handed","2","0","no","right","d","1829.16214462","992.247413132","6","red","1"
"100","84","21","779.807393659","1","0","4","266","2","left","in","Female","Right-handed","2","0","no","left","d","604.771370368","607.658425634","6","green","3"
"100","85","21","784.734584507","1","1","4","267","2","right","in","Female","Right-handed","2","0","no","right","d","1131.36742894","960.383970012","6","red","2"
"100","85","21","783.793258597","1","1","4","268","0","right","in","Female","Right-handed","2","0","no","right","d","666.015619989","799.9076989","6","red","1"
"100","85","21","784.260893303","1","1","4","269","2","left","in","Female","Right-handed","2","0","no","left","d","972.527754472","647.433849809","6","green","2"
"100","85","21","779.941288429","1","1","4","270","2","right","out","Female","Right-handed","2","0","no","right","s","571.966314909","504.120516116","6","green","0"
"100","86","21","782.11754154","1","1","4","271","3","left","in","Female","Right-handed","2","0","no","left","s","932.713844779","879.614092883","6","red","0"
"100","84","21","778.620315274","1","0","4","272","2","right","out","Female","Right-handed","2","0","no","right","s","663.221892102","488.34049164","6","green","2"
"100","83","21","774.750031216","1","0","4","273","0","right","in","Female","Right-handed","2","0","no","right","d","684.891804381","407.914739183","6","green","0"
"100","83","21","775.646336408","1","1","4","274","0","left","out","Female","Right-handed","2","0","no","left","s","587.434927403","1071.41436844","6","green","2"
"100","83","21","774.410065635","1","1","4","275","1","right","in","Female","Right-handed","2","0","no","right","s","558.006334716","839.988762229","6","red","0"
"100","84","21","770.112669103","1","1","4","276","2","left","out","Female","Right-handed","2","0","no","left","s","623.662628253","383.685539965","6","red","1"
"100","82","21","770.913807153","1","0","4","277","3","right","in","Female","Right-handed","2","0","no","right","s","715.41498934","927.356019263","6","red","1"
"100","100","21","538.597927683","1","1","5","278","3","right","out","Female","Right-handed","2","0","no","right","d","604.574773512","472.621081854","6","red","3"
"100","100","21","606.939628409","1","1","5","279","1","left","out","Female","Right-handed","2","0","no","left","s","486.317436248","864.245222023","6","red","3"
"100","100","21","599.723834338","1","1","5","280","2","right","in","Female","Right-handed","2","0","no","right","d","546.772412042","623.812080347","6","green","2"
"100","100","21","581.918309036","1","1","5","281","0","right","in","Female","Right-handed","2","0","no","right","s","432.627573078","624.375893185","6","red","3"
"100","100","21","664.865448215","1","1","5","282","3","right","out","Female","Right-handed","2","0","no","right","d","737.208696701","1256.09931316","6","green","1"
"100","100","21","638.184122842","1","1","5","283","1","left","in","Female","Right-handed","2","0","no","left","s","496.86086459","512.694127366","6","red","3"
"100","85","21","643.272626094","1","0","5","284","0","right","out","Female","Right-handed","2","0","no","right","d","411.330008185","936.277283025","6","green","3"
"100","75","21","710.151994544","1","0","5","285","2","left","out","Female","Right-handed","2","0","no","left","d","540.757446307","1815.85770108","6","green","3"
"100","77","21","698.123624321","1","1","5","286","2","left","out","Female","Right-handed","2","0","no","left","d","651.288174428","552.505150645","6","red","2"
"100","70","21","725.565191902","1","0","5","287","1","left","in","Female","Right-handed","2","0","no","left","s","865.127823234","1079.95077702","6","green","0"
"100","63","21","722.662905699","1","0","5","288","1","right","out","Female","Right-handed","2","0","no","right","d","746.652401368","640.627685969","6","green","2"
"100","66","21","731.986986977","1","1","5","289","2","left","in","Female","Right-handed","2","0","no","left","d","445.010609174","1224.09315291","6","red","2"
"100","69","21","721.974574493","1","1","5","290","0","left","out","Female","Right-handed","2","0","no","left","d","483.76199786","719.889251508","6","green","3"
"100","71","21","709.823524658","1","1","5","291","1","right","in","Female","Right-handed","2","0","no","right","d","495.330744541","608.389009049","6","red","0"
"100","73","21","696.805969275","1","1","5","292","2","left","in","Female","Right-handed","2","0","no","left","d","453.06787306","576.052514773","6","red","2"
"100","75","21","693.637287544","1","1","5","293","2","right","out","Female","Right-handed","2","0","no","right","s","596.578124319","695.635998841","6","red","1"
"100","76","21","687.438998568","1","1","5","294","3","right","out","Female","Right-handed","2","0","no","right","s","512.302537222","664.23021267","6","green","2"
"100","72","21","667.93484466","1","0","5","295","0","right","out","Female","Right-handed","2","0","no","right","s","656.730026658","15.9984297906","6","green","2"
"100","73","21","664.114570442","1","1","5","296","1","right","in","Female","Right-handed","2","0","no","right","s","614.436687474","576.262581557","6","green","2"
"100","75","21","661.3900937","1","1","5","297","1","left","in","Female","Right-handed","2","0","no","left","d","515.08920943","704.160861768","6","green","2"
"100","76","21","660.644988874","1","1","5","298","2","left","out","Female","Right-handed","2","0","no","left","s","587.721644512","703.76414022","6","red","3"
"100","72","21","653.200766177","1","0","5","299","1","left","out","Female","Right-handed","2","0","no","left","s","441.426324607","552.317854458","6","red","3"
"100","73","21","655.516938034","1","1","5","300","1","right","in","Female","Right-handed","2","0","no","right","s","684.950174083","727.995263716","6","green","1"
"100","75","21","647.418950034","1","1","5","301","3","right","out","Female","Right-handed","2","0","no","right","s","466.657430143","455.673021908","6","green","3"
"100","76","21","639.229519932","1","1","5","302","2","right","in","Female","Right-handed","2","0","no","right","s","469.239487681","416.126907278","6","red","3"
"100","76","21","635.062815766","1","1","5","303","0","left","in","Female","Right-handed","2","0","no","left","s","461.81338629","599.977036974","6","red","3"
"100","77","21","632.132387996","1","1","5","304","1","right","in","Female","Right-handed","2","0","no","right","d","495.447163233","616.435368705","6","red","3"
"100","78","21","632.634438619","1","1","5","305","2","left","in","Female","Right-handed","2","0","no","left","d","612.103182239","680.276428647","6","red","0"
"100","79","21","638.890910853","1","1","5","306","3","right","out","Female","Right-handed","2","0","no","right","s","668.597356815","959.546909998","6","red","1"
"100","80","21","639.624282994","1","1","5","307","3","right","out","Female","Right-handed","2","0","no","right","s","521.410776459","800.373373667","6","green","0"
"100","80","21","645.455425204","1","1","5","308","2","left","in","Female","Right-handed","2","0","no","left","d","1000.82615578","639.953227267","6","green","2"
"100","81","21","646.159563242","1","1","5","309","1","right","in","Female","Right-handed","2","0","no","right","s","776.474829189","559.500855661","6","red","1"
"100","78","21","641.051230755","1","0","5","310","1","left","out","Female","Right-handed","2","0","no","left","s","547.05431846","408.114863877","6","red","2"
"100","79","21","638.056763762","1","1","5","311","0","right","out","Female","Right-handed","2","0","no","right","d","574.751383555","503.727322409","6","red","0"
"100","80","21","636.562593579","1","1","5","312","1","left","in","Female","Right-handed","2","0","no","left","s","579.284977562","592.236637187","6","green","2"
"100","80","21","637.324247687","1","1","5","313","3","left","in","Female","Right-handed","2","0","no","left","s","575.997352196","751.966930677","6","red","1"
"100","81","21","630.750503484","1","1","5","314","2","left","out","Female","Right-handed","2","0","no","left","s","476.512609139","311.678815262","6","green","2"
"100","78","21","630.470665731","1","0","5","315","2","left","out","Female","Right-handed","2","0","no","left","s","592.144271944","648.089065751","6","green","1"
"100","79","21","626.209732224","1","1","5","316","3","right","in","Female","Right-handed","2","0","no","right","d","472.874124133","455.71439384","6","green","3"
"100","80","21","633.016641619","1","1","5","317","0","right","out","Female","Right-handed","2","0","no","right","d","669.469374508","1127.50284151","6","red","2"
"100","80","21","629.822043748","1","1","5","318","3","right","in","Female","Right-handed","2","0","no","right","s","452.058269639","552.017988131","6","green","0"
"100","80","21","626.509491353","1","1","5","319","3","left","in","Female","Right-handed","2","0","no","left","d","389.740274068","591.649412327","6","green","2"
"100","79","21","627.260647526","1","0","5","320","1","right","out","Female","Right-handed","2","0","no","right","s","574.340229939","743.278183586","6","red","1"
"100","77","21","628.522846228","1","0","5","321","0","left","in","Female","Right-handed","2","0","no","left","s","653.82725647","711.767524381","6","green","1"
"100","77","21","624.831415614","1","1","5","322","2","right","out","Female","Right-handed","2","0","no","right","d","429.398317413","495.418619807","6","red","0"
"100","78","21","624.552999773","1","1","5","323","0","left","in","Female","Right-handed","2","0","no","left","s","528.060753239","695.987820616","6","green","1"
"100","78","21","625.61012852","1","1","5","324","0","left","out","Female","Right-handed","2","0","no","left","s","556.7103349","791.765766876","6","green","0"
"100","79","21","624.302439966","1","1","5","325","1","right","in","Female","Right-handed","2","0","no","right","d","502.325166706","623.356989098","6","green","1"
"100","79","21","627.998306559","1","1","5","326","3","right","in","Female","Right-handed","2","0","no","right","s","874.870752802","735.92905323","6","red","2"
"100","78","21","630.919938577","1","0","5","327","2","right","in","Female","Right-handed","2","0","no","right","s","620.601426017","927.558388945","6","red","1"
"100","76","21","639.089758767","1","0","5","328","3","right","in","Female","Right-handed","2","0","no","right","s","688.176222621","1406.98531393","6","green","2"
"98","76","21","658.058748415","0","1","5","329","0","right","out","Female","Right-handed","2","0","no","left","d","584.525422251","2666.42901859","6","green","1"
"98","77","21","660.729879178","1","1","5","330","0","right","in","Female","Right-handed","2","0","no","right","s","904.209545948","695.047811842","6","red","2"
"98","77","21","660.508211717","1","1","5","331","0","left","out","Female","Right-handed","2","0","no","left","s","609.740492153","687.779180362","6","red","1"
"98","78","21","662.738962995","1","1","5","332","0","left","out","Female","Right-handed","2","0","no","left","s","879.086841289","687.312222744","6","green","2"
"98","76","21","662.732842538","1","0","5","333","0","left","out","Female","Right-handed","2","0","no","left","s","556.911742445","767.880692328","6","green","2"
"98","77","21","669.439728281","1","1","5","334","2","right","in","Female","Right-handed","2","0","no","right","d","586.535969848","1503.51468992","6","green","1"
"98","77","21","666.90794211","1","1","5","335","3","left","out","Female","Right-handed","2","0","no","left","s","438.104062275","607.088198544","6","red","2"
"98","77","21","677.869463907","1","1","5","336","2","left","in","Female","Right-handed","2","0","no","left","s","803.642076986","1823.63337926","6","green","3"
"98","78","21","678.975227941","1","1","5","337","3","left","in","Female","Right-handed","2","0","no","left","s","905.200548033","583.23006386","6","red","2"
"98","78","21","677.931109619","1","1","5","338","3","left","in","Female","Right-handed","2","0","no","left","d","622.774254215","607.793766372","6","red","1"
"98","79","21","676.279824","1","1","5","339","3","left","out","Female","Right-handed","2","0","no","left","s","551.511262145","599.59154037","6","green","3"
"98","77","21","690.496690632","1","0","5","340","0","right","out","Female","Right-handed","2","0","no","right","d","1817.02381227","1326.86103136","6","red","2"
"98","76","21","691.612102421","1","0","5","341","1","left","out","Female","Right-handed","2","0","no","left","s","804.324232791","719.441857363","6","red","2"
"100","100","21","1115.00290566","1","1","6","342","3","right","in","Female","Right-handed","2","0","no","right","s","1557.95373784","672.052073472","6","red","0"
"100","100","21","825.355205295","1","1","6","343","2","right","in","Female","Right-handed","2","0","no","right","d","599.678774211","471.736235654","6","red","2"
"100","100","21","719.501990984","1","1","6","344","3","left","out","Female","Right-handed","2","0","no","left","s","568.252141718","447.338983007","6","red","2"
"100","100","21","699.206131962","1","1","6","345","0","left","in","Female","Right-handed","2","0","no","left","s","708.866037043","567.771072745","6","green","2"
"100","100","21","715.365503378","1","1","6","346","2","left","out","Female","Right-handed","2","0","no","left","d","776.524539649","783.481438435","6","green","1"
"100","100","21","708.492941328","1","1","6","347","2","left","in","Female","Right-handed","2","0","no","left","d","612.089712307","736.170549855","6","red","3"
"100","100","21","691.734987624","1","1","6","348","1","left","out","Female","Right-handed","2","0","no","left","s","542.538042935","639.836487864","6","red","2"
"100","100","21","701.000218566","1","1","6","349","1","left","in","Female","Right-handed","2","0","no","left","s","1004.32962076","527.384049548","6","red","1"
"100","100","21","683.388036221","1","1","6","350","3","right","in","Female","Right-handed","2","0","no","right","s","541.040314863","543.940840063","6","green","1"
"100","100","21","674.51282145","1","1","6","351","3","left","out","Female","Right-handed","2","0","no","left","s","597.650587417","591.621189613","6","green","1"
"100","100","21","668.993174535","1","1","6","352","0","right","out","Female","Right-handed","2","0","no","right","d","627.22029367","600.373117097","6","red","2"
"100","100","21","667.936100784","1","1","6","353","0","right","out","Female","Right-handed","2","0","no","right","s","536.704921271","775.911657776","6","green","0"
"100","92","21","693.275146684","1","0","6","354","2","left","in","Female","Right-handed","2","0","no","left","d","587.410553242","1407.27684172","6","red","0"
"100","92","21","698.108968262","1","1","6","355","0","right","out","Female","Right-handed","2","0","no","right","d","489.97003261","1031.92726494","6","red","3"
"100","93","21","708.171961419","1","1","6","356","1","right","in","Female","Right-handed","2","0","no","right","d","890.582144772","807.525586456","6","red","2"
"100","93","21","717.360231824","1","1","6","357","3","left","out","Female","Right-handed","2","0","no","left","d","582.213725475","1128.15485033","6","green","3"
"100","94","21","712.3833021","1","1","6","358","2","right","out","Female","Right-handed","2","0","no","right","s","537.676680598","727.828172426","6","green","0"
"100","94","21","712.9396133","1","1","6","359","1","left","out","Female","Right-handed","2","0","no","left","d","661.422052715","783.371754708","6","red","2"
"100","89","21","723.513059689","1","0","6","360","1","right","in","Female","Right-handed","2","0","no","right","d","1099.85516617","727.815023207","6","green","1"
"100","90","21","727.48670165","1","1","6","361","2","left","out","Female","Right-handed","2","0","no","left","d","574.465949296","1031.50584852","6","red","2"
"100","85","21","754.052311226","1","0","6","362","0","right","in","Female","Right-handed","2","0","no","right","s","810.860035868","1759.86896964","6","green","1"
"100","86","21","743.509811008","1","1","6","363","1","right","out","Female","Right-handed","2","0","no","right","d","476.69188751","567.542725339","6","green","0"
"100","86","21","758.472614654","1","1","6","364","3","right","out","Female","Right-handed","2","0","no","right","s","944.177397712","1231.131192","6","red","1"
"100","87","21","757.213816344","1","1","6","365","0","left","out","Female","Right-handed","2","0","no","left","s","496.783572841","959.739337587","6","green","1"
"100","88","21","751.340777715","1","1","6","366","1","right","out","Female","Right-handed","2","0","no","right","s","509.319909585","711.455791686","6","green","3"
"100","88","21","745.807915622","1","1","6","367","2","right","in","Female","Right-handed","2","0","no","right","d","470.875122191","744.097604406","6","green","3"
"100","88","21","745.892941937","1","1","6","368","0","left","in","Female","Right-handed","2","0","no","left","d","760.588648825","735.618603386","6","red","2"
"100","85","21","750.708437061","1","0","6","369","2","right","in","Female","Right-handed","2","0","no","right","s","762.190608507","999.263002332","6","green","1"
"100","86","21","756.775723787","1","1","6","370","1","left","in","Female","Right-handed","2","0","no","left","s","645.634651847","1207.68485236","6","green","3"
"100","86","21","756.192293104","1","1","6","371","3","left","in","Female","Right-handed","2","0","no","left","s","639.394545832","839.15106079","6","green","0"
"100","87","21","759.90612058","1","1","6","372","0","right","out","Female","Right-handed","2","0","no","right","s","1006.76254692","735.87934277","6","green","1"
"100","87","21","752.488549757","1","1","6","373","1","left","in","Female","Right-handed","2","0","no","left","s","589.472094152","455.615614344","6","red","3"
"100","87","21","745.282768844","1","1","6","374","3","left","in","Female","Right-handed","2","0","no","left","s","574.186287866","455.209271418","6","green","3"
"100","88","21","743.060457428","1","1","6","375","1","right","in","Female","Right-handed","2","0","no","right","d","587.735435156","751.712926259","6","red","3"
"100","88","21","749.12591142","1","1","6","376","3","left","out","Female","Right-handed","2","0","no","left","s","1023.34307017","887.359624072","6","green","2"
"100","86","21","749.289069144","1","0","6","377","2","left","in","Female","Right-handed","2","0","no","left","s","727.018693699","782.980485276","6","green","2"
"100","86","21","759.472339106","1","1","6","378","0","right","in","Female","Right-handed","2","0","no","right","s","596.60730917","1655.53280634","6","red","3"
"100","86","21","775.92588307","1","1","6","379","3","right","out","Female","Right-handed","2","0","no","right","d","490.175609419","2279.23841009","6","red","3"
"100","87","21","778.607395614","1","1","6","380","1","right","in","Female","Right-handed","2","0","no","right","d","849.512645059","911.497099475","6","red","2"
"100","87","21","784.223186659","1","1","6","381","1","right","in","Female","Right-handed","2","0","no","right","d","727.256341772","1279.22173303","6","green","1"
"100","85","21","783.175889236","1","0","6","382","1","left","in","Female","Right-handed","2","0","no","left","d","811.84686869","670.721115978","6","red","0"
"100","85","21","785.261344004","1","1","6","383","2","left","out","Female","Right-handed","2","0","no","left","d","678.279030268","1063.25094867","6","red","2"
"100","86","21","783.96326071","1","1","6","384","3","right","in","Female","Right-handed","2","0","no","right","d","731.954782081","726.932742709","6","green","2"
"100","86","21","781.908335602","1","1","6","385","2","right","out","Female","Right-handed","2","0","no","right","s","611.629489657","775.463622205","6","green","2"
"100","86","21","776.692026485","1","1","6","386","3","right","out","Female","Right-handed","2","0","no","right","s","463.126383875","631.222466819","6","red","3"
"100","84","21","773.585441782","1","0","6","387","0","right","out","Female","Right-handed","2","0","no","right","s","723.846204173","543.732056127","6","red","1"
"100","85","21","771.953422261","1","1","6","388","1","left","out","Female","Right-handed","2","0","no","left","d","722.45366985","671.3073787","6","red","2"
"100","85","21","771.828675062","1","1","6","389","3","left","out","Female","Right-handed","2","0","no","left","s","596.850730069","935.080383419","6","red","2"
"100","85","21","771.364767283","1","1","6","390","2","right","out","Female","Right-handed","2","0","no","right","d","730.570907001","767.623480784","6","red","1"
"100","86","21","769.193391652","1","1","6","391","2","right","out","Female","Right-handed","2","0","no","right","d","526.288495139","799.303476268","6","red","1"
"100","86","21","766.694546029","1","1","6","392","1","left","in","Female","Right-handed","2","0","no","left","d","564.697042003","718.807487743","6","red","1"
"100","86","21","769.302389916","1","1","6","393","1","left","out","Female","Right-handed","2","0","no","left","s","1029.39876641","775.206089948","6","green","2"
"100","86","21","767.118582256","1","1","6","394","3","right","in","Female","Right-handed","2","0","no","right","d","708.109796618","599.011371188","6","red","1"
"100","87","21","767.276267768","1","1","6","395","0","left","in","Female","Right-handed","2","0","no","left","s","776.677840296","774.589359525","6","green","3"
"100","85","21","764.400919267","1","0","6","396","3","left","in","Female","Right-handed","2","0","no","left","s","547.110443174","671.153757341","6","green","2"
"100","85","21","763.622120871","1","1","6","397","0","left","in","Female","Right-handed","2","0","no","left","d","546.695120293","894.881297834","6","red","2"
"100","85","21","767.003408196","1","1","6","398","0","right","in","Female","Right-handed","2","0","no","right","s","1225.31506811","687.395928746","6","red","2"
"100","86","21","767.942211097","1","1","6","399","0","right","out","Female","Right-handed","2","0","no","right","s","811.869960001","831.037992903","6","green","2"
"100","86","21","764.907851863","1","1","6","400","3","right","in","Female","Right-handed","2","0","no","right","d","562.392080193","615.437952366","6","green","2"
"100","86","21","764.445434912","1","1","6","401","0","left","out","Female","Right-handed","2","0","no","left","s","739.153818917","735.171850666","6","green","3"
"100","86","21","762.648404784","1","1","6","402","2","left","out","Female","Right-handed","2","0","no","left","s","694.812408757","614.840785412","6","green","2"
"100","87","21","763.892881417","1","1","6","403","0","left","in","Female","Right-handed","2","0","no","left","s","848.291050577","831.32086146","6","green","0"
"100","85","21","762.75092914","1","0","6","404","2","right","out","Female","Right-handed","2","0","no","right","s","744.955510741","638.944265272","6","green","3"
"100","85","21","759.973486886","1","1","6","405","2","left","out","Female","Right-handed","2","0","no","left","d","514.619044687","655.370205025","6","red","3"
"100","100","21","745.605755637","1","1","7","406","2","left","in","Female","Right-handed","2","0","no","left","d","723.696431366","767.515079909","6","green","2"
"100","100","21","624.407804093","1","1","7","407","2","right","out","Female","Right-handed","2","0","no","right","d","439.32020464","567.099500458","6","green","3"
"100","100","21","595.708298162","1","1","7","408","2","right","in","Female","Right-handed","2","0","no","right","d","468.785999995","607.832572603","6","red","3"
"100","100","21","615.400709609","1","1","7","409","3","left","in","Female","Right-handed","2","0","no","left","s","573.422991761","775.532896137","6","red","2"
"100","100","21","632.843188192","1","1","7","410","1","left","in","Female","Right-handed","2","0","no","left","s","846.114053115","559.112151931","6","red","1"
"100","100","21","636.415820199","1","1","7","411","3","right","out","Female","Right-handed","2","0","no","right","s","588.742793587","719.815166886","6","red","1"
"100","100","21","636.334580631","1","1","7","412","3","left","out","Female","Right-handed","2","0","no","left","s","736.392803721","535.301482718","6","green","2"
"100","100","21","628.352389277","1","1","7","413","2","right","out","Female","Right-handed","2","0","no","right","s","593.067924374","551.886175232","6","green","1"
"100","100","21","649.592620103","1","1","7","414","3","right","in","Female","Right-handed","2","0","no","right","d","591.594891176","1047.43404224","6","green","3"
"100","100","21","659.994175858","1","1","7","415","3","right","out","Female","Right-handed","2","0","no","right","d","852.091816183","655.124539135","6","red","1"
"100","100","21","671.154252988","1","1","7","416","0","left","out","Female","Right-handed","2","0","no","left","s","645.73792132","919.772127248","6","green","1"
"100","100","21","683.247697711","1","1","7","417","0","right","in","Female","Right-handed","2","0","no","right","d","729.261757967","903.289421358","6","green","2"
"100","100","21","675.727798149","1","1","7","418","3","left","out","Female","Right-handed","2","0","no","left","s","514.904478945","656.073527865","6","red","2"
"100","100","21","665.430617209","1","1","7","419","1","right","in","Female","Right-handed","2","0","no","right","d","527.691292266","535.44323771","6","red","3"
"100","100","21","684.916713063","1","1","7","420","1","left","in","Female","Right-handed","2","0","no","left","d","604.22583815","1311.2182719","6","green","2"
"100","100","21","702.346580289","1","1","7","421","2","right","out","Female","Right-handed","2","0","no","right","d","655.765323009","1271.82385435","6","red","2"
"100","94","21","703.754877285","1","0","7","422","0","right","out","Female","Right-handed","2","0","no","right","s","637.298047245","815.277211185","6","green","2"
"100","94","21","704.820532052","1","1","7","423","3","left","in","Female","Right-handed","2","0","no","left","s","669.921900056","775.951426145","6","green","2"
"100","94","21","704.756155083","1","1","7","424","0","right","in","Female","Right-handed","2","0","no","right","s","567.654974767","839.53976452","6","red","2"
"100","90","21","701.995762744","1","0","7","425","2","right","in","Female","Right-handed","2","0","no","right","d","436.014940078","863.081676533","6","green","2"
"100","90","21","702.959120927","1","1","7","426","3","right","out","Female","Right-handed","2","0","no","right","s","508.675918585","935.776650579","6","green","2"
"100","90","21","707.791686114","1","1","7","427","1","right","out","Female","Right-handed","2","0","no","right","d","835.285831941","783.26527811","6","red","1"
"100","91","21","714.404117013","1","1","7","428","0","right","out","Female","Right-handed","2","0","no","right","d","680.858201392","1038.89699223","6","green","1"
"100","91","21","730.345826855","1","1","7","429","0","left","in","Female","Right-handed","2","0","no","left","s","898.514972149","1295.49533427","6","red","3"
"100","92","21","724.713276477","1","1","7","430","3","right","out","Female","Right-handed","2","0","no","right","s","588.122214611","590.941920223","6","red","1"
"100","92","21","720.88368892","1","1","7","431","1","left","out","Female","Right-handed","2","0","no","left","s","658.604592092","591.683407867","6","red","3"
"100","92","21","718.781753522","1","1","7","432","3","left","out","Female","Right-handed","2","0","no","left","d","625.115135841","703.147730509","6","red","2"
"100","89","21","718.035114324","1","0","7","433","1","right","out","Female","Right-handed","2","0","no","right","s","491.931511172","903.820200792","6","red","2"
"100","89","21","715.067734954","1","1","7","434","1","left","in","Female","Right-handed","2","0","no","left","d","528.484735361","735.477489821","6","green","2"
"100","90","21","721.832289093","1","1","7","435","0","right","in","Female","Right-handed","2","0","no","right","d","540.975530907","1295.03318735","6","green","3"
"100","90","21","721.552048311","1","1","7","436","1","left","out","Female","Right-handed","2","0","no","left","d","754.535518284","671.75413142","6","green","1"
"100","90","21","723.948255941","1","1","7","437","0","right","out","Female","Right-handed","2","0","no","right","s","701.180799833","895.280585082","6","green","0"
"100","90","21","719.263035764","1","1","7","438","1","left","out","Female","Right-handed","2","0","no","left","s","507.939562342","630.73241789","6","green","3"
"100","91","21","722.400789995","1","1","7","439","0","right","in","Female","Right-handed","2","0","no","right","d","660.494551734","991.398807462","6","red","2"
"100","91","21","720.618675776","1","1","7","440","2","left","out","Female","Right-handed","2","0","no","left","d","489.046700893","831.006883776","6","red","3"
"100","91","21","716.95309157","1","1","7","441","3","left","out","Female","Right-handed","2","0","no","left","d","513.63028759","663.685001167","6","red","3"
"100","89","21","720.719563555","1","0","7","442","0","right","out","Female","Right-handed","2","0","no","right","d","601.295807388","1111.32930262","6","red","3"
"100","89","21","726.220549633","1","1","7","443","0","left","in","Female","Right-handed","2","0","no","left","s","444.847687148","1414.66638187","6","red","3"
"100","87","21","733.366394696","1","0","7","444","2","right","in","Female","Right-handed","2","0","no","right","d","1194.36276962","815.454244568","6","red","1"
"100","85","21","741.093019978","1","0","7","445","3","right","in","Female","Right-handed","2","0","no","right","d","477.902898472","1606.95991348","6","red","3"
"100","85","21","742.503463071","1","1","7","446","1","left","in","Female","Right-handed","2","0","no","left","s","694.398048015","903.444325567","6","red","2"
"100","85","21","742.113542327","1","1","7","447","1","left","in","Female","Right-handed","2","0","no","left","s","701.205494706","751.048088938","6","green","1"
"100","83","21","741.256123896","1","0","7","448","2","left","in","Female","Right-handed","2","0","no","left","s","587.729020903","822.760078716","6","green","0"
"100","81","21","747.913931862","1","0","7","449","2","right","out","Female","Right-handed","2","0","no","right","s","765.140844167","1303.25850466","6","red","1"
"100","82","21","746.742934985","1","1","7","450","3","left","out","Female","Right-handed","2","0","no","left","d","735.807182424","654.630962369","6","green","1"
"100","82","21","746.126931122","1","1","7","451","2","left","out","Female","Right-handed","2","0","no","left","d","629.359767752","807.453746821","6","green","1"
"100","82","21","744.20810356","1","1","7","452","1","left","out","Female","Right-handed","2","0","no","left","s","648.841457626","663.042613732","6","red","0"
"100","81","21","742.381066788","1","0","7","453","2","left","out","Female","Right-handed","2","0","no","left","s","666.465259124","646.555417863","6","red","2"
"100","81","21","739.510592105","1","1","7","454","3","right","in","Female","Right-handed","2","0","no","right","s","548.225240343","655.23037431","6","green","0"
"100","82","21","736.385946885","1","1","7","455","3","left","in","Female","Right-handed","2","0","no","left","d","543.70575769","622.850904538","6","red","3"
"100","82","21","733.964015387","1","1","7","456","2","left","in","Female","Right-handed","2","0","no","left","d","458.399079426","767.335801538","6","green","0"
"100","82","21","744.928398187","1","1","7","457","0","right","out","Female","Right-handed","2","0","no","right","s","753.190770147","1855.03307189","6","green","1"
"100","83","21","740.648370119","1","1","7","458","1","left","in","Female","Right-handed","2","0","no","left","s","565.490164384","470.68365674","6","red","3"
"100","83","21","742.564859263","1","1","7","459","0","right","in","Female","Right-handed","2","0","no","right","d","1089.05965768","599.217910133","6","green","2"
"100","83","21","741.34806489","1","1","7","460","1","left","in","Female","Right-handed","2","0","no","left","d","736.530389447","614.751948009","6","red","2"
"100","83","21","747.972577763","1","1","7","461","2","right","in","Female","Right-handed","2","0","no","right","d","570.329076835","1654.31249471","6","green","2"
"100","84","21","748.920813189","1","1","7","462","0","left","in","Female","Right-handed","2","0","no","left","s","965.016022804","639.027971274","6","green","2"
"100","84","21","747.803657482","1","1","7","463","0","right","in","Female","Right-handed","2","0","no","right","s","793.657650793","574.593913643","6","red","1"
"100","84","21","743.928977499","1","1","7","464","3","left","out","Female","Right-handed","2","0","no","left","s","527.238125294","511.156951639","6","green","0"
"100","85","21","743.843148316","1","1","7","465","2","right","out","Female","Right-handed","2","0","no","right","d","462.673216902","1014.88523619","6","green","3"
"100","83","21","741.228603682","1","0","7","466","0","left","out","Female","Right-handed","2","0","no","left","s","521.292112779","647.419738452","6","red","0"
"100","83","21","740.079581844","1","1","7","467","1","right","in","Female","Right-handed","2","0","no","right","s","612.97359637","727.004903055","6","green","2"
"100","84","21","736.515878473","1","1","7","468","1","left","out","Female","Right-handed","2","0","no","left","s","472.529358036","558.603180956","6","green","0"
"100","84","21","734.120582163","1","1","7","469","2","right","in","Female","Right-handed","2","0","no","right","s","607.234764225","559.199065058","6","red","2"
"100","100","21","948.695437157","1","1","8","470","3","right","in","Female","Right-handed","2","0","no","right","d","1249.73444993","647.656424388","6","green","1"
"100","100","21","943.241077133","1","1","8","471","3","right","out","Female","Right-handed","2","0","no","right","d","940.335580888","935.237853329","6","red","2"
"100","100","21","805.339234874","1","1","8","472","1","right","out","Female","Right-handed","2","0","no","right","s","539.987415235","519.083685475","6","red","3"
"100","100","21","747.908672904","1","1","8","473","3","left","out","Female","Right-handed","2","0","no","left","s","663.590711649","487.643262341","6","red","0"
"100","100","21","718.375006735","1","1","8","474","1","left","out","Female","Right-handed","2","0","no","left","d","593.212245066","607.268439054","6","red","2"
"100","100","21","705.448923945","1","1","8","475","1","left","in","Female","Right-handed","2","0","no","left","d","649.851702471","631.785317518","6","green","1"
"100","100","21","690.874057426","1","1","8","476","0","left","out","Female","Right-handed","2","0","no","left","s","583.425698576","623.424018042","6","green","2"
"100","87","21","668.268245503","1","0","8","477","3","right","in","Female","Right-handed","2","0","no","right","s","437.032561314","583.022562776","6","red","3"
"100","88","21","656.026258384","1","1","8","478","1","left","in","Female","Right-handed","2","0","no","left","s","476.574827392","639.605895468","6","red","3"
"100","90","21","661.251898619","1","1","8","479","1","left","in","Female","Right-handed","2","0","no","left","s","897.32865606","519.236665409","6","red","2"
"100","90","21","660.669106882","1","1","8","480","2","left","in","Female","Right-handed","2","0","no","left","d","510.901985082","798.780393938","6","red","2"
"100","91","21","660.484689819","1","1","8","481","1","left","in","Female","Right-handed","2","0","no","left","d","493.447840577","823.464363693","6","red","3"
"100","92","21","666.417349587","1","1","8","482","2","right","in","Female","Right-handed","2","0","no","right","d","860.122781631","615.095751969","6","red","1"
"100","92","21","690.151789631","1","1","8","483","0","right","in","Female","Right-handed","2","0","no","right","s","765.666171486","1231.73284893","6","red","1"
"100","93","21","697.224114427","1","1","8","484","2","left","in","Female","Right-handed","2","0","no","left","s","721.200966244","871.272356879","6","red","3"
"100","93","21","690.636940533","1","1","8","485","2","left","out","Female","Right-handed","2","0","no","left","d","536.869446861","646.789217384","6","red","2"
"100","94","21","685.59786271","1","1","8","486","0","left","in","Female","Right-handed","2","0","no","left","s","538.48199006","671.463245048","6","green","0"
"100","94","21","682.767911588","1","1","8","487","2","right","out","Female","Right-handed","2","0","no","right","s","550.222318009","719.095166988","6","green","3"
"100","94","21","675.744666076","1","1","8","488","1","left","out","Female","Right-handed","2","0","no","left","d","499.796026756","598.856466978","6","green","3"
"100","95","21","669.224398151","1","1","8","489","1","left","out","Female","Right-handed","2","0","no","left","s","603.371459652","487.307155484","6","green","2"
"100","95","21","668.231851299","1","1","8","490","0","left","out","Female","Right-handed","2","0","no","left","d","633.873798289","662.888030234","6","red","1"
"100","95","21","664.568979984","1","1","8","491","3","left","in","Female","Right-handed","2","0","no","left","s","608.621846433","566.675518336","6","green","2"
"100","95","21","656.618725424","1","1","8","492","2","right","out","Female","Right-handed","2","0","no","right","s","548.153721421","415.272528781","6","green","2"
"100","95","21","647.607375397","1","1","8","493","3","left","out","Female","Right-handed","2","0","no","left","s","553.814299679","326.878349843","6","green","0"
"100","96","21","638.64084545","1","1","8","494","2","left","out","Female","Right-handed","2","0","no","left","s","479.450016292","367.438237157","6","red","3"
"100","92","21","641.216557565","1","0","8","495","0","right","out","Female","Right-handed","2","0","no","right","s","692.104311148","719.114409748","6","red","2"
"100","92","21","635.161281402","1","1","8","496","1","left","out","Female","Right-handed","2","0","no","left","s","484.629846289","470.818356053","6","red","2"
"100","92","21","634.485431674","1","1","8","497","2","right","out","Female","Right-handed","2","0","no","right","s","401.300682221","831.174295778","6","green","2"
"100","93","21","633.360718876","1","1","8","498","3","right","in","Female","Right-handed","2","0","no","right","s","644.901502732","558.83601834","6","red","1"
"100","93","21","629.966080361","1","1","8","499","1","left","out","Female","Right-handed","2","0","no","left","s","592.597118204","470.446008667","6","red","2"
"100","93","21","635.776808867","1","1","8","500","0","right","in","Female","Right-handed","2","0","no","right","s","733.136928907","887.060399171","6","red","1"
"100","93","21","635.384199522","1","1","8","501","0","right","in","Female","Right-handed","2","0","no","right","s","647.813894298","598.612725365","6","green","3"
"100","93","21","631.051123657","1","1","8","502","1","left","in","Female","Right-handed","2","0","no","left","s","490.366112732","494.419279192","6","green","1"
"100","91","21","630.05036113","1","0","8","503","2","right","in","Female","Right-handed","2","0","no","right","s","562.95813802","631.092257484","6","red","0"
"100","91","21","634.292630683","1","1","8","504","2","left","out","Female","Right-handed","2","0","no","left","d","534.593669903","1022.46592107","6","green","2"
"100","91","21","633.622889639","1","1","8","505","3","left","out","Female","Right-handed","2","0","no","left","d","525.176905097","695.187001131","6","green","3"
"100","91","21","643.503520627","1","1","8","506","0","left","in","Female","Right-handed","2","0","no","left","d","599.752858833","1398.65961355","6","green","2"
"100","92","21","639.251828704","1","1","8","507","1","right","in","Female","Right-handed","2","0","no","right","s","565.350975095","398.527479943","6","green","2"
"100","92","21","634.436591425","1","1","8","508","1","right","in","Female","Right-handed","2","0","no","right","s","487.912981678","415.002168017","6","red","0"
"100","90","21","630.229596582","1","0","8","509","3","left","in","Female","Right-handed","2","0","no","left","s","517.590126669","414.723468726","6","green","3"
"100","90","21","628.132185332","1","1","8","510","3","right","out","Female","Right-handed","2","0","no","right","d","474.257678502","614.213792183","6","red","3"
"97","88","21","630.054362627","0","0","8","511","1","right","out","Female","Right-handed","2","0","no","left","s","663.789874204","753.937389194","6","green","1"
"97","88","21","629.353234165","1","1","8","512","0","right","in","Female","Right-handed","2","0","no","right","s","745.405791301","454.405886231","6","red","3"
"97","86","21","625.84663766","1","0","8","513","3","right","out","Female","Right-handed","2","0","no","right","s","623.045897829","327.080078099","6","green","1"
"97","86","21","625.432876553","1","1","8","514","3","left","in","Female","Right-handed","2","0","no","left","s","687.702530037","526.75224563","6","red","2"
"97","86","21","624.820132494","1","1","8","515","0","right","out","Female","Right-handed","2","0","no","right","d","428.262994634","766.230305037","6","green","0"
"97","87","21","630.820736696","1","1","8","516","0","right","in","Female","Right-handed","2","0","no","right","d","718.796583513","1094.90047645","6","green","3"
"97","87","21","628.771433761","1","1","8","517","2","right","out","Female","Right-handed","2","0","no","right","s","578.384737157","486.523654482","6","red","0"
"97","87","21","634.411944297","1","1","8","518","3","left","in","Female","Right-handed","2","0","no","left","d","636.180042949","1174.13285714","6","red","2"
"98","88","21","644.377984231","1","1","8","519","0","right","out","Female","Right-handed","2","0","no","right","s","378.726360271","1886.70152172","6","red","3"
"98","88","21","655.324780166","1","1","8","520","3","left","in","Female","Right-handed","2","0","no","left","s","672.263423108","1733.0657307","6","green","2"
"98","88","21","658.198637721","1","1","8","521","1","right","out","Female","Right-handed","2","0","no","right","d","802.807903386","806.722842695","6","green","1"
"98","86","21","658.023294364","1","0","8","522","0","right","out","Female","Right-handed","2","0","no","right","s","739.342077244","558.468802356","6","red","2"
"98","87","21","656.410195968","1","1","8","523","2","left","in","Female","Right-handed","2","0","no","left","d","526.873795724","614.958166242","6","green","1"
"98","85","21","656.296542694","1","0","8","524","0","right","out","Female","Right-handed","2","0","no","right","s","581.657609741","718.660922062","6","green","2"
"98","85","21","654.288383989","1","1","8","525","3","right","in","Female","Right-handed","2","0","no","right","d","529.33334103","558.345969412","6","green","2"
"98","85","21","653.358712169","1","1","8","526","2","right","out","Female","Right-handed","2","0","no","right","d","531.805714842","670.788465634","6","red","2"
"98","86","21","655.420015017","1","1","8","527","1","left","out","Female","Right-handed","2","0","no","left","s","827.37545445","718.453100265","6","green","0"
"98","86","21","654.269929617","1","1","8","528","0","left","in","Female","Right-handed","2","0","no","left","s","569.152061413","605.977891352","6","red","1"
"98","86","21","660.367207431","1","1","8","529","2","left","out","Female","Right-handed","2","0","no","left","d","993.655341662","1046.55785528","6","green","3"
"98","86","21","665.002635942","1","1","8","530","2","right","in","Female","Right-handed","2","0","no","right","d","1120.15306973","766.10362354","6","green","1"
"98","87","21","666.468034322","1","1","8","531","0","right","in","Female","Right-handed","2","0","no","right","s","824.911419166","686.803251769","6","green","2"
"98","87","21","667.117056676","1","1","8","532","3","left","out","Female","Right-handed","2","0","no","left","s","896.280887836","518.431997372","6","red","1"
"98","87","21","670.324860466","1","1","8","533","2","right","in","Female","Right-handed","2","0","no","right","d","762.933699715","981.899298794","6","green","1"
dis_reply=Yes
dis_loc=3
tar_loc=0
