"acc_1","acc_2","age","avg_rt","correct_1","correct_2","count_block_loop","count_trial_sequence","cue_position","detection","dis_shape","gender","hand","high_loc","low_loc","practice","response_keyboard_response_1","response_keyboard_response_2","response_time_keyboard_response_1","response_time_keyboard_response_2","subject_nr","tar_color","tar_position"
"0","100","20","2254.19283682","0","1","0","0","3","right","out","Female","Right-handed","0","1","yes","None","s","3000.10262805","1508.28304559","0","red","0"
"50","50","20","2127.41472571","1","0","0","1","3","left","in","Female","Right-handed","0","1","yes","left","None","1001.14815128","3000.12507793","0","red","3"
"33","33","20","2251.39846751","0","0","0","2","1","right","out","Female","Right-handed","0","1","yes","escape","None","1998.63889552","3000.09300667","0","red","2"
"50","50","20","2283.05833827","1","1","0","3","1","right","in","Female","Right-handed","0","1","yes","right","s","2730.10555295","2025.97034819","0","red","1"
"60","40","20","2225.74796604","1","0","0","4","0","left","in","Female","Right-handed","0","1","yes","left","d","1735.55093302","2257.46202121","0","green","3"
"66","33","20","2055.36392975","1","0","0","5","1","left","in","Female","Right-handed","0","1","yes","left","d","1284.96281016","1121.92468641","0","green","0"
"71","28","20","2109.79913675","1","0","0","6","2","right","out","Female","Right-handed","0","1","yes","right","s","2207.57548934","2665.24526821","0","red","1"
"75","37","20","2044.55706937","1","1","0","7","3","right","in","Female","Right-handed","0","1","yes","right","s","1197.9473749","1977.77782054","0","green","1"
"77","44","20","1940.64415991","1","1","0","8","2","left","in","Female","Right-handed","0","1","yes","left","d","857.352465768","1361.32930262","0","red","1"
"80","50","20","1842.02427731","1","1","0","9","2","right","out","Female","Right-handed","0","1","yes","right","s","802.986861045","1105.90380673","0","red","0"
"81","54","20","1822.56552276","1","1","0","10","3","left","out","Female","Right-handed","0","1","yes","left","s","670.5264434","2585.42951121","0","green","0"
"83","50","20","1792.09092941","1","0","0","11","0","right","out","Female","Right-handed","0","1","yes","right","s","1199.92039912","1713.82040605","0","green","1"
"84","46","20","1875.94774288","1","0","0","12","2","right","out","Female","Right-handed","0","1","yes","right","None","2764.36568169","3000.09332738","0","red","2"
"85","50","20","1842.64630178","1","1","0","13","1","left","out","Female","Right-handed","0","1","yes","left","s","1937.6355011","881.819633772","0","green","2"
"86","53","20","1819.21740127","1","1","0","14","0","right","out","Female","Right-handed","0","1","yes","right","d","1197.22737501","1785.19821325","0","red","0"
"87","56","20","1776.03163437","1","1","0","15","3","left","in","Female","Right-handed","0","1","yes","left","d","876.758467455","1379.73179443","0","red","2"
"88","58","20","1754.92728765","1","1","0","16","1","right","out","Female","Right-handed","0","1","yes","right","s","1065.39619558","1769.11928458","0","red","1"
"88","55","20","1744.72606757","1","0","0","17","0","right","in","Female","Right-handed","0","1","yes","right","s","1188.85324702","1953.75740525","0","green","2"
"89","57","20","1719.17483876","1","1","0","18","1","left","out","Female","Right-handed","0","1","yes","left","s","909.244413826","1609.26102674","0","red","0"
"90","60","20","1694.85394906","1","1","0","19","3","left","in","Female","Right-handed","0","1","yes","left","s","927.753382235","1537.76070731","0","green","2"
"90","57","20","1662.85450049","1","0","0","20","2","right","in","Female","Right-handed","0","1","yes","right","s","836.343542258","1209.38751581","0","red","3"
"90","59","20","1654.83981919","1","1","0","21","2","left","in","Female","Right-handed","0","1","yes","left","s","1460.02573398","1513.0372899","0","red","0"
"100","100","20","929.68904343","1","1","1","22","0","left","in","Female","Right-handed","0","1","no","left","s","1257.72660914","601.651477717","0","red","2"
"100","50","20","761.234002854","1","0","1","23","1","right","in","Female","Right-handed","0","1","no","right","s","504.275741039","681.282183516","0","green","0"
"100","66","20","721.765313602","1","1","1","24","0","left","in","Female","Right-handed","0","1","no","left","s","603.822381638","681.833488557","0","green","0"
"100","75","20","824.307757783","1","1","1","25","3","left","out","Female","Right-handed","0","1","no","left","s","1414.46657789","849.403602759","0","red","1"
"100","80","20","864.056546772","1","1","1","26","3","left","in","Female","Right-handed","0","1","no","left","s","972.064645408","1074.03876005","0","red","1"
"100","83","20","838.485876029","1","1","1","27","0","left","out","Female","Right-handed","0","1","no","left","d","603.683833773","817.581210858","0","green","0"
"100","85","20","890.8626538","1","1","1","28","0","left","out","Female","Right-handed","0","1","no","left","d","689.188071028","1721.05856983","0","red","1"
"100","75","20","873.598746302","1","0","1","29","3","right","out","Female","Right-handed","0","1","no","right","d","567.653691916","937.849095719","0","red","0"
"100","77","20","847.615540652","1","1","1","30","0","right","in","Female","Right-handed","0","1","no","right","d","518.177992955","761.321797941","0","green","0"
"90","80","20","869.039715772","0","1","1","31","3","left","in","Female","Right-handed","0","1","no","right","d","1134.89366451","988.820919189","0","red","3"
"90","72","20","891.792149864","1","0","1","32","2","right","in","Female","Right-handed","0","1","no","right","d","1077.38956581","1161.24341577","0","red","0"
"91","75","20","884.019401833","1","1","1","33","2","left","out","Female","Right-handed","0","1","no","left","s","796.008474512","801.029872459","0","green","2"
"92","69","20","888.06013451","1","0","1","34","3","right","in","Female","Right-handed","0","1","no","right","d","1007.61371829","865.484134987","0","red","2"
"92","71","20","898.670953037","1","1","1","35","1","left","out","Female","Right-handed","0","1","no","left","d","888.089886775","1185.13330101","0","red","3"
"93","73","20","900.702296559","1","1","1","36","1","right","out","Female","Right-handed","0","1","no","right","d","928.556767422","929.725444315","0","red","2"
"93","68","20","895.332460354","1","0","1","37","2","right","out","Female","Right-handed","0","1","no","right","s","652.33914978","977.230684759","0","green","0"
"94","70","20","890.951152973","1","1","1","38","2","left","in","Female","Right-handed","0","1","no","left","s","799.838424968","841.862044814","0","green","3"
"94","72","20","915.275076665","1","1","1","39","1","left","in","Female","Right-handed","0","1","no","left","d","1352.29867584","1305.26488299","0","green","0"
"94","68","20","913.628648579","1","0","1","40","1","right","in","Female","Right-handed","0","1","no","right","s","630.975197366","1137.01068871","0","green","3"
"95","70","20","895.672503958","1","1","1","41","2","left","in","Female","Right-handed","0","1","no","left","s","659.503228935","449.508283366","0","red","0"
"95","66","20","886.074765205","1","0","1","42","0","right","out","Female","Right-handed","0","1","no","right","d","491.051154951","897.188825344","0","green","0"
"95","63","20","866.646609006","1","0","1","43","1","left","out","Female","Right-handed","0","1","no","left","s","555.597462009","361.713195658","0","green","0"
"95","65","20","855.328810783","1","1","1","44","2","right","out","Female","Right-handed","0","1","no","right","s","587.298624527","625.375875225","0","red","0"
"95","66","20","850.333615988","1","1","1","45","1","left","in","Female","Right-handed","0","1","no","left","d","549.899681084","920.988590327","0","red","0"
"96","64","20","842.52064748","1","0","1","46","3","right","in","Female","Right-handed","0","1","no","right","d","524.632976443","785.385830146","0","green","0"
"96","65","20","833.084836538","1","1","1","47","0","right","in","Female","Right-handed","0","1","no","right","s","657.173251539","537.205874429","0","green","3"
"96","66","20","832.684668244","1","1","1","48","1","left","out","Female","Right-handed","0","1","no","left","s","883.765076702","760.795508482","0","green","0"
"96","67","20","834.210362162","1","1","1","49","0","right","out","Female","Right-handed","0","1","no","right","d","957.35002835","793.458167525","0","red","2"
"96","68","20","831.440133388","1","1","1","50","2","right","out","Female","Right-handed","0","1","no","right","d","810.91840557","696.829049895","0","green","2"
"96","70","20","827.258581415","1","1","1","51","2","right","out","Female","Right-handed","0","1","no","right","s","514.544318639","897.442829762","0","green","3"
"96","70","20","830.444555528","1","1","1","52","3","left","in","Female","Right-handed","0","1","no","left","d","1147.04610822","705.001449622","0","green","0"
"96","71","20","828.125335746","1","1","1","53","0","right","in","Female","Right-handed","0","1","no","right","d","711.687025507","800.772019489","0","red","2"
"96","72","20","826.251866839","1","1","1","54","1","right","in","Female","Right-handed","0","1","no","right","d","563.181033311","969.420690328","0","red","2"
"97","73","20","824.435906068","1","1","1","55","1","right","out","Female","Right-handed","0","1","no","right","s","551.937489256","977.080911953","0","red","3"
"97","71","20","829.42042826","1","0","1","56","3","right","in","Female","Right-handed","0","1","no","right","s","852.356083406","1145.43228216","0","green","0"
"97","72","20","824.590644156","1","1","1","57","1","right","out","Female","Right-handed","0","1","no","right","d","582.002055126","729.094345965","0","red","0"
"97","72","20","828.919651184","1","1","1","58","0","right","out","Female","Right-handed","0","1","no","right","d","1032.74187507","936.785933287","0","red","1"
"97","73","20","826.824052348","1","1","1","59","3","right","in","Female","Right-handed","0","1","no","right","d","633.287535567","865.286255283","0","red","3"
"97","74","20","830.081150826","1","1","1","60","0","left","out","Female","Right-handed","0","1","no","left","s","914.779914152","992.921871832","0","green","3"
"97","75","20","828.238307779","1","1","1","61","3","left","out","Female","Right-handed","0","1","no","left","d","647.367783002","865.36707487","0","red","2"
"97","75","20","827.550790402","1","1","1","62","2","left","out","Female","Right-handed","0","1","no","left","d","647.105760769","952.994429863","0","green","2"
"97","76","20","837.231981203","1","1","1","63","2","right","in","Female","Right-handed","0","1","no","right","s","723.691299963","1744.63030811","0","green","0"
"97","76","20","831.985765907","1","1","1","64","0","right","out","Female","Right-handed","0","1","no","right","d","542.182372606","681.107074408","0","red","0"
"97","77","20","827.321232145","1","1","1","65","3","right","out","Female","Right-handed","0","1","no","right","s","564.746752463","688.745808286","0","green","3"
"97","77","20","843.622179974","1","1","1","66","0","left","in","Female","Right-handed","0","1","no","left","d","1224.36062726","1897.36714158","0","red","3"
"97","76","20","843.694136737","1","0","1","67","3","right","in","Female","Right-handed","0","1","no","right","d","740.944678349","952.919703815","0","red","2"
"97","76","20","841.360047632","1","1","1","68","1","left","out","Female","Right-handed","0","1","no","left","s","683.544169829","784.43972783","0","red","3"
"97","77","20","840.240635244","1","1","1","69","1","right","out","Female","Right-handed","0","1","no","right","d","774.129778298","801.12672768","0","green","2"
"97","77","20","840.259024815","1","1","1","70","1","left","in","Female","Right-handed","0","1","no","left","d","617.612384125","1064.67106428","0","green","1"
"98","78","20","842.226246097","1","1","1","71","2","right","in","Female","Right-handed","0","1","no","right","s","588.234143326","1289.00603453","0","green","2"
"98","78","20","840.530370431","1","1","1","72","2","left","out","Female","Right-handed","0","1","no","left","d","662.738578139","848.734596171","0","green","1"
"98","78","20","845.758222431","1","1","1","73","3","left","in","Female","Right-handed","0","1","no","left","s","1008.35328166","1216.40406715","0","red","0"
"98","79","20","847.913835016","1","1","1","74","0","left","out","Female","Right-handed","0","1","no","left","s","774.99666459","1145.0147143","0","red","2"
"98","77","20","846.935009197","1","0","1","75","3","right","in","Female","Right-handed","0","1","no","right","d","653.616548259","936.497933328","0","red","3"
"98","78","20","843.555824527","1","1","1","76","1","left","out","Female","Right-handed","0","1","no","left","d","624.975946552","697.183758086","0","red","2"
"98","78","20","848.076216055","1","1","1","77","0","left","in","Female","Right-handed","0","1","no","left","s","664.682417506","1528.71308277","0","green","3"
"98","78","20","847.010262107","1","1","1","78","2","right","out","Female","Right-handed","0","1","no","right","d","597.324422653","977.309259359","0","green","3"
"98","79","20","848.722851453","1","1","1","79","1","left","out","Female","Right-handed","0","1","no","left","d","907.890365022","984.790523325","0","green","1"
"98","79","20","846.032554052","1","1","1","80","2","left","in","Female","Right-handed","0","1","no","left","s","571.472096715","808.518512817","0","red","3"
"98","80","20","844.832715213","1","1","1","81","2","left","in","Female","Right-handed","0","1","no","left","s","915.01211011","633.072337379","0","green","0"
"98","80","20","841.083909176","1","1","1","82","3","left","out","Female","Right-handed","0","1","no","left","s","735.727645688","496.583448148","0","red","2"
"98","80","20","841.827035406","1","1","1","83","2","right","in","Female","Right-handed","0","1","no","right","s","886.144443844","888.171027076","0","red","1"
"98","80","20","840.604008721","1","1","1","84","0","left","in","Female","Right-handed","0","1","no","left","d","688.702191364","840.850517117","0","green","0"
"98","81","20","846.536692253","1","1","1","85","3","right","out","Female","Right-handed","0","1","no","right","s","1632.25740654","808.334103043","0","green","0"
"100","100","20","994.905319211","1","1","2","86","3","right","in","Female","Right-handed","0","1","no","right","d","1148.38829065","841.42234777","0","red","0"
"100","100","20","900.173778149","1","1","2","87","2","right","out","Female","Right-handed","0","1","no","right","s","705.814135476","905.070338696","0","green","2"
"100","66","20","912.956769645","1","0","2","88","1","right","out","Female","Right-handed","0","1","no","right","d","515.537886427","1361.50761885","0","red","0"
"100","50","20","888.071686333","1","0","2","89","1","left","out","Female","Right-handed","0","1","no","left","d","745.896481654","880.936391137","0","red","3"
"100","60","20","825.517501931","1","1","2","90","0","right","in","Female","Right-handed","0","1","no","right","s","589.761056248","560.840472397","0","red","0"
"100","66","20","794.888145049","1","1","2","91","1","right","in","Female","Right-handed","0","1","no","right","s","706.220157688","577.262563596","0","green","2"
"100","71","20","783.830075992","1","1","2","92","2","right","out","Female","Right-handed","0","1","no","right","s","458.000433604","976.962889697","0","red","3"
"100","75","20","767.866340438","1","1","2","93","1","right","in","Female","Right-handed","0","1","no","right","d","470.650302625","841.590080487","0","green","0"
"100","77","20","752.119536446","1","1","2","94","2","right","in","Female","Right-handed","0","1","no","right","d","499.007073638","753.283135389","0","red","0"
"100","80","20","753.075473949","1","1","2","95","3","left","in","Female","Right-handed","0","1","no","left","d","666.739468439","856.618354514","0","red","0"
"100","72","20","783.960845534","1","0","2","96","0","right","out","Female","Right-handed","0","1","no","right","s","808.394717735","1377.23440503","0","green","2"
"100","75","20","789.618983217","1","1","2","97","1","left","in","Female","Right-handed","0","1","no","left","d","478.860867155","1224.8561283","0","green","0"
"100","76","20","783.448010309","1","1","2","98","1","right","out","Female","Right-handed","0","1","no","right","d","721.41103303","697.38163779","0","red","2"
"100","78","20","775.28199576","1","1","2","99","0","right","in","Female","Right-handed","0","1","no","right","d","585.12226849","753.125344767","0","red","2"
"100","80","20","812.841077902","1","1","2","100","3","left","out","Female","Right-handed","0","1","no","left","d","820.725477668","1856.61097812","0","red","2"
"100","75","20","810.056360037","1","0","2","101","0","left","in","Female","Right-handed","0","1","no","left","d","535.318480488","1001.25270361","0","green","3"
"100","76","20","800.681531358","1","1","2","102","2","left","in","Female","Right-handed","0","1","no","left","d","636.658546222","664.709998795","0","green","0"
"100","77","20","799.748509613","1","1","2","103","0","left","out","Female","Right-handed","0","1","no","left","d","782.41186175","785.362418123","0","green","1"
"100","78","20","799.159028979","1","1","2","104","3","right","out","Female","Right-handed","0","1","no","right","s","536.093322249","1041.00343291","0","red","2"
"100","80","20","782.934751653","1","1","2","105","1","right","in","Female","Right-handed","0","1","no","right","s","532.653358376","416.69360653","0","green","2"
"100","80","20","799.328995832","1","1","2","106","3","left","in","Female","Right-handed","0","1","no","left","d","653.275951425","1601.15180741","0","red","2"
"100","81","20","789.142045848","1","1","2","107","3","left","in","Female","Right-handed","0","1","no","left","s","693.708515819","456.723676547","0","red","1"
"100","82","20","779.719207152","1","1","2","108","0","right","out","Female","Right-handed","0","1","no","right","s","559.465256558","585.368255093","0","green","0"
"100","83","20","779.47791562","1","1","2","109","2","left","out","Female","Right-handed","0","1","no","left","d","810.906539202","736.949881593","0","green","1"
"100","84","20","774.064898129","1","1","2","110","0","right","out","Female","Right-handed","0","1","no","right","d","511.652773394","776.652183284","0","green","0"
"100","84","20","779.359423603","1","1","2","111","3","right","out","Female","Right-handed","0","1","no","right","s","678.116428955","1145.32869198","0","red","3"
"100","85","20","774.709145699","1","1","2","112","2","left","in","Female","Right-handed","0","1","no","left","s","570.787054498","736.816785844","0","green","2"
"100","85","20","765.21743722","1","1","2","113","2","left","in","Female","Right-handed","0","1","no","left","s","513.4910983","504.391518305","0","red","3"
"100","86","20","760.676363734","1","1","2","114","2","right","out","Female","Right-handed","0","1","no","right","s","569.990083566","697.062528703","0","green","0"
"100","86","20","766.842315639","1","1","2","115","1","left","out","Female","Right-handed","0","1","no","left","s","546.598585786","1344.71125599","0","red","0"
"100","83","20","786.274074864","1","0","2","116","2","right","in","Female","Right-handed","0","1","no","right","d","593.276066884","2145.17763632","0","red","3"
"100","81","20","791.878296926","1","0","2","117","1","right","out","Female","Right-handed","0","1","no","right","s","762.697013781","1168.52134792","0","green","2"
"100","81","20","787.814455837","1","1","2","118","1","left","out","Female","Right-handed","0","1","no","left","d","642.222589971","673.320491998","0","red","3"
"100","82","20","793.655132255","1","1","2","119","3","left","out","Female","Right-handed","0","1","no","left","d","507.950787285","1464.84412082","0","red","3"
"100","82","20","794.107519007","1","1","2","120","3","left","out","Female","Right-handed","0","1","no","left","d","490.501132757","1128.47620441","0","green","2"
"100","83","20","795.191632757","1","1","2","121","2","right","in","Female","Right-handed","0","1","no","right","s","841.158721974","825.112505998","0","green","0"
"100","83","20","793.149997341","1","1","2","122","1","right","out","Female","Right-handed","0","1","no","right","s","486.647128853","952.655115881","0","green","0"
"100","81","20","809.49261419","1","0","2","123","3","left","out","Female","Right-handed","0","1","no","left","s","571.276462002","2257.06241325","0","green","0"
"100","82","20","806.242628954","1","1","2","124","0","left","out","Female","Right-handed","0","1","no","left","d","516.765574448","848.720805526","0","green","3"
"100","82","20","801.608157455","1","1","2","125","3","left","in","Female","Right-handed","0","1","no","left","s","473.389830075","768.337707854","0","green","3"
"100","82","20","799.22383002","1","1","2","126","2","right","out","Female","Right-handed","0","1","no","right","d","606.89160169","800.809863582","0","green","0"
"100","83","20","802.649448429","1","1","2","127","1","right","in","Female","Right-handed","0","1","no","right","s","557.648098686","1328.55150773","0","red","0"
"100","83","20","797.706804616","1","1","2","128","1","left","out","Female","Right-handed","0","1","no","left","d","499.103287433","681.128241442","0","green","3"
"100","84","20","799.958517277","1","1","2","129","0","left","in","Female","Right-handed","0","1","no","left","d","464.779336869","1328.78498654","0","red","3"
"100","82","20","794.55792327","1","0","2","130","2","left","out","Female","Right-handed","0","1","no","left","s","545.390461235","568.473112735","0","red","0"
"100","82","20","797.556700881","1","1","2","131","2","right","in","Female","Right-handed","0","1","no","right","d","943.938787501","921.064599224","0","green","1"
"100","80","20","796.875606454","1","0","2","132","0","left","out","Female","Right-handed","0","1","no","left","d","418.602488216","1112.48803742","0","red","0"
"100","81","20","802.18313176","1","1","2","133","2","left","out","Female","Right-handed","0","1","no","left","s","630.141023766","1473.13261853","0","green","2"
"100","81","20","797.377681897","1","1","2","134","1","left","in","Female","Right-handed","0","1","no","left","d","460.674535672","672.7576413","0","green","1"
"100","82","20","800.968090374","1","1","2","135","0","right","in","Female","Right-handed","0","1","no","right","s","449.400523916","1504.39568757","0","red","0"
"100","82","20","801.24878714","1","1","2","136","0","right","in","Female","Right-handed","0","1","no","right","d","765.775855212","864.791395665","0","green","3"
"100","82","20","802.886","1","1","2","137","2","right","in","Female","Right-handed","0","1","no","right","s","828.343044514","944.424667165","0","green","2"
"100","83","20","807.765591464","1","1","2","138","3","left","in","Female","Right-handed","0","1","no","left","s","683.037443843","1439.97125132","0","green","0"
"100","81","20","803.06796274","1","0","2","139","3","left","in","Female","Right-handed","0","1","no","left","d","539.478764975","568.708515819","0","red","0"
"100","81","20","806.843101191","1","1","2","140","0","left","out","Female","Right-handed","0","1","no","left","d","589.183452766","1432.21770231","0","green","1"
"100","80","20","808.512800123","1","0","2","141","2","left","out","Female","Right-handed","0","1","no","left","d","847.885028364","952.807454389","0","red","3"
"100","80","20","808.253961454","1","1","2","142","1","right","out","Female","Right-handed","0","1","no","right","s","699.277049545","888.240942433","0","red","3"
"100","81","20","807.618145232","1","1","2","143","0","right","in","Female","Right-handed","0","1","no","right","s","773.881546707","768.871694414","0","green","2"
"100","81","20","810.403330185","1","1","2","144","3","left","in","Female","Right-handed","0","1","no","left","s","1031.46255231","912.425562594","0","red","1"
"100","81","20","809.955059606","1","1","2","145","0","right","out","Female","Right-handed","0","1","no","right","d","711.041430943","855.97275995","0","red","2"
"100","80","20","810.277774168","1","0","2","146","1","left","in","Female","Right-handed","0","1","no","left","s","554.629551234","1104.65174455","0","green","1"
"100","80","20","812.905339406","1","1","2","147","3","right","in","Female","Right-handed","0","1","no","right","d","730.208180994","1216.16545694","0","red","0"
"100","80","20","817.647947087","1","1","2","148","3","left","in","Female","Right-handed","0","1","no","left","s","974.642533682","1248.73671287","0","red","3"
"100","79","20","816.565260835","1","0","2","149","0","right","out","Female","Right-handed","0","1","no","right","s","544.290737562","952.421316359","0","red","0"
"100","100","20","949.739196474","1","1","3","150","0","left","out","Female","Right-handed","0","1","no","left","d","930.719974242","968.758418707","0","red","1"
"100","100","20","830.765948399","1","1","3","151","0","left","in","Female","Right-handed","0","1","no","left","d","654.376957951","769.208442696","0","green","0"
"100","100","20","821.345254864","1","1","3","152","0","right","in","Female","Right-handed","0","1","no","right","d","923.943315964","681.064419625","0","red","2"
"100","100","20","779.528454588","1","1","3","153","1","left","in","Female","Right-handed","0","1","no","left","d","555.681809436","752.474298088","0","red","0"
"100","80","20","774.044468733","1","0","3","154","0","left","out","Female","Right-handed","0","1","no","left","d","743.08864241","761.128408212","0","green","3"
"100","83","20","819.733406541","1","1","3","155","2","left","out","Female","Right-handed","0","1","no","left","s","1231.61675095","864.739440214","0","green","2"
"100","85","20","812.159632247","1","1","3","156","0","left","in","Female","Right-handed","0","1","no","left","d","812.270209386","721.163763575","0","green","1"
"100","75","20","828.994812793","1","0","3","157","0","left","in","Female","Right-handed","0","1","no","left","s","654.854819797","1238.82733344","0","green","2"
"100","66","20","809.383118484","1","0","3","158","3","right","out","Female","Right-handed","0","1","no","right","d","608.521142662","696.457985361","0","red","0"
"100","70","20","807.288002524","1","1","3","159","2","left","in","Female","Right-handed","0","1","no","left","d","728.00071583","848.863201943","0","green","0"
"100","72","20","789.230358449","1","1","3","160","1","right","in","Female","Right-handed","0","1","no","right","d","520.679551619","696.628283777","0","red","0"
"100","75","20","762.991788794","1","1","3","161","3","right","in","Female","Right-handed","0","1","no","right","s","507.348168217","441.386876952","0","green","3"
"100","76","20","766.054887552","1","1","3","162","1","left","out","Female","Right-handed","0","1","no","left","s","588.797956163","1016.82618914","0","red","3"
"100","78","20","753.696877615","1","1","3","163","2","right","out","Female","Right-handed","0","1","no","right","s","497.611652901","688.47384396","0","red","0"
"100","73","20","761.693610805","1","0","3","164","2","right","in","Female","Right-handed","0","1","no","right","s","778.166267699","969.129483243","0","green","2"
"100","75","20","754.15796934","1","1","3","165","3","left","in","Female","Right-handed","0","1","no","left","s","625.674137988","656.572556747","0","green","3"
"100","76","20","762.603261927","1","1","3","166","1","left","out","Female","Right-handed","0","1","no","left","d","627.286681189","1168.16920543","0","red","3"
"100","77","20","759.17472475","1","1","3","167","0","right","in","Female","Right-handed","0","1","no","right","d","560.848490213","840.93069528","0","green","0"
"100","73","20","755.687881032","1","0","3","168","3","right","out","Female","Right-handed","0","1","no","right","d","497.50966628","888.339721929","0","green","3"
"100","75","20","766.401317038","1","1","3","169","0","right","in","Female","Right-handed","0","1","no","right","d","490.894005752","1449.01919658","0","red","0"
"100","76","20","773.719044662","1","1","3","170","0","right","in","Female","Right-handed","0","1","no","right","d","759.560764786","1080.58642949","0","green","2"
"100","77","20","778.30566108","1","1","3","171","1","right","in","Female","Right-handed","0","1","no","right","s","628.196222262","1121.05298943","0","green","0"
"100","73","20","774.781828946","1","0","3","172","3","left","in","Female","Right-handed","0","1","no","left","s","729.704662135","664.810381853","0","red","0"
"100","75","20","773.405208245","1","1","3","173","1","left","out","Female","Right-handed","0","1","no","left","s","715.192735473","768.293128795","0","green","2"
"100","76","20","774.624791857","1","1","3","174","1","right","in","Female","Right-handed","0","1","no","right","s","422.802861783","1184.98673532","0","red","3"
"100","76","20","772.428477872","1","1","3","175","0","left","in","Female","Right-handed","0","1","no","left","d","578.584220424","856.457036052","0","red","0"
"100","74","20","777.84448007","1","0","3","176","3","right","out","Female","Right-handed","0","1","no","right","d","725.123281944","1112.19779247","0","green","2"
"100","75","20","785.124466517","1","1","3","177","0","right","out","Female","Right-handed","0","1","no","right","d","538.740163743","1424.62803747","0","green","3"
"100","75","20","775.65024379","1","1","3","178","0","left","out","Female","Right-handed","0","1","no","left","s","492.374736054","528.369278807","0","red","0"
"100","76","20","769.287535781","1","1","3","179","2","left","in","Female","Right-handed","0","1","no","left","d","472.772778936","696.765228076","0","red","3"
"100","74","20","786.713715005","1","0","3","180","3","left","out","Female","Right-handed","0","1","no","left","d","818.635714048","1800.36246944","0","red","2"
"100","75","20","783.083083258","1","1","3","181","3","right","out","Female","Right-handed","0","1","no","right","d","484.967235996","856.099762159","0","green","3"
"100","75","20","782.280612528","1","1","3","182","1","right","in","Female","Right-handed","0","1","no","right","s","1144.56154732","368.641551018","0","green","1"
"100","76","20","777.705153656","1","1","3","183","1","left","in","Female","Right-handed","0","1","no","left","s","749.201746217","504.228275568","0","red","3"
"100","77","20","774.765925582","1","1","3","184","1","left","in","Female","Right-handed","0","1","no","left","s","532.689919617","816.974422527","0","red","2"
"100","77","20","770.840829991","1","1","3","185","1","right","out","Female","Right-handed","0","1","no","right","d","714.370428239","552.554540391","0","red","0"
"100","78","20","782.54735851","1","1","3","186","3","right","out","Female","Right-handed","0","1","no","right","s","1048.04788625","1359.91688411","0","red","1"
"100","78","20","780.46946981","1","1","3","187","3","right","out","Female","Right-handed","0","1","no","right","d","590.513448125","816.661727691","0","green","0"
"100","79","20","783.461825623","1","1","3","188","2","left","out","Female","Right-handed","0","1","no","left","s","610.212260457","1184.13043255","0","green","0"
"100","77","20","792.130028293","1","0","3","189","2","left","out","Female","Right-handed","0","1","no","left","d","563.821496467","1696.55836842","0","green","0"
"100","75","20","795.376916993","1","0","3","190","3","left","out","Female","Right-handed","0","1","no","left","d","586.199862992","1264.305067","0","green","2"
"100","76","20","801.317192812","1","1","3","191","1","left","out","Female","Right-handed","0","1","no","left","d","776.825368113","1312.91163469","0","red","0"
"100","76","20","801.680706571","1","1","3","192","3","left","in","Female","Right-handed","0","1","no","left","d","681.485515335","952.411053553","0","green","0"
"100","77","20","806.223281721","1","1","3","193","2","left","in","Female","Right-handed","0","1","no","left","d","586.992343949","1416.11568234","0","red","2"
"100","77","20","810.975114694","1","1","3","194","1","right","out","Female","Right-handed","0","1","no","right","s","743.47478044","1296.63675059","0","red","2"
"100","78","20","814.445690436","1","1","3","195","0","right","out","Female","Right-handed","0","1","no","right","d","645.090402479","1296.1527952","0","red","3"
"100","78","20","808.834138418","1","1","3","196","2","right","in","Female","Right-handed","0","1","no","right","s","476.653722704","624.75176841","0","red","3"
"100","77","20","809.146454821","1","0","3","197","2","right","in","Female","Right-handed","0","1","no","right","d","527.284307915","1120.36634365","0","red","3"
"100","77","20","807.069935595","1","1","3","198","3","right","out","Female","Right-handed","0","1","no","right","s","502.913353706","911.880671803","0","red","0"
"100","78","20","802.019742429","1","1","3","199","3","right","in","Female","Right-handed","0","1","no","right","s","700.564390121","408.556164482","0","green","1"
"100","78","20","800.17888031","1","1","3","200","2","left","in","Female","Right-handed","0","1","no","left","d","744.108508636","672.163040046","0","green","1"
"100","76","20","800.006274866","1","0","3","201","0","left","in","Female","Right-handed","0","1","no","left","d","638.67999805","943.726796438","0","red","3"
"100","77","20","797.172252973","1","1","3","202","3","left","out","Female","Right-handed","0","1","no","left","d","515.326536792","784.279692216","0","green","2"
"100","77","20","795.019355127","1","1","3","203","2","left","out","Female","Right-handed","0","1","no","left","d","609.953766063","751.87777256","0","red","3"
"100","78","20","794.036843935","1","1","3","204","2","left","out","Female","Right-handed","0","1","no","left","s","521.481012525","960.481466656","0","red","2"
"100","78","20","791.815935497","1","1","3","205","1","right","in","Female","Right-handed","0","1","no","right","d","595.117278201","744.214664519","0","green","0"
"100","78","20","793.674876438","1","1","3","206","2","left","out","Female","Right-handed","0","1","no","left","s","779.847764119","1015.70337415","0","green","1"
"100","79","20","790.710719026","1","1","3","207","2","right","in","Female","Right-handed","0","1","no","right","d","491.300027967","752.207465164","0","red","0"
"100","79","20","786.914884776","1","1","3","208","0","right","out","Female","Right-handed","0","1","no","right","s","501.811385042","631.701611517","0","green","0"
"100","80","20","791.815095153","1","1","3","209","1","right","in","Female","Right-handed","0","1","no","right","d","986.304287031","1175.55072776","0","red","2"
"100","80","20","787.738323147","1","1","3","210","1","right","out","Female","Right-handed","0","1","no","right","s","606.065445907","480.198559617","0","red","1"
"100","80","20","784.214714284","1","1","3","211","0","right","out","Female","Right-handed","0","1","no","right","d","554.763609118","583.785538169","0","green","2"
"100","80","20","783.232705412","1","1","3","212","3","right","out","Female","Right-handed","0","1","no","right","d","532.405447495","912.290863282","0","green","0"
"100","81","20","782.211732045","1","1","3","213","2","left","in","Female","Right-handed","0","1","no","left","s","675.871761123","759.909058721","0","green","0"
"100","100","20","526.827292389","1","1","4","214","0","right","out","Female","Right-handed","0","1","no","right","s","437.250004488","616.404580291","0","green","0"
"100","100","20","506.082074857","1","1","4","215","2","right","in","Female","Right-handed","0","1","no","right","d","497.748917914","472.924796734","0","red","0"
"100","100","20","517.857494114","1","1","4","216","1","left","out","Female","Right-handed","0","1","no","left","d","578.415846285","504.400818972","0","green","0"
"100","100","20","558.562089649","1","1","4","217","0","left","in","Female","Right-handed","0","1","no","left","d","633.113388601","728.238363903","0","green","2"
"100","100","20","538.985091993","1","1","4","218","1","right","out","Female","Right-handed","0","1","no","right","s","448.676996181","472.677206566","0","green","0"
"100","100","20","560.956730733","1","1","4","219","1","right","out","Female","Right-handed","0","1","no","right","d","693.30666287","648.323185986","0","red","1"
"100","100","20","583.59533266","1","1","4","220","2","left","in","Female","Right-handed","0","1","no","left","d","677.826184008","761.027704441","0","red","2"
"100","100","20","652.898693128","1","1","4","221","3","right","in","Female","Right-handed","0","1","no","right","d","931.516945173","1344.52748764","0","red","2"
"100","100","20","668.977098409","1","1","4","222","3","right","in","Female","Right-handed","0","1","no","right","s","547.068750529","1048.13993078","0","green","3"
"100","100","20","665.394094911","1","1","4","223","3","right","out","Female","Right-handed","0","1","no","right","d","521.681457933","744.612668921","0","red","0"
"100","100","20","662.239592991","1","1","4","224","1","left","in","Female","Right-handed","0","1","no","left","s","549.19443397","712.194713629","0","green","2"
"100","100","20","657.872632286","1","1","4","225","3","left","in","Female","Right-handed","0","1","no","left","d","578.708656932","640.963472113","0","green","0"
"100","100","20","666.834485728","1","1","4","226","2","left","out","Female","Right-handed","0","1","no","left","s","956.43952514","592.313928937","0","green","1"
"100","100","20","673.748815196","1","1","4","227","0","right","out","Female","Right-handed","0","1","no","right","d","655.161741804","872.108454754","0","red","0"
"100","93","20","676.44214857","1","0","4","228","0","right","out","Female","Right-handed","0","1","no","right","d","539.549963185","888.747668418","0","green","3"
"100","93","20","675.770856906","1","1","4","229","0","right","in","Female","Right-handed","0","1","no","right","d","523.296566837","808.10639706","0","green","0"
"100","94","20","676.516280355","1","1","4","230","1","right","out","Female","Right-handed","0","1","no","right","s","504.922297739","871.963813352","0","red","0"
"100","94","20","673.930701266","1","1","4","231","2","left","out","Female","Right-handed","0","1","no","left","s","595.45146078","664.500252722","0","green","2"
"100","94","20","677.546109027","1","1","4","232","3","right","in","Female","Right-handed","0","1","no","right","d","565.173620998","920.073276426","0","green","0"
"100","95","20","696.329411659","1","1","4","233","1","right","out","Female","Right-handed","0","1","no","right","s","761.597290108","1344.82703326","0","red","3"
"100","95","20","693.68607357","1","1","4","234","2","right","in","Female","Right-handed","0","1","no","right","d","473.384698671","808.253924883","0","green","3"
"100","95","20","690.691783307","1","1","4","235","3","right","out","Female","Right-handed","0","1","no","right","d","583.762126145","671.861249445","0","green","2"
"100","95","20","690.029432776","1","1","4","236","2","left","in","Female","Right-handed","0","1","no","left","d","670.411948984","680.503493201","0","green","0"
"100","95","20","684.118926986","1","1","4","237","0","left","in","Female","Right-handed","0","1","no","left","s","536.144315564","560.210272041","0","green","0"
"100","96","20","687.904739364","1","1","4","238","2","right","in","Female","Right-handed","0","1","no","right","s","660.725785554","896.802687315","0","red","3"
"100","96","20","694.013877434","1","1","4","239","2","left","out","Female","Right-handed","0","1","no","left","d","781.260182626","912.224475764","0","red","2"
"100","92","20","707.808469266","1","0","4","240","2","left","out","Female","Right-handed","0","1","no","left","d","509.089958614","1623.84575518","0","green","0"
"100","92","20","710.818100399","1","1","4","241","0","left","out","Female","Right-handed","0","1","no","left","d","615.609854343","968.546427644","0","red","2"
"100","89","20","713.943576294","1","0","4","242","0","left","out","Female","Right-handed","0","1","no","left","s","531.096939889","1071.81686282","0","green","1"
"100","90","20","711.549418398","1","1","4","243","1","right","out","Female","Right-handed","0","1","no","right","s","715.639488193","568.598190668","0","green","2"
"100","87","20","710.203724331","1","0","4","244","2","right","out","Female","Right-handed","0","1","no","right","d","531.309251663","808.356552927","0","green","3"
"100","84","20","707.334313431","1","0","4","245","3","left","in","Female","Right-handed","0","1","no","left","s","844.888610081","391.876541023","0","red","0"
"100","84","20","703.791721509","1","1","4","246","1","left","out","Female","Right-handed","0","1","no","left","s","596.525527446","584.332032525","0","green","0"
"100","85","20","698.86000991","1","1","4","247","0","left","in","Female","Right-handed","0","1","no","left","s","456.043765731","616.183288559","0","red","0"
"100","85","20","693.114363565","1","1","4","248","2","left","out","Female","Right-handed","0","1","no","left","s","387.731009323","607.793766372","0","red","0"
"100","86","20","691.88783011","1","1","4","249","3","left","out","Female","Right-handed","0","1","no","left","s","745.413809116","552.504509222","0","red","1"
"100","86","20","700.457181082","1","1","4","250","0","left","in","Female","Right-handed","0","1","no","left","s","1257.94950443","759.958127757","0","red","1"
"100","86","20","699.16956439","1","1","4","251","1","left","in","Female","Right-handed","0","1","no","left","s","750.494218192","552.561275359","0","red","2"
"100","87","20","696.077858637","1","1","4","252","0","left","in","Female","Right-handed","0","1","no","left","s","581.01105304","576.175027003","0","green","2"
"100","85","20","696.208911899","1","0","4","253","3","right","in","Female","Right-handed","0","1","no","right","d","538.7568408","863.883137444","0","green","2"
"100","82","20","704.416653572","1","0","4","254","0","left","out","Female","Right-handed","0","1","no","left","s","561.334369875","1504.11827113","0","green","2"
"100","83","20","701.20249757","1","1","4","255","1","right","in","Female","Right-handed","0","1","no","right","d","546.91160133","591.932601594","0","red","0"
"100","83","20","698.83651716","1","1","4","256","1","left","in","Female","Right-handed","0","1","no","left","d","543.421285569","655.509394317","0","green","2"
"100","84","20","696.549654511","1","1","4","257","3","left","in","Female","Right-handed","0","1","no","left","d","508.239107956","688.190013265","0","red","3"
"100","84","20","694.076487259","1","1","4","258","0","left","out","Female","Right-handed","0","1","no","left","d","482.648804253","687.865452062","0","red","3"
"100","84","20","698.34589523","1","1","4","259","0","left","out","Female","Right-handed","0","1","no","left","s","524.423230374","1256.51527747","0","red","3"
"100","82","20","699.742383129","1","0","4","260","0","right","in","Female","Right-handed","0","1","no","right","d","584.017413414","943.944239618","0","green","0"
"100","83","20","704.23658002","1","1","4","261","2","left","in","Female","Right-handed","0","1","no","left","s","1343.40884192","487.518825834","0","green","0"
"100","83","20","703.561502188","1","1","4","262","0","right","in","Female","Right-handed","0","1","no","right","d","622.195688593","720.119843903","0","red","3"
"100","84","20","703.65542184","1","1","4","263","3","left","in","Female","Right-handed","0","1","no","left","s","512.760514885","903.754454699","0","red","3"
"100","84","20","702.157080578","1","1","4","264","3","right","out","Female","Right-handed","0","1","no","right","d","494.178744706","760.301290291","0","green","3"
"100","84","20","703.826139527","1","1","4","265","1","right","out","Female","Right-handed","0","1","no","right","s","425.942317907","1151.95397388","0","red","3"
"100","84","20","705.319303087","1","1","4","266","1","right","out","Female","Right-handed","0","1","no","right","s","502.47301524","1063.4546012","0","red","3"
"100","83","20","712.425787093","1","0","4","267","3","right","in","Female","Right-handed","0","1","no","right","d","778.013287767","1400.12559107","0","red","0"
"100","83","20","710.465783809","1","1","4","268","3","right","in","Female","Right-handed","0","1","no","right","d","593.671826293","615.579386642","0","green","0"
"100","82","20","713.773418781","1","0","4","269","3","right","in","Female","Right-handed","0","1","no","right","s","1119.15501197","672.231672553","0","green","1"
"100","82","20","720.649754037","1","1","4","270","3","right","in","Female","Right-handed","0","1","no","right","d","659.785456067","1551.66360065","0","red","2"
"100","82","20","721.267522412","1","1","4","271","1","left","out","Female","Right-handed","0","1","no","left","s","568.405121652","944.555517923","0","green","1"
"100","83","20","720.135363134","1","1","4","272","2","left","out","Female","Right-handed","0","1","no","left","d","525.006927393","783.933322557","0","red","0"
"100","83","20","720.460985948","1","1","4","273","1","right","out","Female","Right-handed","0","1","no","right","s","495.679679901","983.665784068","0","red","0"
"100","83","20","718.399125904","1","1","4","274","2","left","in","Female","Right-handed","0","1","no","left","d","525.087746981","664.287299525","0","red","1"
"100","82","20","720.436842493","1","0","4","275","2","right","in","Female","Right-handed","0","1","no","right","d","689.733923959","999.741184893","0","red","3"
"100","82","20","724.633271195","1","1","4","276","1","left","out","Female","Right-handed","0","1","no","left","d","554.30691431","1415.31678713","0","red","3"
"100","82","20","723.599435834","1","1","4","277","2","right","out","Female","Right-handed","0","1","no","right","d","604.941348072","711.994268222","0","green","2"
"100","100","20","610.76853655","1","1","5","278","0","left","out","Female","Right-handed","0","1","no","left","d","740.816714002","480.720359097","0","green","3"
"100","100","20","602.050123538","1","1","5","279","1","left","out","Female","Right-handed","0","1","no","left","d","450.250733149","736.412687904","0","red","3"
"100","66","20","664.69519256","1","0","5","280","0","right","in","Female","Right-handed","0","1","no","right","s","468.022062465","1111.94859874","0","red","3"
"100","75","20","685.138191873","1","1","5","281","0","left","out","Female","Right-handed","0","1","no","left","s","764.424372108","728.510007517","0","green","2"
"100","80","20","689.257441175","1","1","5","282","2","left","in","Female","Right-handed","0","1","no","left","d","755.151607282","656.31726948","0","green","0"
"100","83","20","716.937519189","1","1","5","283","3","left","in","Female","Right-handed","0","1","no","left","d","958.854170676","751.821647849","0","green","1"
"100","71","20","699.369575146","1","0","5","284","3","right","out","Female","Right-handed","0","1","no","right","d","507.498903164","680.424918602","0","green","0"
"100","75","20","744.551733516","1","1","5","285","3","left","out","Female","Right-handed","0","1","no","left","d","801.723253204","1319.93043101","0","red","1"
"100","77","20","728.276599978","1","1","5","286","1","right","out","Female","Right-handed","0","1","no","right","s","467.637848709","728.513214642","0","red","3"
"100","80","20","718.62476171","1","1","5","287","2","left","in","Female","Right-handed","0","1","no","left","s","647.276059186","616.240375413","0","green","2"
"100","81","20","716.454900104","1","1","5","288","3","right","out","Female","Right-handed","0","1","no","right","d","573.6901454","815.82242269","0","red","2"
"100","75","20","735.489770443","1","0","5","289","0","right","in","Female","Right-handed","0","1","no","right","d","569.429798568","1320.31688976","0","green","2"
"100","76","20","729.211751464","1","1","5","290","1","right","out","Female","Right-handed","0","1","no","right","d","579.900745848","727.850301599","0","green","0"
"100","71","20","729.027660641","1","0","5","291","3","right","out","Female","Right-handed","0","1","no","right","s","485.714175757","967.554784133","0","red","3"
"100","73","20","742.808296794","1","1","5","292","2","left","in","Female","Right-handed","0","1","no","left","d","599.199629513","1272.27477634","0","red","2"
"100","75","20","735.868147894","1","1","5","293","1","right","in","Female","Right-handed","0","1","no","right","s","463.745680001","799.786148807","0","green","0"
"100","76","20","732.505285345","1","1","5","294","3","left","in","Female","Right-handed","0","1","no","left","s","605.131530669","752.267438431","0","red","0"
"100","77","20","751.553728064","1","1","5","295","1","left","out","Female","Right-handed","0","1","no","left","s","1070.89192753","1079.86258104","0","green","2"
"100","78","20","753.918458708","1","1","5","296","2","left","out","Female","Right-handed","0","1","no","left","d","456.393021807","1136.57419879","0","green","3"
"100","80","20","761.851486952","1","1","5","297","3","left","in","Female","Right-handed","0","1","no","left","d","449.120862489","1376.03718471","0","green","3"
"100","80","20","759.033910262","1","1","5","298","1","left","in","Female","Right-handed","0","1","no","left","d","557.748802457","847.61595045","0","green","2"
"100","81","20","749.795829954","1","1","5","299","0","left","in","Female","Right-handed","0","1","no","left","d","479.170034152","632.422252842","0","red","0"
"100","82","20","743.278748319","1","1","5","300","1","right","out","Female","Right-handed","0","1","no","right","d","479.857962779","719.947941922","0","red","3"
"100","83","20","739.955814349","1","1","5","301","2","left","in","Female","Right-handed","0","1","no","left","d","615.518451239","711.538214837","0","green","0"
"100","84","20","733.981416626","1","1","5","302","0","right","in","Female","Right-handed","0","1","no","right","s","565.039563112","616.152179435","0","green","0"
"100","84","20","723.721638147","1","1","5","303","3","left","in","Female","Right-handed","0","1","no","left","s","462.757564328","471.696788001","0","red","0"
"100","85","20","725.405716943","1","1","5","304","1","right","out","Female","Right-handed","0","1","no","right","d","834.195088224","704.188443054","0","red","2"
"100","85","20","726.445597376","1","1","5","305","0","right","in","Female","Right-handed","0","1","no","right","s","541.015299277","968.029438853","0","red","0"
"100","86","20","726.321154746","1","1","5","306","2","right","in","Female","Right-handed","0","1","no","right","d","974.358702984","471.314819231","0","green","1"
"100","86","20","721.511442814","1","1","5","307","0","right","in","Female","Right-handed","0","1","no","right","d","636.098902651","527.960690895","0","green","1"
"100","87","20","722.343768868","1","1","5","308","1","left","out","Female","Right-handed","0","1","no","left","s","686.750975609","807.876125379","0","red","3"
"100","87","20","722.123531256","1","1","5","309","3","left","out","Female","Right-handed","0","1","no","left","d","599.320538182","831.271792424","0","red","3"
"100","87","20","734.905173239","1","1","5","310","2","right","in","Female","Right-handed","0","1","no","right","d","887.949093925","1399.88633944","0","red","1"
"100","88","20","738.308830698","1","1","5","311","1","left","out","Female","Right-handed","0","1","no","left","d","541.714132141","1159.54492158","0","green","0"
"100","88","20","736.218675079","1","1","5","312","3","left","in","Female","Right-handed","0","1","no","left","s","642.069930749","688.236837308","0","red","0"
"100","88","20","738.441948195","1","1","5","313","3","right","in","Female","Right-handed","0","1","no","right","s","472.716012795","1159.79700172","0","red","0"
"100","89","20","735.139402347","1","1","5","314","1","left","out","Female","Right-handed","0","1","no","left","d","448.206831436","784.28867217","0","red","0"
"100","89","20","732.043054019","1","1","5","315","2","right","in","Female","Right-handed","0","1","no","right","s","611.027191299","623.929140464","0","red","3"
"100","89","20","734.695802078","1","1","5","316","0","right","out","Female","Right-handed","0","1","no","right","d","727.450052211","943.550404481","0","green","2"
"100","90","20","738.130084097","1","1","5","317","0","left","out","Female","Right-handed","0","1","no","left","d","1064.05208886","680.082076779","0","green","2"
"100","90","20","732.190400279","1","1","5","318","0","right","in","Female","Right-handed","0","1","no","right","s","509.680069888","479.526025188","0","red","0"
"100","90","20","733.10882837","1","1","5","319","1","left","out","Female","Right-handed","0","1","no","left","d","878.217710007","663.311050219","0","green","0"
"100","88","20","735.894073176","1","0","5","320","2","right","out","Female","Right-handed","0","1","no","right","d","537.882898832","1167.86581126","0","red","3"
"100","88","20","731.289868226","1","1","5","321","1","right","out","Female","Right-handed","0","1","no","right","s","659.267184427","407.350926343","0","green","1"
"100","88","20","732.298414995","1","1","5","322","3","right","out","Female","Right-handed","0","1","no","right","d","713.105858267","840.243087361","0","red","2"
"100","89","20","733.50296662","1","1","5","323","3","right","in","Female","Right-handed","0","1","no","right","s","503.786654248","1071.6289252","0","green","2"
"100","89","20","730.614960636","1","1","5","324","0","right","out","Female","Right-handed","0","1","no","right","s","540.128849516","655.40452128","0","green","3"
"100","89","20","725.921682719","1","1","5","325","0","left","in","Female","Right-handed","0","1","no","left","d","554.880669239","455.794572001","0","red","0"
"100","87","20","725.77096441","1","0","5","326","0","right","out","Female","Right-handed","0","1","no","right","d","661.473046024","775.59992508","0","green","1"
"100","88","20","730.388097584","1","1","5","327","2","left","out","Female","Right-handed","0","1","no","left","d","617.16947996","1296.08576626","0","red","0"
"100","88","20","730.002223733","1","1","5","328","2","left","in","Female","Right-handed","0","1","no","left","s","541.666666664","879.750395761","0","red","2"
"100","88","20","726.094455352","1","1","5","329","3","right","out","Female","Right-handed","0","1","no","right","s","574.348889179","479.24764661","0","red","2"
"100","86","20","726.686976975","1","0","5","330","1","left","out","Female","Right-handed","0","1","no","left","d","578.922892983","936.073309781","0","red","2"
"100","87","20","722.264826522","1","1","5","331","3","right","out","Female","Right-handed","0","1","no","right","s","488.401427043","487.380277969","0","green","3"
"100","85","20","718.78075197","1","0","5","332","0","left","in","Female","Right-handed","0","1","no","left","s","446.010591215","615.270861075","0","red","0"
"100","85","20","716.439611847","1","1","5","333","2","right","in","Female","Right-handed","0","1","no","right","s","543.753864586","631.599945606","0","red","0"
"100","85","20","716.376502741","1","1","5","334","2","left","in","Female","Right-handed","0","1","no","left","d","490.399787559","935.28499809","0","green","0"
"100","86","20","715.723357316","1","1","5","335","2","right","out","Female","Right-handed","0","1","no","right","s","500.923652431","856.064483767","0","green","3"
"100","84","20","713.415109514","1","0","5","336","1","right","in","Female","Right-handed","0","1","no","right","d","583.565850004","575.507623984","0","red","1"
"100","85","20","711.135928925","1","1","5","337","0","right","in","Female","Right-handed","0","1","no","right","s","522.061181709","631.267366589","0","green","3"
"100","85","20","711.344065388","1","1","5","338","2","right","in","Female","Right-handed","0","1","no","right","s","479.869829149","967.794677195","0","green","0"
"100","85","20","709.270833307","1","1","5","339","3","left","out","Female","Right-handed","0","1","no","left","s","630.266422409","535.340930375","0","green","0"
"100","85","20","704.862917029","1","1","5","340","1","left","in","Female","Right-handed","0","1","no","left","s","448.196889342","414.947326153","0","green","0"
"100","85","20","706.287647656","1","1","5","341","2","left","out","Female","Right-handed","0","1","no","left","d","688.644783801","903.446570555","0","red","2"
"100","100","20","722.11595943","1","1","6","342","0","left","out","Female","Right-handed","0","1","no","left","s","780.126784124","664.105134736","0","green","2"
"100","100","20","596.656779095","1","1","6","343","2","left","out","Female","Right-handed","0","1","no","left","s","558.599653115","383.795544403","0","red","2"
"100","100","20","603.727664501","1","1","6","344","3","right","out","Female","Right-handed","0","1","no","right","d","643.390304729","592.3485659","0","green","1"
"100","100","20","627.659750177","1","1","6","345","1","left","in","Female","Right-handed","0","1","no","left","s","663.008938903","735.903075507","0","green","0"
"100","80","20","628.541277","1","0","6","346","0","left","in","Female","Right-handed","0","1","no","left","d","608.609980063","655.524788523","0","green","2"
"100","83","20","636.47886696","1","1","6","347","1","right","out","Female","Right-handed","0","1","no","right","d","512.121334574","840.212298946","0","green","3"
"100","85","20","631.871566313","1","1","6","348","1","right","in","Female","Right-handed","0","1","no","right","s","800.816277835","407.63924702","0","green","2"
"100","87","20","623.876262966","1","1","6","349","3","right","in","Female","Right-handed","0","1","no","right","d","488.320607455","647.497671627","0","green","2"
"100","88","20","658.7214384","1","1","6","350","3","left","in","Female","Right-handed","0","1","no","left","s","1275.08453986","599.881143891","0","green","0"
"100","90","20","680.505561799","1","1","6","351","2","right","in","Female","Right-handed","0","1","no","right","d","977.623878469","775.501466298","0","red","1"
"100","90","20","683.343928513","1","1","6","352","0","right","out","Female","Right-handed","0","1","no","right","s","551.283876877","872.171314437","0","green","0"
"100","91","20","678.58867833","1","1","6","353","0","right","out","Female","Right-handed","0","1","no","right","s","716.825162857","535.736689784","0","red","3"
"100","92","20","674.604366409","1","1","6","354","1","right","out","Female","Right-handed","0","1","no","right","d","502.285077626","751.300169079","0","red","0"
"100","85","20","692.705922262","1","0","6","355","0","left","in","Female","Right-handed","0","1","no","left","d","488.052170967","1368.00012572","0","red","0"
"100","86","20","684.164214284","1","1","6","356","2","left","in","Female","Right-handed","0","1","no","left","s","585.538232797","543.622372402","0","red","2"
"100","87","20","680.199537789","1","1","6","357","1","right","out","Female","Right-handed","0","1","no","right","d","441.132872533","800.325908192","0","green","0"
"100","88","20","696.345990616","1","1","6","358","1","right","in","Female","Right-handed","0","1","no","right","s","461.75180946","1447.62666225","0","red","0"
"100","88","20","687.959750491","1","1","6","359","0","right","out","Female","Right-handed","0","1","no","right","d","435.325728598","655.46160813","0","green","3"
"100","89","20","681.593755853","1","1","6","360","2","right","in","Female","Right-handed","0","1","no","right","d","566.053335795","567.958368934","0","red","2"
"100","85","20","675.913421696","1","0","6","361","2","left","out","Female","Right-handed","0","1","no","left","d","496.416036149","639.558109283","0","red","0"
"100","85","20","670.211686842","1","1","6","362","0","right","out","Female","Right-handed","0","1","no","right","s","481.240234298","631.113745232","0","red","3"
"100","86","20","665.873792109","1","1","6","363","1","left","in","Female","Right-handed","0","1","no","left","s","541.784688921","607.771316485","0","red","0"
"100","82","20","660.307743587","1","0","6","364","2","right","in","Female","Right-handed","0","1","no","right","s","540.319032112","535.390320121","0","red","3"
"100","83","20","671.006663821","1","1","6","365","3","left","out","Female","Right-handed","0","1","no","left","d","882.021041317","952.142617069","0","green","2"
"100","84","20","666.167714756","1","1","6","366","0","right","out","Female","Right-handed","0","1","no","right","d","500.483955387","599.581918988","0","red","0"
"100","84","20","667.973811246","1","1","6","367","2","left","in","Female","Right-handed","0","1","no","left","s","507.186529041","919.065917995","0","red","0"
"100","81","20","677.468054882","1","0","6","368","0","right","in","Female","Right-handed","0","1","no","right","d","800.841614135","1047.79516468","0","green","1"
"100","82","20","680.646605495","1","1","6","369","3","right","in","Female","Right-handed","0","1","no","right","s","525.462339356","1007.47260472","0","red","3"
"100","82","20","680.504256277","1","1","6","370","1","left","out","Female","Right-handed","0","1","no","left","d","577.075908837","775.961047526","0","red","1"
"100","83","20","677.673465989","1","1","6","371","3","left","out","Female","Right-handed","0","1","no","left","d","599.526114987","591.634980257","0","red","2"
"100","83","20","676.059217666","1","1","6","372","3","left","out","Female","Right-handed","0","1","no","left","d","520.169297793","735.094238204","0","green","0"
"100","84","20","684.456241525","1","1","6","373","2","right","out","Female","Right-handed","0","1","no","right","s","1145.73375206","743.794210237","0","green","1"
"100","84","20","682.604559515","1","1","6","374","3","left","out","Female","Right-handed","0","1","no","left","s","455.291373855","791.410096546","0","green","3"
"100","85","20","684.630701837","1","1","6","375","1","left","in","Female","Right-handed","0","1","no","left","d","599.980244101","903.006552802","0","red","2"
"100","85","20","683.414386583","1","1","6","376","0","left","out","Female","Right-handed","0","1","no","left","d","524.557929686","759.561406212","0","red","0"
"100","86","20","679.672932073","1","1","6","377","2","left","in","Female","Right-handed","0","1","no","left","s","522.217368773","575.226679699","0","green","3"
"100","83","20","683.918380815","1","0","6","378","3","right","in","Female","Right-handed","0","1","no","right","s","809.730165209","863.77890583","0","red","1"
"100","84","20","686.010787693","1","1","6","379","2","left","in","Female","Right-handed","0","1","no","left","d","615.481569286","911.378115081","0","green","0"
"100","84","20","687.726048966","1","1","6","380","0","right","in","Female","Right-handed","0","1","no","right","s","491.021970097","1014.78998453","0","green","3"
"100","85","20","685.287812342","1","1","6","381","3","right","out","Female","Right-handed","0","1","no","right","d","420.58096455","759.812203501","0","red","0"
"100","85","20","682.447140923","1","1","6","382","1","right","out","Female","Right-handed","0","1","no","right","d","498.340953469","639.29961489","0","red","3"
"100","85","20","681.909493638","1","1","6","383","3","left","out","Female","Right-handed","0","1","no","left","s","512.910929115","806.820980764","0","green","3"
"100","83","20","685.897469747","1","0","6","384","3","right","out","Female","Right-handed","0","1","no","right","s","731.298604005","975.486328661","0","red","2"
"100","84","20","686.387757599","1","1","6","385","2","right","in","Female","Right-handed","0","1","no","right","s","719.8940622","695.046208279","0","green","0"
"100","84","20","685.627166414","1","1","6","386","1","left","in","Female","Right-handed","0","1","no","left","d","592.621813077","711.700495434","0","red","2"
"100","84","20","684.890430894","1","1","6","387","2","left","out","Female","Right-handed","0","1","no","left","s","520.172184209","783.302480777","0","red","2"
"100","85","20","680.753041762","1","1","6","388","1","left","out","Female","Right-handed","0","1","no","left","s","364.962656218","615.903627131","0","green","2"
"100","85","20","683.311028437","1","1","6","389","0","left","in","Female","Right-handed","0","1","no","left","d","591.581100529","1015.49170381","0","green","2"
"100","85","20","685.970017399","1","1","6","390","1","right","in","Female","Right-handed","0","1","no","right","d","724.101491443","903.101483746","0","red","1"
"100","84","20","684.776078428","1","0","6","391","0","right","in","Female","Right-handed","0","1","no","right","s","796.808973282","455.737164441","0","red","2"
"100","84","20","682.363786924","1","1","6","392","2","left","out","Female","Right-handed","0","1","no","left","s","508.232372991","615.266050383","0","green","3"
"100","84","20","680.777761109","1","1","6","393","2","right","out","Female","Right-handed","0","1","no","right","d","472.814471581","726.96641754","0","green","3"
"100","84","20","680.06561454","1","1","6","394","1","right","out","Female","Right-handed","0","1","no","right","d","446.640150145","839.427835806","0","green","3"
"100","85","20","675.346026974","1","1","6","395","1","left","in","Female","Right-handed","0","1","no","left","s","459.125493577","391.290278301","0","red","3"
"100","85","20","672.307879712","1","1","6","396","3","right","in","Female","Right-handed","0","1","no","right","d","481.784162952","534.711692159","0","green","3"
"100","85","20","677.648059629","1","1","6","397","0","left","in","Female","Right-handed","0","1","no","left","s","679.50575615","1263.21015402","0","green","0"
"100","85","20","672.248805362","1","1","6","398","0","left","in","Female","Right-handed","0","1","no","left","s","428.911475614","310.869657249","0","green","0"
"100","84","20","672.944221413","1","0","6","399","0","left","in","Female","Right-handed","0","1","no","left","s","682.558299144","742.607573437","0","red","1"
"100","83","20","675.898157405","1","0","6","400","3","right","in","Female","Right-handed","0","1","no","right","s","599.183914594","1095.26897528","0","green","0"
"100","81","20","674.688072205","1","0","6","401","3","right","out","Female","Right-handed","0","1","no","right","s","503.765807927","702.820282895","0","red","0"
"100","80","20","673.92821881","1","0","6","402","2","left","out","Female","Right-handed","0","1","no","left","d","593.271576905","663.402453327","0","red","0"
"100","79","20","672.977932094","1","0","6","403","1","left","out","Female","Right-handed","0","1","no","left","d","470.916494123","759.104390687","0","red","0"
"100","77","20","672.780539165","1","0","6","404","2","right","in","Female","Right-handed","0","1","no","right","s","625.608071183","695.476283941","0","green","0"
"100","78","20","671.280258437","1","1","6","405","3","left","out","Female","Right-handed","0","1","no","left","s","562.231723871","591.293421287","0","green","0"
"100","100","20","382.270395401","1","1","7","406","1","left","out","Female","Right-handed","0","1","no","left","s","413.276733965","351.264056837","0","red","0"
"100","100","20","421.652625867","1","1","7","407","0","left","out","Female","Right-handed","0","1","no","left","d","402.007853609","520.061859057","0","red","0"
"100","100","20","454.319667982","1","1","7","408","3","right","in","Female","Right-handed","0","1","no","right","d","463.62926131","575.678243112","0","green","3"
"100","100","20","457.046153117","1","1","7","409","1","left","out","Female","Right-handed","0","1","no","left","s","387.169120761","543.282096282","0","red","0"
"100","100","20","473.395602902","1","1","7","410","0","right","in","Female","Right-handed","0","1","no","right","s","581.786856939","495.799947144","0","green","2"
"100","100","20","476.647442082","1","1","7","411","2","left","out","Female","Right-handed","0","1","no","left","d","394.446090769","591.367185196","0","green","3"
"100","85","20","497.722298766","1","0","7","412","1","left","in","Female","Right-handed","0","1","no","left","d","465.144307865","783.198569876","0","green","1"
"100","87","20","491.152099257","1","1","7","413","2","right","in","Female","Right-handed","0","1","no","right","s","474.649589359","415.671816031","0","red","0"
"100","88","20","509.613076581","1","1","7","414","3","right","out","Female","Right-handed","0","1","no","right","s","603.257606661","711.344183684","0","red","1"
"100","80","20","535.150218598","1","0","7","415","3","left","in","Female","Right-handed","0","1","no","left","s","585.959007793","944.009985705","0","red","2"
"100","81","20","543.546902884","1","1","7","416","0","left","in","Female","Right-handed","0","1","no","left","s","567.587304398","687.440187088","0","red","1"
"100","75","20","603.718497466","1","0","7","417","3","left","out","Female","Right-handed","0","1","no","left","s","532.077358457","1999.13471727","0","green","1"
"100","76","20","591.411924609","1","1","7","418","1","right","out","Female","Right-handed","0","1","no","right","s","535.711353485","351.754747185","0","green","2"
"100","78","20","577.694277185","1","1","7","419","0","right","out","Female","Right-handed","0","1","no","right","s","455.279507485","343.450213851","0","green","3"
"100","80","20","568.14188071","1","1","7","420","1","left","in","Female","Right-handed","0","1","no","left","s","500.958289395","367.858370726","0","green","0"
"100","81","20","573.231035218","1","1","7","421","0","left","out","Female","Right-handed","0","1","no","left","d","475.533152708","823.603552985","0","red","0"
"100","82","20","562.017035048","1","1","7","422","0","left","out","Female","Right-handed","0","1","no","left","s","438.117852918","327.068211729","0","green","0"
"100","83","20","563.809291573","1","1","7","423","1","left","in","Female","Right-handed","0","1","no","left","d","564.82468564","623.730619336","0","red","3"
"100","84","20","569.083994373","1","1","7","424","1","left","out","Female","Right-handed","0","1","no","left","s","808.439938217","519.617351325","0","green","2"
"100","85","20","576.584488861","1","1","7","425","1","right","out","Female","Right-handed","0","1","no","right","d","447.060604427","991.127163848","0","red","0"
"100","85","20","595.654074816","1","1","7","426","1","right","out","Female","Right-handed","0","1","no","right","d","698.68052402","1255.41106382","0","red","1"
"100","86","20","600.180747818","1","1","7","427","2","left","in","Female","Right-handed","0","1","no","left","d","591.264236435","799.21752528","0","red","3"
"100","86","20","618.755146044","1","1","7","428","3","left","out","Female","Right-handed","0","1","no","left","s","734.85851441","1319.92529961","0","green","2"
"100","87","20","620.926013944","1","1","7","429","2","left","out","Female","Right-handed","0","1","no","left","d","518.360157738","823.351793555","0","green","0"
"100","88","20","636.886463874","1","1","7","430","2","right","in","Female","Right-handed","0","1","no","right","s","1192.93431548","846.940208899","0","green","1"
"100","88","20","632.123983908","1","1","7","431","2","left","in","Female","Right-handed","0","1","no","left","s","610.566006511","415.557963038","0","green","3"
"100","88","20","633.938980166","1","1","7","432","3","right","out","Female","Right-handed","0","1","no","right","d","755.000230914","607.257534822","0","green","0"
"100","89","20","633.632341754","1","1","7","433","3","right","out","Female","Right-handed","0","1","no","right","d","475.819869815","774.886339437","0","red","2"
"100","86","20","637.605605146","1","0","7","434","0","left","in","Female","Right-handed","0","1","no","left","d","602.25249322","895.461467018","0","green","3"
"100","86","20","636.429707057","1","1","7","435","0","right","out","Female","Right-handed","0","1","no","right","d","525.752905018","678.904419932","0","green","0"
"100","87","20","635.09542898","1","1","7","436","2","left","out","Female","Right-handed","0","1","no","left","s","574.644906956","615.489266387","0","red","2"
"100","87","20","639.020499672","1","1","7","437","3","left","out","Female","Right-handed","0","1","no","left","d","506.191678407","1015.20370385","0","red","0"
"100","87","20","642.832974174","1","1","7","438","1","right","out","Female","Right-handed","0","1","no","right","s","610.826104468","918.838212012","0","green","3"
"100","88","20","649.248696662","1","1","7","439","3","right","in","Female","Right-handed","0","1","no","right","d","490.365792022","1231.56928548","0","green","3"
"100","88","20","655.297980537","1","1","7","440","1","left","out","Female","Right-handed","0","1","no","left","s","498.921764072","1223.0255005","0","red","2"
"100","86","20","649.902593332","1","0","7","441","2","left","in","Female","Right-handed","0","1","no","left","s","458.460976967","463.667105403","0","red","2"
"100","86","20","646.503258718","1","1","7","442","1","left","out","Female","Right-handed","0","1","no","left","d","465.116405863","583.13801933","0","green","0"
"100","86","20","646.563684654","1","1","7","443","0","right","in","Female","Right-handed","0","1","no","right","d","434.805853391","862.793035151","0","red","0"
"100","87","20","641.199586521","1","1","7","444","3","right","out","Female","Right-handed","0","1","no","right","s","427.307591654","447.420123306","0","red","3"
"100","87","20","647.072302422","1","1","7","445","2","left","in","Female","Right-handed","0","1","no","left","s","529.136102752","1223.08034237","0","green","0"
"100","87","20","651.586112567","1","1","7","446","1","left","out","Female","Right-handed","0","1","no","left","d","793.718906909","870.558129809","0","red","3"
"100","88","20","656.043002893","1","1","7","447","1","right","in","Female","Right-handed","0","1","no","right","s","494.316330431","1183.23468212","0","red","0"
"100","88","20","659.190787689","1","1","7","448","0","right","in","Female","Right-handed","0","1","no","right","d","871.861506014","710.933992207","0","green","2"
"100","86","20","656.584689161","1","0","7","449","2","left","in","Female","Right-handed","0","1","no","left","s","553.460232917","535.58467199","0","green","2"
"100","84","20","657.962735613","1","0","7","450","1","right","out","Female","Right-handed","0","1","no","right","d","566.082199937","871.111359127","0","green","3"
"100","84","20","656.413385665","1","1","7","451","0","right","in","Female","Right-handed","0","1","no","right","s","742.701542244","430.683733714","0","green","2"
"100","85","20","656.678231565","1","1","7","452","2","right","out","Female","Right-handed","0","1","no","right","d","634.300987538","703.4212984","0","red","0"
"100","85","20","656.713847373","1","1","7","453","0","right","out","Female","Right-handed","0","1","no","right","s","493.920571022","822.855009657","0","red","0"
"100","85","20","660.525507049","1","1","7","454","2","left","in","Female","Right-handed","0","1","no","left","d","512.473797775","1174.49654528","0","red","0"
"100","86","20","664.716772245","1","1","7","455","0","left","in","Female","Right-handed","0","1","no","left","d","741.162442239","999.015091453","0","red","3"
"100","86","20","664.969936396","1","1","7","456","3","right","in","Female","Right-handed","0","1","no","right","d","532.671318284","822.58496961","0","green","3"
"100","86","20","665.367342541","1","1","7","457","2","left","out","Female","Right-handed","0","1","no","left","s","492.15729288","879.112819013","0","green","3"
"100","86","20","668.235850122","1","1","7","458","0","right","in","Female","Right-handed","0","1","no","right","s","939.934369362","694.86211922","0","red","2"
"100","85","20","664.065402004","1","0","7","459","3","right","in","Female","Right-handed","0","1","no","right","s","519.542945989","366.520357555","0","green","0"
"100","85","20","664.082378718","1","1","7","460","2","left","in","Female","Right-handed","0","1","no","left","s","642.999676722","686.998565772","0","green","1"
"100","85","20","660.577324232","1","1","7","461","3","left","in","Female","Right-handed","0","1","no","left","s","552.760437917","382.838217145","0","green","2"
"100","85","20","659.553822762","1","1","7","462","0","right","in","Female","Right-handed","0","1","no","right","d","437.348463274","767.127017603","0","red","3"
"100","86","20","656.718002698","1","1","7","463","3","right","in","Female","Right-handed","0","1","no","right","s","535.108413704","455.044104405","0","red","0"
"100","84","20","654.851175089","1","0","7","464","2","right","in","Female","Right-handed","0","1","no","right","s","638.595650624","454.554696898","0","red","2"
"100","85","20","653.513455179","1","1","7","465","2","right","out","Female","Right-handed","0","1","no","right","s","494.026085482","655.149875434","0","green","0"
"100","85","20","653.101278699","1","1","7","466","0","right","in","Female","Right-handed","0","1","no","right","d","585.918918714","670.822461176","0","red","1"
"100","83","20","656.735781381","1","0","7","467","3","left","in","Female","Right-handed","0","1","no","left","d","686.44982643","1070.43106346","0","red","0"
"100","84","20","659.873751313","1","1","7","468","1","right","out","Female","Right-handed","0","1","no","right","d","877.987117616","830.868656627","0","green","2"
"100","84","20","659.837995313","1","1","7","469","3","right","out","Female","Right-handed","0","1","no","right","d","532.67228042","782.498454166","0","red","0"
"100","100","20","747.992338816","1","1","8","470","3","left","out","Female","Right-handed","0","1","no","left","s","608.546158248","887.438519385","0","green","3"
"100","100","20","736.055814905","1","1","8","471","3","right","in","Female","Right-handed","0","1","no","right","s","689.044071048","759.194510938","0","red","2"
"100","100","20","664.56968701","1","1","8","472","0","left","in","Female","Right-handed","0","1","no","left","s","459.591168343","583.603694096","0","green","2"
"100","75","20","647.113497961","1","0","8","473","0","right","out","Female","Right-handed","0","1","no","right","d","502.320035303","687.169826327","0","green","2"
"100","80","20","636.181165444","1","1","8","474","0","right","in","Female","Right-handed","0","1","no","right","d","425.88330678","759.02036397","0","red","3"
"100","83","20","674.228162248","1","1","8","475","2","right","in","Female","Right-handed","0","1","no","right","d","929.452838561","799.473453972","0","green","1"
"100","85","20","655.20492347","1","1","8","476","2","left","in","Female","Right-handed","0","1","no","left","d","451.122109418","631.008872195","0","green","3"
"100","87","20","651.089753519","1","1","8","477","2","left","in","Female","Right-handed","0","1","no","left","s","716.787960191","527.779167532","0","green","0"
"100","88","20","668.49674213","1","1","8","478","2","right","out","Female","Right-handed","0","1","no","right","s","840.306588463","775.19871356","0","green","1"
"100","90","20","663.636685807","1","1","8","479","2","left","out","Female","Right-handed","0","1","no","left","d","496.911857903","742.8804999","0","red","3"
"100","90","20","650.04149147","1","1","8","480","2","right","out","Female","Right-handed","0","1","no","right","d","548.595663451","479.583432756","0","green","0"
"100","91","20","693.297843271","1","1","8","481","1","right","in","Female","Right-handed","0","1","no","right","s","1027.08129681","1311.15412937","0","green","2"
"100","92","20","687.860394672","1","1","8","482","1","left","in","Female","Right-handed","0","1","no","left","s","510.721744573","734.50027838","0","green","0"
"100","92","20","697.882728396","1","1","8","483","0","left","out","Female","Right-handed","0","1","no","left","s","721.323799185","935.02233443","0","red","2"
"100","93","20","685.920607797","1","1","8","484","2","left","in","Female","Right-handed","0","1","no","left","s","557.846619817","479.055219021","0","red","3"
"100","93","20","674.398046411","1","1","8","485","1","left","out","Female","Right-handed","0","1","no","left","s","539.615709276","463.503541952","0","green","0"
"100","94","20","661.912318595","1","1","8","486","0","left","out","Female","Right-handed","0","1","no","left","s","461.199862992","463.081484104","0","green","0"
"100","94","20","651.270704496","1","1","8","487","2","right","in","Female","Right-handed","0","1","no","right","s","533.866935038","406.859594564","0","green","3"
"100","94","20","644.592968723","1","1","8","488","0","right","out","Female","Right-handed","0","1","no","right","d","441.493994975","607.293454643","0","red","3"
"100","95","20","658.668694533","1","1","8","489","1","left","out","Female","Right-handed","0","1","no","left","d","813.163714829","1039.05125501","0","green","0"
"100","90","20","663.26534103","1","0","8","490","1","left","in","Female","Right-handed","0","1","no","left","d","558.679831279","951.716710668","0","green","3"
"100","86","20","657.78932596","1","0","8","491","0","left","out","Female","Right-handed","0","1","no","left","d","470.22599979","615.360019194","0","green","0"
"100","86","20","667.726963601","1","1","8","492","3","right","out","Female","Right-handed","0","1","no","right","s","749.830984434","1022.87899897","0","red","2"
"100","87","20","667.151303569","1","1","8","493","3","right","in","Female","Right-handed","0","1","no","right","s","692.409308875","615.412936779","0","green","0"
"100","88","20","670.306979733","1","1","8","494","2","right","in","Female","Right-handed","0","1","no","right","d","828.932835073","663.153580306","0","red","2"
"100","88","20","695.529479068","1","1","8","495","3","left","in","Female","Right-handed","0","1","no","left","d","861.68914221","1790.49478265","0","red","1"
"100","88","20","691.163072974","1","1","8","496","1","left","out","Female","Right-handed","0","1","no","left","d","604.158488495","551.114540598","0","red","0"
"100","89","20","692.238873012","1","1","8","497","1","left","out","Female","Right-handed","0","1","no","left","d","651.772129815","790.798818238","0","red","2"
"100","86","20","701.80955698","1","0","8","498","1","left","out","Female","Right-handed","0","1","no","left","d","628.235669916","1311.34174627","0","red","2"
"100","86","20","702.981163049","1","1","8","499","3","left","in","Female","Right-handed","0","1","no","left","s","650.968103204","822.947374901","0","green","0"
"100","83","20","710.062036586","1","0","8","500","1","left","in","Female","Right-handed","0","1","no","left","s","662.446729631","1182.52975572","0","red","3"
"100","84","20","722.670386412","1","1","8","501","2","left","out","Female","Right-handed","0","1","no","left","s","908.069964105","1318.98849796","0","green","2"
"100","84","20","720.290842056","1","1","8","502","2","left","out","Female","Right-handed","0","1","no","left","s","705.632612113","582.658233205","0","green","0"
"100","85","20","722.818320133","1","1","8","503","1","right","in","Female","Right-handed","0","1","no","right","d","645.177636321","967.272557005","0","red","2"
"100","85","20","719.446411482","1","1","8","504","0","right","out","Female","Right-handed","0","1","no","right","d","458.866999183","750.73603553","0","green","0"
"100","86","20","720.39231157","1","1","8","505","3","left","out","Female","Right-handed","0","1","no","left","s","764.442973442","742.554655848","0","green","0"
"100","86","20","729.951160144","1","1","8","506","3","right","out","Female","Right-handed","0","1","no","right","d","877.075010838","1271.0644068","0","red","3"
"100","86","20","733.154500584","1","1","8","507","1","right","out","Female","Right-handed","0","1","no","right","d","784.654926022","918.701267714","0","red","1"
"100","87","20","727.27311751","1","1","8","508","1","right","in","Female","Right-handed","0","1","no","right","s","384.345887309","623.215234107","0","red","0"
"100","87","20","744.535020378","1","1","8","509","1","right","out","Female","Right-handed","0","1","no","right","d","540.688813802","2294.80965063","0","red","0"
"100","87","20","738.846689623","1","1","8","510","2","left","out","Female","Right-handed","0","1","no","left","d","456.285903784","566.341015041","0","red","0"
"100","88","20","736.813792525","1","1","8","511","0","left","in","Female","Right-handed","0","1","no","left","d","404.063621692","902.866401372","0","red","0"
"100","88","20","730.59881646","1","1","8","512","3","left","in","Female","Right-handed","0","1","no","left","s","476.565206012","462.574437406","0","red","0"
"100","88","20","733.986740894","1","1","8","513","0","right","out","Female","Right-handed","0","1","no","right","d","584.140567069","1175.19441601","0","red","0"
"100","88","20","729.350324547","1","1","8","514","0","right","in","Female","Right-handed","0","1","no","right","s","627.73215106","422.963859532","0","red","2"
"100","89","20","724.123394024","1","1","8","515","1","right","in","Female","Right-handed","0","1","no","right","d","435.324445745","542.498595278","0","green","3"
"100","89","20","721.503650747","1","1","8","516","2","right","out","Female","Right-handed","0","1","no","right","s","724.039273188","477.951646793","0","green","2"
"100","89","20","725.883604774","1","1","8","517","3","right","in","Female","Right-handed","0","1","no","right","d","560.759652809","1302.72323525","0","green","2"
"100","89","20","727.156963394","1","1","8","518","0","right","in","Female","Right-handed","0","1","no","right","s","938.31637405","638.239980293","0","green","1"
"100","90","20","725.869528963","1","1","8","519","3","right","in","Female","Right-handed","0","1","no","right","d","566.790974888","758.779508771","0","green","0"
"100","90","20","728.10516125","1","1","8","520","3","right","out","Female","Right-handed","0","1","no","right","d","841.514713014","838.258838197","0","green","1"
"100","90","20","727.086419576","1","1","8","521","0","left","in","Female","Right-handed","0","1","no","left","d","576.085548175","774.175640207","0","green","0"
"100","90","20","725.794479056","1","1","8","522","3","left","in","Female","Right-handed","0","1","no","left","d","446.591401822","870.63574227","0","red","0"
"100","90","20","726.469066457","1","1","8","523","0","right","out","Female","Right-handed","0","1","no","right","d","654.257652844","870.186744563","0","green","3"
"100","90","20","727.911452754","1","1","8","524","0","right","out","Female","Right-handed","0","1","no","right","d","932.787929404","678.812696114","0","red","1"
"100","91","20","727.732353794","1","1","8","525","1","left","out","Female","Right-handed","0","1","no","left","d","677.302139538","758.461682537","0","red","3"
"100","89","20","727.036481998","1","0","8","526","1","left","in","Female","Right-handed","0","1","no","left","d","586.169395289","789.965927487","0","red","1"
"100","89","20","724.709369091","1","1","8","527","3","right","out","Female","Right-handed","0","1","no","right","s","537.577259678","646.550607172","0","green","3"
"100","89","20","723.506765167","1","1","8","528","3","right","out","Female","Right-handed","0","1","no","right","s","477.164617955","830.346857147","0","red","3"
"100","90","20","727.6291435","1","1","8","529","0","left","in","Female","Right-handed","0","1","no","left","d","1030.85191542","910.847014933","0","green","3"
"100","90","20","724.478008092","1","1","8","530","2","right","in","Female","Right-handed","0","1","no","right","s","624.421755092","446.398012096","0","red","0"
"100","90","20","724.542233387","1","1","8","531","2","right","in","Female","Right-handed","0","1","no","right","s","698.980390349","757.939562344","0","red","2"
"100","90","20","729.486862612","1","1","8","532","3","left","out","Female","Right-handed","0","1","no","left","d","777.542481599","1294.56526759","0","red","2"
"100","90","20","728.395736097","1","1","8","533","2","left","in","Female","Right-handed","0","1","no","left","d","561.079082607","758.230448714","0","red","0"
dis_reply=No
dis_loc=2
tar_loc=0
