"acc_1","acc_2","age","avg_rt","correct_1","correct_2","count_block_loop","count_trial_sequence","cue_position","detection","dis_shape","gender","hand","high_loc","low_loc","practice","response_keyboard_response_1","response_keyboard_response_2","response_time_keyboard_response_1","response_time_keyboard_response_2","subject_nr","tar_color","tar_position"
"100","100","18","1843.44622596","1","1","0","0","1","left","in","Female","Right-handed","1","3","yes","left","d","2206.78875944","1480.10369248","17","red","2"
"100","100","18","1428.33666767","1","1","0","1","1","left","in","Female","Right-handed","1","3","yes","left","d","1201.12242653","825.331792207","17","red","3"
"100","100","18","1466.8045299","1","1","0","2","2","right","in","Female","Right-handed","1","3","yes","right","s","1621.79633144","1465.68417731","17","red","1"
"100","100","18","1524.78154728","1","1","0","3","2","right","out","Female","Right-handed","1","3","yes","right","s","988.192680976","2409.23251785","17","red","0"
"100","100","18","1553.03601656","1","1","0","4","1","left","out","Female","Right-handed","1","3","yes","left","s","1914.61694525","1417.49084208","17","green","1"
"100","100","18","1516.5398466","1","1","0","5","2","right","in","Female","Right-handed","1","3","yes","right","d","1499.08982042","1169.02817323","17","red","2"
"100","100","18","1452.56858395","1","1","0","6","2","left","in","Female","Right-handed","1","3","yes","left","d","1039.82885545","1097.65316064","17","green","3"
"100","87","18","1451.89662438","1","0","0","7","1","left","in","Female","Right-handed","1","3","yes","left","d","1421.1565759","1473.22923889","17","red","0"
"100","88","18","1402.31984613","1","1","0","8","1","right","in","Female","Right-handed","1","3","yes","right","s","1009.76919667","1001.6420435","17","green","3"
"100","80","18","1448.76601393","1","0","0","9","0","left","out","Female","Right-handed","1","3","yes","left","d","1316.33390698","2417.2291414","17","red","3"
"100","81","18","1426.40817038","1","1","0","10","3","left","out","Female","Right-handed","1","3","yes","left","s","1699.862992","705.796477688","17","green","2"
"100","83","18","1441.15001895","1","1","0","11","3","right","out","Female","Right-handed","1","3","yes","right","d","1253.3794987","1953.24120785","17","green","3"
"100","84","18","1407.89181992","1","1","0","12","3","left","in","Female","Right-handed","1","3","yes","left","d","855.696768446","1161.89009469","17","red","3"
"100","85","18","1390.99395724","1","1","0","13","0","right","out","Female","Right-handed","1","3","yes","right","s","1301.40029108","1041.2431937","17","red","0"
"100","80","18","1389.11970861","1","0","0","14","0","left","out","Female","Right-handed","1","3","yes","left","s","1091.93102391","1633.82943145","17","red","0"
"100","75","18","1376.88320861","1","0","0","15","3","left","out","Female","Right-handed","1","3","yes","left","d","1041.33652078","1345.3348967","17","green","1"
"100","70","18","1370.38524748","1","0","0","16","0","right","out","Female","Right-handed","1","3","yes","right","s","1275.94573046","1256.8900081","17","red","1"
"100","72","18","1358.41521814","1","1","0","17","1","right","out","Female","Right-handed","1","3","yes","right","d","788.479140596","1521.37029813","17","red","0"
"100","68","18","1349.39269204","1","0","0","18","2","right","out","Female","Right-handed","1","3","yes","right","s","995.993349724","1377.98109469","17","red","2"
"100","70","18","1351.05328912","1","1","0","19","0","left","in","Female","Right-handed","1","3","yes","left","d","1435.63221561","1329.57705193","17","green","1"
"100","71","18","1378.28257125","1","1","0","20","3","left","in","Female","Right-handed","1","3","yes","left","s","1996.91699919","1848.81942845","17","red","2"
"100","72","18","1361.85840401","1","1","0","21","2","right","in","Female","Right-handed","1","3","yes","right","s","1024.47799373","1009.42379026","17","green","3"
"0","0","18","3000.19146484","0","0","1","22","3","right","out","Female","Right-handed","1","3","no","None","None","3000.29152686","3000.09140281","17","green","0"
"0","0","18","3000.13614208","0","0","1","23","3","left","in","Female","Right-handed","1","3","no","None","None","3000.08017791","3000.08146075","17","red","0"
"33","33","18","2614.05488744","1","1","1","24","2","right","out","Female","Right-handed","1","3","no","right","d","849.867834741","2833.91692158","17","green","2"
"50","50","18","2294.02163873","1","1","1","25","2","right","in","Female","Right-handed","1","3","no","right","s","1618.37979055","1049.46399467","17","red","1"
"60","40","18","2133.57837839","1","0","1","26","1","left","out","Female","Right-handed","1","3","no","left","d","1453.87942398","1529.73125008","17","green","1"
"66","50","18","1979.37674614","1","1","1","27","1","left","out","Female","Right-handed","1","3","no","left","s","967.423075715","1449.31409406","17","green","1"
"71","57","18","1835.81968072","1","1","1","28","3","left","in","Female","Right-handed","1","3","no","left","d","899.01336277","1049.94121356","17","red","1"
"75","62","18","1731.2187667","1","1","1","29","1","left","in","Female","Right-handed","1","3","no","left","d","780.425751091","1217.59898604","17","red","1"
"77","66","18","1671.0783579","1","1","1","30","0","left","out","Female","Right-handed","1","3","no","left","s","1499.03594087","880.874234221","17","green","2"
"80","70","18","1587.23566146","1","1","1","31","2","right","in","Female","Right-handed","1","3","no","right","s","751.669785052","913.633001996","17","red","2"
"81","72","18","1536.00148297","1","1","1","32","1","left","out","Female","Right-handed","1","3","no","left","s","1054.05209511","993.267300949","17","red","1"
"83","75","18","1501.98894657","1","1","1","33","2","right","out","Female","Right-handed","1","3","no","right","d","1205.72656256","1049.9755297","17","red","1"
"84","76","18","1479.62572115","1","1","1","34","3","left","in","Female","Right-handed","1","3","no","left","d","1349.30242015","1073.23161216","17","red","3"
"85","78","18","1447.35936818","1","1","1","35","1","left","in","Female","Right-handed","1","3","no","left","d","1109.8588035","945.934755711","17","green","0"
"86","80","18","1405.39073473","1","1","1","36","2","left","in","Female","Right-handed","1","3","no","left","d","786.308243635","849.351489032","17","green","0"
"87","81","18","1381.5548845","1","1","1","37","3","left","in","Female","Right-handed","1","3","no","left","s","1151.04875907","896.985503193","17","green","2"
"88","82","18","1353.20287715","1","1","1","38","1","left","out","Female","Right-handed","1","3","no","left","d","861.552321215","937.58919792","17","red","0"
"88","77","18","1343.916701","1","0","1","39","3","right","in","Female","Right-handed","1","3","no","right","s","1323.07526525","1049.02814758","17","green","2"
"89","78","18","1334.89799531","1","1","1","40","2","right","in","Female","Right-handed","1","3","no","right","d","1223.56261862","1121.55996698","17","red","1"
"90","75","18","1308.11262494","1","0","1","41","0","left","out","Female","Right-handed","1","3","no","left","d","725.128012044","873.253163981","17","red","0"
"90","71","18","1324.5242098","1","0","1","42","0","left","out","Female","Right-handed","1","3","no","left","d","1071.78199563","2233.72981842","17","green","0"
"90","72","18","1312.0595937","1","1","1","43","3","right","in","Female","Right-handed","1","3","no","right","d","787.333558687","1313.27175243","17","red","0"
"91","73","18","1302.91793333","1","1","1","44","2","right","out","Female","Right-handed","1","3","no","right","d","754.775556386","1448.82725382","17","red","2"
"91","75","18","1294.55993983","1","1","1","45","3","left","in","Female","Right-handed","1","3","no","left","d","779.344311506","1425.30786712","17","red","3"
"92","76","18","1287.7543195","1","1","1","46","0","right","out","Female","Right-handed","1","3","no","right","s","1447.95491821","800.883945369","17","green","2"
"92","76","18","1314.29984287","1","1","1","47","2","left","in","Female","Right-handed","1","3","no","left","s","1954.45445991","2001.4213939","17","green","1"
"92","77","18","1307.21111645","1","1","1","48","3","right","in","Female","Right-handed","1","3","no","right","d","1236.89427998","1008.91417949","17","green","0"
"92","78","18","1305.39600852","1","1","1","49","0","left","out","Female","Right-handed","1","3","no","left","s","1631.40164448","881.374544349","17","green","2"
"93","79","18","1307.19307837","1","1","1","50","0","right","out","Female","Right-handed","1","3","no","right","s","1314.13927736","1400.88279081","17","red","1"
"93","80","18","1306.6537452","1","1","1","51","3","left","in","Female","Right-handed","1","3","no","left","d","1333.49133726","1248.53482896","17","green","2"
"93","80","18","1293.60322258","1","1","1","52","1","left","out","Female","Right-handed","1","3","no","left","s","723.059742802","1081.11534522","17","red","0"
"93","81","18","1280.85673239","1","1","1","53","1","left","in","Female","Right-handed","1","3","no","left","s","649.646287154","1121.78478583","17","red","1"
"93","78","18","1289.54490904","1","0","1","54","0","right","out","Female","Right-handed","1","3","no","right","s","1342.10565139","1793.0274728","17","red","1"
"94","79","18","1282.87231384","1","1","1","55","0","right","out","Female","Right-handed","1","3","no","right","d","1204.71375526","920.63958877","17","green","1"
"94","80","18","1277.42458672","1","1","1","56","1","left","out","Female","Right-handed","1","3","no","left","s","1215.17504761","969.228682138","17","green","2"
"94","80","18","1271.40734032","1","1","1","57","0","right","out","Female","Right-handed","1","3","no","right","d","1224.92436016","896.683072136","17","green","1"
"94","81","18","1272.97391691","1","1","1","58","2","right","out","Female","Right-handed","1","3","no","right","d","833.511221379","1825.23012662","17","green","1"
"94","81","18","1276.89224751","1","1","1","59","3","right","out","Female","Right-handed","1","3","no","right","s","1714.89346281","1128.84749713","17","red","2"
"94","82","18","1274.46737735","1","1","1","60","2","left","in","Female","Right-handed","1","3","no","left","d","1291.3328326","1073.31179006","17","red","3"
"95","82","18","1273.37897113","1","1","1","61","0","right","out","Female","Right-handed","1","3","no","right","s","844.931120765","1616.93113616","17","green","3"
"95","80","18","1287.56208136","1","0","1","62","2","right","out","Female","Right-handed","1","3","no","right","s","908.512840972","2801.2601401","17","red","3"
"95","78","18","1287.34401236","1","0","1","63","3","left","out","Female","Right-handed","1","3","no","left","s","1139.8058925","1417.00047401","17","red","1"
"95","79","18","1283.0322602","1","1","1","64","0","left","in","Female","Right-handed","1","3","no","left","d","1235.54825331","968.329086042","17","green","1"
"95","79","18","1275.96314729","1","1","1","65","1","left","out","Female","Right-handed","1","3","no","left","d","926.969153314","1017.01343076","17","red","3"
"95","80","18","1274.03378676","1","1","1","66","1","right","in","Female","Right-handed","1","3","no","right","s","977.740047837","1400.54379862","17","green","0"
"95","80","18","1278.67457152","1","1","1","67","2","left","out","Female","Right-handed","1","3","no","left","d","1893.98877381","1081.03099806","17","red","0"
"95","80","18","1268.58815552","1","1","1","68","0","right","in","Female","Right-handed","1","3","no","right","s","712.629880189","896.596159286","17","green","3"
"95","81","18","1257.2782529","1","1","1","69","0","right","in","Female","Right-handed","1","3","no","right","s","650.244414325","801.181245041","17","red","0"
"95","81","18","1254.03440165","1","1","1","70","1","left","in","Female","Right-handed","1","3","no","left","d","1259.79469325","936.864389657","17","green","2"
"96","82","18","1251.94899338","1","1","1","71","0","right","in","Female","Right-handed","1","3","no","right","s","1426.19976614","873.328210499","17","green","2"
"96","82","18","1242.58595226","1","1","1","72","0","right","in","Female","Right-handed","1","3","no","right","d","620.01830622","928.849485546","17","red","0"
"96","80","18","1243.62193091","1","0","1","73","3","left","out","Female","Right-handed","1","3","no","left","d","1488.430649","1104.48303532","17","red","1"
"96","81","18","1243.01510967","1","1","1","74","3","right","in","Female","Right-handed","1","3","no","right","d","1189.99854397","1232.92226656","17","green","1"
"96","79","18","1262.99323933","1","0","1","75","0","right","out","Female","Right-handed","1","3","no","right","None","1643.53320295","3000.13501959","17","red","1"
"96","80","18","1252.31030739","1","1","1","76","1","right","out","Female","Right-handed","1","3","no","right","s","789.95826259","560.905702445","17","red","2"
"96","80","18","1242.69956979","1","1","1","77","2","right","in","Female","Right-handed","1","3","no","right","s","731.642947904","696.575056461","17","green","0"
"96","78","18","1244.31149579","1","0","1","78","1","right","in","Female","Right-handed","1","3","no","right","s","1420.06487355","1249.09382932","17","red","2"
"96","79","18","1238.30920435","1","1","1","79","2","left","in","Female","Right-handed","1","3","no","left","s","967.606202049","824.750983463","17","red","0"
"96","79","18","1236.68849455","1","1","1","80","2","left","in","Female","Right-handed","1","3","no","left","s","1484.11354987","801.261102234","17","green","2"
"96","80","18","1230.54742641","1","1","1","81","1","right","out","Female","Right-handed","1","3","no","right","s","903.717560822","832.731250718","17","green","1"
"96","80","18","1238.00276449","1","1","1","82","2","left","out","Female","Right-handed","1","3","no","left","s","930.360357991","2440.28574123","17","green","1"
"96","80","18","1234.29711072","1","1","1","83","3","right","in","Female","Right-handed","1","3","no","right","s","1007.7442235","1008.76023792","17","green","1"
"96","80","18","1230.94104507","1","1","1","84","1","left","out","Female","Right-handed","1","3","no","left","d","1181.30565549","864.424293777","17","green","3"
"96","81","18","1229.80830956","1","1","1","85","3","right","in","Female","Right-handed","1","3","no","right","d","1083.94787025","1232.94407495","17","red","1"
"100","100","18","1283.57754454","1","1","2","86","0","left","in","Female","Right-handed","1","3","no","left","s","941.646520632","1625.50856845","17","green","3"
"100","50","18","1105.10208892","1","0","2","87","1","right","out","Female","Right-handed","1","3","no","right","d","1204.0858019","649.167464704","17","green","2"
"100","33","18","1011.62355127","1","0","2","88","1","right","in","Female","Right-handed","1","3","no","right","d","887.680376233","761.652575667","17","red","1"
"100","50","18","948.405117146","1","1","2","89","3","right","in","Female","Right-handed","1","3","no","right","d","860.173902669","657.325726909","17","green","1"
"100","60","18","936.478220794","1","1","2","90","3","left","out","Female","Right-handed","1","3","no","left","s","1096.81802758","680.723243189","17","green","2"
"100","66","18","906.130728685","1","1","2","91","2","left","in","Female","Right-handed","1","3","no","left","d","763.379287032","745.407249237","17","red","0"
"100","71","18","905.249256613","1","1","2","92","1","left","in","Female","Right-handed","1","3","no","left","s","870.912931285","929.007917087","17","red","1"
"100","75","18","908.479266475","1","1","2","93","1","left","in","Female","Right-handed","1","3","no","left","d","1140.62723496","721.55143605","17","red","3"
"100","77","18","938.32508855","1","1","2","94","2","right","in","Female","Right-handed","1","3","no","right","d","1065.13364374","1289.04968657","17","green","1"
"100","80","18","917.063638165","1","1","2","95","0","right","out","Female","Right-handed","1","3","no","right","s","657.67434044","793.746828964","17","red","1"
"100","81","18","901.182524972","1","1","2","96","0","left","in","Female","Right-handed","1","3","no","left","s","723.392000041","761.350786032","17","red","3"
"100","83","18","904.12562627","1","1","2","97","2","left","out","Female","Right-handed","1","3","no","left","d","960.079741738","912.919739351","17","red","1"
"100","84","18","939.490462752","1","1","2","98","2","left","in","Female","Right-handed","1","3","no","left","d","1262.43094277","1465.30605831","17","green","2"
"100","85","18","934.060316326","1","1","2","99","1","right","out","Female","Right-handed","1","3","no","right","d","910.033334765","816.903490818","17","red","2"
"100","86","18","925.927407138","1","1","2","100","1","left","in","Female","Right-handed","1","3","no","left","d","815.614871526","808.518485497","17","green","0"
"100","87","18","931.002412633","1","1","2","101","2","right","out","Female","Right-handed","1","3","no","right","d","941.104517993","1073.15047212","17","red","1"
"100","88","18","933.277673517","1","1","2","102","3","left","in","Female","Right-handed","1","3","no","left","d","706.70697798","1232.65671734","17","green","1"
"100","83","18","928.942429556","1","0","2","103","1","right","out","Female","Right-handed","1","3","no","right","d","749.291708385","961.194856041","17","green","3"
"100","84","18","910.800654198","1","1","2","104","3","left","out","Female","Right-handed","1","3","no","left","s","743.797597614","424.699797888","17","green","1"
"100","80","18","905.659822467","1","0","2","105","0","right","in","Female","Right-handed","1","3","no","right","d","774.472060566","841.495978597","17","green","0"
"100","76","18","889.509112074","1","0","2","106","0","right","in","Female","Right-handed","1","3","no","right","s","531.975269286","601.014539141","17","red","1"
"100","77","18","906.445103821","1","1","2","107","3","left","in","Female","Right-handed","1","3","no","left","s","1283.61683172","1240.58502931","17","red","3"
"100","78","18","903.346420784","1","1","2","108","3","left","in","Female","Right-handed","1","3","no","left","s","877.124153241","793.226634715","17","green","2"
"100","75","18","899.282018886","1","0","2","109","1","left","in","Female","Right-handed","1","3","no","left","s","978.80930038","632.792250068","17","red","0"
"100","72","18","906.141210609","1","0","2","110","3","right","out","Female","Right-handed","1","3","no","right","s","1156.22825174","985.295372195","17","green","2"
"100","73","18","893.457644529","1","1","2","111","0","right","in","Female","Right-handed","1","3","no","right","d","583.935041785","568.801943257","17","green","0"
"100","74","18","884.293168574","1","1","2","112","0","right","out","Female","Right-handed","1","3","no","right","s","579.484205915","712.549381572","17","green","0"
"100","75","18","875.68028089","1","1","2","113","3","right","out","Female","Right-handed","1","3","no","right","s","445.033556057","841.231070798","17","green","0"
"100","75","18","869.200087932","1","1","2","114","0","left","in","Female","Right-handed","1","3","no","left","d","878.748878311","496.76049192","17","green","1"
"100","73","18","860.268250683","1","0","2","115","0","right","in","Female","Right-handed","1","3","no","right","s","754.232591613","448.257349268","17","red","1"
"100","74","18","867.40000103","1","1","2","116","2","left","in","Female","Right-handed","1","3","no","left","s","1249.94820507","912.756817848","17","red","3"
"100","71","18","862.4176613","1","0","2","117","3","right","in","Female","Right-handed","1","3","no","right","d","583.428317426","832.501941909","17","red","0"
"100","72","18","857.998170739","1","1","2","118","0","left","out","Female","Right-handed","1","3","no","left","s","688.101855445","745.047090088","17","red","1"
"100","73","18","854.279873938","1","1","2","119","3","right","in","Female","Right-handed","1","3","no","right","d","710.663917954","752.488241109","17","green","1"
"100","74","18","853.068202258","1","1","2","120","2","left","out","Female","Right-handed","1","3","no","left","d","694.436230664","929.306499606","17","green","0"
"100","75","18","857.547684295","1","1","2","121","0","right","in","Female","Right-handed","1","3","no","right","d","1251.84874214","776.810368992","17","red","2"
"100","75","18","854.651460926","1","1","2","122","3","right","in","Female","Right-handed","1","3","no","right","s","684.416558213","816.358281062","17","green","0"
"100","76","18","865.950665877","1","1","2","123","0","right","out","Female","Right-handed","1","3","no","right","d","1007.0072282","1561.03526994","17","green","2"
"100","74","18","871.42609866","1","0","2","124","3","right","in","Female","Right-handed","1","3","no","right","d","1030.49390231","1128.49118652","17","green","1"
"100","75","18","874.303670929","1","1","2","125","2","right","out","Female","Right-handed","1","3","no","right","d","1036.06658743","936.991391459","17","red","3"
"100","73","18","877.675730295","1","0","2","126","1","right","in","Female","Right-handed","1","3","no","right","d","1048.57818917","976.538020683","17","red","1"
"100","73","18","875.997493318","1","1","2","127","0","right","in","Female","Right-handed","1","3","no","right","d","781.13227879","833.247275715","17","green","1"
"100","72","18","878.364695623","1","0","2","128","3","right","out","Female","Right-handed","1","3","no","right","s","794.776954689","1160.7974302","17","green","3"
"100","70","18","880.099730235","1","0","2","129","2","left","out","Female","Right-handed","1","3","no","left","d","1173.17850231","736.233934754","17","red","2"
"100","68","18","876.249953942","1","0","2","130","2","right","out","Female","Right-handed","1","3","no","right","d","580.872245809","832.847348324","17","red","0"
"100","69","18","872.136125406","1","1","2","131","2","left","in","Female","Right-handed","1","3","no","left","s","661.515182809","712.512499735","17","green","2"
"100","68","18","877.601784963","1","0","2","132","0","right","out","Female","Right-handed","1","3","no","right","d","1088.99394689","1169.05030233","17","red","2"
"100","68","18","876.339969899","1","1","2","133","2","left","out","Female","Right-handed","1","3","no","left","d","913.517866524","720.551457217","17","red","1"
"100","69","18","878.164178483","1","1","2","134","3","right","in","Female","Right-handed","1","3","no","right","s","963.287178655","968.165202405","17","red","1"
"100","70","18","885.134484004","1","1","2","135","1","left","out","Female","Right-handed","1","3","no","left","d","1164.68221006","1288.67669895","17","green","0"
"100","70","18","887.696204295","1","1","2","136","1","right","out","Female","Right-handed","1","3","no","right","d","1287.19533198","744.369105721","17","green","2"
"100","71","18","889.160975351","1","1","2","137","2","right","out","Female","Right-handed","1","3","no","right","s","1054.87055117","872.858047264","17","red","1"
"100","69","18","901.013498946","1","0","2","138","1","left","out","Female","Right-handed","1","3","no","left","s","1762.39502307","1272.29442866","17","red","1"
"100","68","18","902.028509315","1","0","2","139","0","right","in","Female","Right-handed","1","3","no","right","s","510.885273115","1400.76284466","17","red","0"
"100","69","18","900.225314491","1","1","2","140","1","left","in","Female","Right-handed","1","3","no","left","d","877.338067891","728.367520123","17","green","2"
"100","69","18","918.685638905","1","1","2","141","3","left","out","Female","Right-handed","1","3","no","left","s","971.054814106","2896.95214918","17","red","0"
"100","70","18","916.243265436","1","1","2","142","1","left","out","Female","Right-handed","1","3","no","left","s","598.474823817","960.465878528","17","green","1"
"100","70","18","916.662952679","1","1","2","143","0","left","out","Female","Right-handed","1","3","no","left","s","1081.00149259","800.168758456","17","red","2"
"100","69","18","915.840133933","1","0","2","144","2","left","out","Female","Right-handed","1","3","no","left","d","623.653572439","1112.57972089","17","green","0"
"100","70","18","921.08004342","1","1","2","145","2","left","out","Female","Right-handed","1","3","no","left","d","988.191718841","1472.27768752","17","red","2"
"100","70","18","926.671877302","1","1","2","146","3","left","out","Female","Right-handed","1","3","no","left","s","643.725629926","1880.63819047","17","green","2"
"100","70","18","926.149360099","1","1","2","147","2","left","out","Female","Right-handed","1","3","no","left","d","980.227166455","808.324454966","17","green","1"
"100","71","18","925.414109208","1","1","2","148","1","left","in","Female","Right-handed","1","3","no","left","s","654.852078179","1104.80502978","17","red","1"
"100","71","18","925.09420052","1","1","2","149","1","right","out","Female","Right-handed","1","3","no","right","d","985.426222537","824.45368379","17","red","0"
"100","0","18","779.768131912","1","0","3","150","1","right","out","Female","Right-handed","1","3","no","right","d","702.209318212","857.326945613","17","red","0"
"100","50","18","745.296443372","1","1","3","151","3","left","out","Female","Right-handed","1","3","no","left","s","796.937588877","624.711920787","17","red","1"
"100","66","18","715.209363753","1","1","3","152","1","right","out","Female","Right-handed","1","3","no","right","d","573.406720704","736.663688324","17","green","1"
"100","75","18","741.297369908","1","1","3","153","1","right","in","Female","Right-handed","1","3","no","right","s","862.011580255","777.111196491","17","green","2"
"100","80","18","744.876022509","1","1","3","154","3","right","in","Female","Right-handed","1","3","no","right","d","741.668713876","776.712551947","17","red","1"
"100","66","18","728.113810505","1","0","3","155","0","left","in","Female","Right-handed","1","3","no","left","d","615.284602699","673.320898275","17","green","1"
"100","71","18","720.641119023","1","1","3","156","1","right","in","Female","Right-handed","1","3","no","right","d","638.846002618","712.763937646","17","red","2"
"100","75","18","759.930193908","1","1","3","157","1","right","out","Female","Right-handed","1","3","no","right","s","1029.48109501","1040.4263412","17","red","3"
"100","77","18","763.096455018","1","1","3","158","2","left","in","Female","Right-handed","1","3","no","left","d","623.946382148","952.906705631","17","green","1"
"100","80","18","749.246632368","1","1","3","159","0","right","out","Female","Right-handed","1","3","no","right","s","504.571744152","744.624712884","17","red","2"
"100","81","18","749.873420954","1","1","3","160","2","right","out","Female","Right-handed","1","3","no","right","d","679.069012651","833.213600995","17","green","2"
"100","83","18","755.448422729","1","1","3","161","3","left","out","Female","Right-handed","1","3","no","left","s","744.759091052","888.787793459","17","green","0"
"100","84","18","782.668487453","1","1","3","162","2","right","in","Female","Right-handed","1","3","no","right","d","562.334793426","1656.28373485","17","red","0"
"100","85","18","787.943346017","1","1","3","163","2","right","out","Female","Right-handed","1","3","no","right","s","704.092216137","1008.94079856","17","red","3"
"100","86","18","795.241772731","1","1","3","164","3","right","in","Female","Right-handed","1","3","no","right","d","970.416918692","824.422574763","17","green","2"
"100","81","18","803.32804854","1","0","3","165","0","left","out","Female","Right-handed","1","3","no","left","s","880.081435095","969.162936256","17","green","2"
"100","82","18","800.144733381","1","1","3","166","3","left","out","Female","Right-handed","1","3","no","left","d","577.64075552","920.782626154","17","red","0"
"100","77","18","800.84409695","1","0","3","167","1","left","out","Female","Right-handed","1","3","no","left","d","872.263768631","753.202786599","17","green","1"
"100","78","18","801.022484349","1","1","3","168","2","left","out","Female","Right-handed","1","3","no","left","s","503.770285812","1104.69662926","17","red","1"
"100","80","18","801.389819843","1","1","3","169","1","right","in","Female","Right-handed","1","3","no","right","s","840.321853354","776.416535122","17","green","1"
"100","76","18","812.176254982","1","0","3","170","0","left","in","Female","Right-handed","1","3","no","left","d","926.862997769","1128.94691774","17","green","0"
"100","72","18","804.348986607","1","0","3","171","0","right","in","Female","Right-handed","1","3","no","right","d","503.518206478","776.434494972","17","green","0"
"100","69","18","807.665504138","1","0","3","172","3","left","out","Female","Right-handed","1","3","no","left","s","969.118678053","792.13910161","17","red","3"
"100","70","18","812.329875848","1","1","3","173","0","left","in","Female","Right-handed","1","3","no","left","d","838.612139704","1000.60871066","17","red","3"
"100","68","18","816.208932075","1","0","3","174","0","left","out","Female","Right-handed","1","3","no","left","s","546.341225619","1272.27133743","17","green","0"
"100","69","18","814.444465304","1","1","3","175","0","left","in","Female","Right-handed","1","3","no","left","d","755.77361095","784.891981119","17","green","1"
"100","70","18","820.441943701","1","1","3","176","3","right","in","Female","Right-handed","1","3","no","right","d","872.392694703","1080.36006935","17","green","1"
"100","71","18","829.927102936","1","1","3","177","1","right","in","Female","Right-handed","1","3","no","right","s","635.073151113","1536.97965341","17","green","0"
"100","72","18","822.81132511","1","1","3","178","0","left","out","Female","Right-handed","1","3","no","left","s","454.600704411","792.538387577","17","red","0"
"100","70","18","815.086536547","1","0","3","179","1","left","in","Female","Right-handed","1","3","no","left","s","510.05527144","672.080065015","17","green","0"
"100","70","18","813.478352783","1","1","3","180","1","right","out","Female","Right-handed","1","3","no","right","d","873.801901564","656.663778123","17","green","1"
"100","68","18","828.814890785","1","0","3","181","3","right","out","Female","Right-handed","1","3","no","right","s","496.232600593","2112.2625371","17","red","1"
"100","69","18","838.906057327","1","1","3","182","3","left","in","Female","Right-handed","1","3","no","left","s","1058.81562481","1264.83114854","17","green","2"
"100","70","18","835.348979143","1","1","3","183","0","left","out","Female","Right-handed","1","3","no","left","d","507.521649638","928.409148492","17","green","1"
"100","71","18","838.280084056","1","1","3","184","2","left","in","Female","Right-handed","1","3","no","left","s","778.853622726","1097.02167946","17","green","2"
"100","69","18","841.47942186","1","0","3","185","0","left","out","Female","Right-handed","1","3","no","left","d","922.510299653","984.402190332","17","green","1"
"100","67","18","849.941524737","1","0","3","186","1","right","out","Female","Right-handed","1","3","no","right","d","1005.01817473","1304.13628191","17","green","3"
"100","65","18","878.17903284","1","0","3","187","2","right","in","Female","Right-handed","1","3","no","right","None","845.761443151","3000.17222214","17","red","1"
"100","66","18","887.983839325","1","1","3","188","3","left","out","Female","Right-handed","1","3","no","left","s","633.135732214","1887.99723932","17","green","0"
"100","67","18","881.623011668","1","1","3","189","0","left","out","Female","Right-handed","1","3","no","left","d","538.522276308","728.579189792","17","red","1"
"100","68","18","878.661335772","1","1","3","190","3","right","out","Female","Right-handed","1","3","no","right","s","632.21689342","888.171706436","17","green","1"
"100","69","18","874.119260984","1","1","3","191","3","right","in","Female","Right-handed","1","3","no","right","d","630.871828884","744.916560458","17","red","1"
"100","67","18","878.184164814","1","0","3","192","2","right","out","Female","Right-handed","1","3","no","right","s","697.46342765","1400.35682375","17","red","1"
"100","68","18","880.760294129","1","1","3","193","2","left","in","Female","Right-handed","1","3","no","left","d","1295.08002717","687.987682109","17","red","3"
"100","66","18","887.589643352","1","0","3","194","2","left","in","Female","Right-handed","1","3","no","left","d","1111.58615629","1264.57586209","17","green","0"
"100","67","18","882.892653721","1","1","3","195","2","right","in","Female","Right-handed","1","3","no","right","d","615.022581305","728.033659326","17","red","0"
"100","68","18","888.675285093","1","1","3","196","2","left","out","Female","Right-handed","1","3","no","left","d","860.666515718","1448.6861407","17","green","2"
"100","66","18","893.124766682","1","0","3","197","0","left","in","Female","Right-handed","1","3","no","left","d","780.164691831","1424.33611091","17","red","1"
"100","67","18","897.780773108","1","1","3","198","3","left","in","Female","Right-handed","1","3","no","left","s","505.741379431","1736.79678365","17","red","2"
"100","68","18","898.702035172","1","1","3","199","3","left","in","Female","Right-handed","1","3","no","left","d","967.332635038","920.355117563","17","red","3"
"100","68","18","899.362624014","1","1","3","200","2","left","in","Female","Right-handed","1","3","no","left","s","776.903696073","1087.88043614","17","red","1"
"100","69","18","898.930881292","1","1","3","201","2","right","out","Female","Right-handed","1","3","no","right","s","929.460441183","824.363563825","17","green","1"
"100","69","18","897.368245282","1","1","3","202","1","right","in","Female","Right-handed","1","3","no","right","d","776.13911957","856.083225948","17","red","2"
"100","70","18","895.281309941","1","1","3","203","0","right","out","Female","Right-handed","1","3","no","right","d","833.781581275","735.565892448","17","red","2"
"100","69","18","898.261358162","1","0","3","204","2","right","in","Female","Right-handed","1","3","no","right","s","1174.16276628","944.205157941","17","green","0"
"100","69","18","895.868799648","1","1","3","205","1","right","out","Female","Right-handed","1","3","no","right","s","792.754226498","735.8019362","17","red","1"
"100","70","18","895.989567015","1","1","3","206","0","left","in","Female","Right-handed","1","3","no","left","d","661.173945644","1144.33113347","17","red","2"
"100","70","18","895.523962278","1","1","3","207","1","right","in","Female","Right-handed","1","3","no","right","d","721.996263068","1015.97272155","17","green","0"
"100","71","18","905.59128585","1","1","3","208","1","left","out","Female","Right-handed","1","3","no","left","s","786.594639113","2192.39746689","17","red","2"
"100","71","18","903.000823801","1","1","3","209","1","right","in","Female","Right-handed","1","3","no","right","d","548.122778671","952.204347182","17","red","1"
"100","72","18","902.945021732","1","1","3","210","2","right","out","Female","Right-handed","1","3","no","right","s","1007.56334215","791.63045298","17","green","2"
"100","72","18","899.990674534","1","1","3","211","3","right","out","Female","Right-handed","1","3","no","right","s","591.28575213","848.265238773","17","green","0"
"100","73","18","900.146050036","1","1","3","212","3","left","in","Female","Right-handed","1","3","no","left","d","771.745049656","1047.81361267","17","red","2"
"100","71","18","897.697638336","1","0","3","213","0","left","out","Female","Right-handed","1","3","no","left","d","758.425254629","728.470147841","17","red","3"
"100","100","18","497.228249819","1","1","4","214","3","right","out","Female","Right-handed","1","3","no","right","d","458.252968346","536.203531291","17","green","3"
"100","50","18","641.297842957","1","0","4","215","0","right","in","Female","Right-handed","1","3","no","right","d","841.884039657","728.850832535","17","red","2"
"100","66","18","654.81209613","1","1","4","216","0","right","out","Female","Right-handed","1","3","no","right","d","651.358566496","712.322638456","17","green","2"
"100","75","18","675.73461402","1","1","4","217","1","right","out","Female","Right-handed","1","3","no","right","s","835.988077224","641.016258155","17","green","0"
"100","80","18","701.410906632","1","1","4","218","2","left","out","Female","Right-handed","1","3","no","left","s","799.637980723","808.59417344","17","green","0"
"100","66","18","728.87718434","1","0","4","219","1","right","out","Female","Right-handed","1","3","no","right","s","580.248782418","1152.16836334","17","red","0"
"100","57","18","756.207923208","1","0","4","220","3","right","in","Female","Right-handed","1","3","no","right","s","719.669820973","1120.71489186","17","green","2"
"100","50","18","848.272595096","1","0","4","221","2","left","out","Female","Right-handed","1","3","no","left","d","657.278582301","2328.17201432","17","red","2"
"100","55","18","843.996406747","1","1","4","222","0","right","out","Female","Right-handed","1","3","no","right","s","1042.73321989","576.840580025","17","red","2"
"100","60","18","858.778534515","1","1","4","223","2","left","out","Female","Right-handed","1","3","no","left","d","959.297526095","1024.33784275","17","green","1"
"100","63","18","867.109524709","1","1","4","224","1","right","out","Female","Right-handed","1","3","no","right","s","868.981605906","1031.85724741","17","red","3"
"100","58","18","904.5552863","1","0","4","225","3","left","in","Female","Right-handed","1","3","no","left","s","1016.54166397","1616.37566363","17","red","3"
"100","61","18","910.236739944","1","1","4","226","1","right","out","Female","Right-handed","1","3","no","right","d","1156.93830727","799.890060057","17","red","1"
"100","64","18","931.829217213","1","1","4","227","2","right","in","Female","Right-handed","1","3","no","right","d","728.586886872","1696.47595657","17","green","0"
"100","66","18","920.190164886","1","1","4","228","2","left","out","Female","Right-handed","1","3","no","left","d","802.204635823","712.282228792","17","green","1"
"100","68","18","923.945634489","1","1","4","229","2","right","in","Female","Right-handed","1","3","no","right","s","863.867538404","1096.68781867","17","green","1"
"100","70","18","920.637475847","1","1","4","230","3","right","in","Female","Right-handed","1","3","no","right","s","591.065743958","1144.34813118","17","red","0"
"100","72","18","920.319304766","1","1","4","231","3","left","out","Female","Right-handed","1","3","no","left","d","829.871785908","999.949006852","17","green","0"
"100","73","18","922.851486179","1","1","4","232","0","left","in","Female","Right-handed","1","3","no","left","d","1240.45706537","696.404437879","17","red","3"
"100","75","18","917.339995369","1","1","4","233","0","right","out","Female","Right-handed","1","3","no","right","d","569.120089183","1056.12325076","17","red","0"
"100","76","18","918.089366324","1","1","4","234","3","left","in","Female","Right-handed","1","3","no","left","d","1097.6159581","768.537612738","17","green","2"
"100","77","18","912.257054387","1","1","4","235","1","right","in","Female","Right-handed","1","3","no","right","s","531.341863835","1048.21514362","17","green","1"
"100","78","18","916.430018675","1","1","4","236","0","left","in","Female","Right-handed","1","3","no","left","d","720.661461303","1295.80900468","17","green","1"
"100","79","18","914.242407526","1","1","4","237","2","left","in","Female","Right-handed","1","3","no","left","s","599.451711413","1128.40299083","17","green","2"
"100","80","18","914.367880603","1","1","4","238","1","left","in","Female","Right-handed","1","3","no","left","s","938.935866014","895.822602857","17","red","2"
"100","80","18","905.319626382","1","1","4","239","1","right","out","Female","Right-handed","1","3","no","right","s","549.622105497","808.604436211","17","red","1"
"100","81","18","904.832574161","1","1","4","240","3","left","in","Female","Right-handed","1","3","no","left","d","936.243812671","848.094620191","17","red","1"
"100","82","18","899.22251829","1","1","4","241","2","right","out","Female","Right-handed","1","3","no","right","d","671.717660884","823.784358638","17","green","0"
"100","82","18","898.968308317","1","1","4","242","2","right","in","Female","Right-handed","1","3","no","right","d","1055.38946257","728.311395589","17","green","3"
"100","83","18","900.750208623","1","1","4","243","3","right","in","Female","Right-handed","1","3","no","right","s","1304.97333924","599.877295735","17","green","1"
"100","83","18","903.822795615","1","1","4","244","1","left","in","Female","Right-handed","1","3","no","left","d","1007.55564507","984.445165689","17","red","1"
"100","84","18","894.987780486","1","1","4","245","1","right","out","Female","Right-handed","1","3","no","right","s","634.022499845","608.182123149","17","green","1"
"100","81","18","891.29769232","1","0","4","246","3","left","in","Female","Right-handed","1","3","no","left","d","866.705836246","679.72390578","17","green","1"
"100","82","18","890.664583714","1","1","4","247","3","left","in","Female","Right-handed","1","3","no","left","s","979.293574927","760.250424462","17","red","0"
"100","82","18","884.155677636","1","1","4","248","1","left","out","Female","Right-handed","1","3","no","left","s","669.796598276","655.909143681","17","red","0"
"100","83","18","880.010241569","1","1","4","249","1","left","out","Female","Right-handed","1","3","no","left","d","509.5187209","960.321237588","17","green","1"
"100","83","18","875.621073222","1","1","4","250","3","right","in","Female","Right-handed","1","3","no","right","s","939.067678491","496.154346957","17","red","1"
"100","84","18","866.109350611","1","1","4","251","0","left","out","Female","Right-handed","1","3","no","left","s","500.711979798","527.639248175","17","green","0"
"100","82","18","861.306968601","1","0","4","252","1","left","out","Female","Right-handed","1","3","no","left","d","701.340831143","656.292073356","17","red","0"
"100","82","18","863.220214069","1","1","4","253","0","left","out","Female","Right-handed","1","3","no","left","d","1075.80468149","799.868893089","17","red","2"
"100","82","18","858.884199998","1","1","4","254","2","left","out","Female","Right-handed","1","3","no","left","d","610.436084419","760.451189936","17","red","2"
"100","83","18","861.793213821","1","1","4","255","0","right","in","Female","Right-handed","1","3","no","right","s","1066.12592549","895.999635672","17","green","1"
"100","83","18","858.777091685","1","1","4","256","2","right","in","Female","Right-handed","1","3","no","right","d","792.562761661","671.637162266","17","red","1"
"100","81","18","858.706267982","1","0","4","257","3","right","in","Female","Right-handed","1","3","no","right","s","855.20094828","856.120749209","17","red","1"
"100","82","18","864.428659018","1","1","4","258","0","right","in","Female","Right-handed","1","3","no","right","d","728.766485379","1503.66124386","17","red","1"
"100","82","18","862.818121177","1","1","4","259","3","right","out","Female","Right-handed","1","3","no","right","d","804.367835703","776.320000923","17","red","2"
"100","82","18","862.351722223","1","1","4","260","0","left","in","Female","Right-handed","1","3","no","left","s","513.908942274","1167.88579844","17","green","0"
"100","83","18","864.637523575","1","1","4","261","2","left","in","Female","Right-handed","1","3","no","left","s","712.588508389","1231.5518658","17","green","2"
"100","83","18","865.850982694","1","1","4","262","2","right","out","Female","Right-handed","1","3","no","right","s","976.109229246","872.084811546","17","red","3"
"100","84","18","865.717874477","1","1","4","263","0","left","out","Female","Right-handed","1","3","no","left","d","950.724904475","767.666239265","17","green","3"
"100","84","18","869.171124464","1","1","4","264","3","right","in","Female","Right-handed","1","3","no","right","d","1323.34049375","760.326753828","17","red","2"
"100","84","18","875.086962189","1","1","4","265","0","left","out","Female","Right-handed","1","3","no","left","s","1209.71621512","1143.87315727","17","red","1"
"100","83","18","872.733357006","1","0","4","266","0","right","out","Female","Right-handed","1","3","no","right","s","845.426620219","655.265154746","17","green","1"
"100","83","18","871.17183168","1","1","4","267","2","left","in","Female","Right-handed","1","3","no","left","d","752.870850072","823.95112868","17","red","1"
"100","83","18","871.207300819","1","1","4","268","2","right","in","Female","Right-handed","1","3","no","right","s","618.598836586","1127.64643212","17","green","1"
"100","83","18","870.803376768","1","1","4","269","2","left","in","Female","Right-handed","1","3","no","left","s","689.04667188","1008.12843602","17","green","0"
"100","84","18","868.441938272","1","1","4","270","0","right","out","Female","Right-handed","1","3","no","right","d","544.747288865","927.655476183","17","green","0"
"100","84","18","866.818035547","1","1","4","271","1","left","in","Female","Right-handed","1","3","no","left","s","1021.24650344","527.264657002","17","red","2"
"100","83","18","865.565491721","1","0","4","272","1","left","in","Female","Right-handed","1","3","no","left","d","881.906925639","703.928973922","17","green","2"
"100","83","18","862.630003128","1","1","4","273","3","right","out","Female","Right-handed","1","3","no","right","d","611.448891717","767.423460568","17","green","1"
"100","83","18","867.356086943","1","1","4","274","3","left","out","Female","Right-handed","1","3","no","left","s","590.037863214","1711.80436848","17","red","0"
"100","83","18","868.223841938","1","1","4","275","1","right","in","Female","Right-handed","1","3","no","right","s","914.619831652","927.693961577","17","red","3"
"100","84","18","867.461840077","1","1","4","276","1","left","out","Female","Right-handed","1","3","no","left","s","944.21285502","696.22259439","17","red","2"
"100","84","18","866.177298484","1","1","4","277","0","left","out","Female","Right-handed","1","3","no","left","d","786.802460243","783.699896025","17","green","1"
"100","100","18","797.619101071","1","1","5","278","2","left","in","Female","Right-handed","1","3","no","left","s","938.514130234","656.724071909","17","green","0"
"100","100","18","670.167661621","1","1","5","279","3","left","in","Female","Right-handed","1","3","no","left","s","477.054687104","608.377757239","17","red","0"
"100","100","18","727.387051247","1","1","5","280","1","right","in","Female","Right-handed","1","3","no","right","d","1019.87481984","663.776841158","17","red","2"
"100","100","18","753.136359205","1","1","5","281","2","right","out","Female","Right-handed","1","3","no","right","d","684.389297725","976.379268431","17","red","1"
"100","100","18","777.006580361","1","1","5","282","3","left","out","Female","Right-handed","1","3","no","left","s","1048.98324795","695.991682023","17","green","3"
"100","100","18","765.352411826","1","1","5","283","1","left","in","Female","Right-handed","1","3","no","left","d","789.57437078","624.588767524","17","red","0"
"100","100","18","755.766097135","1","1","5","284","1","right","in","Female","Right-handed","1","3","no","right","d","772.27229956","624.224118412","17","red","1"
"100","87","18","772.468875739","1","0","5","285","2","left","out","Female","Right-handed","1","3","no","left","d","898.911376474","879.865275462","17","red","1"
"100","77","18","777.406518442","1","0","5","286","0","right","out","Female","Right-handed","1","3","no","right","s","665.422412482","968.392907654","17","green","1"
"100","80","18","789.613930558","1","1","5","287","3","left","out","Female","Right-handed","1","3","no","left","s","671.037752247","1127.92352695","17","green","0"
"100","81","18","819.188765204","1","1","5","288","2","right","in","Female","Right-handed","1","3","no","right","s","741.448384993","1488.42583832","17","green","3"
"100","83","18","823.341843416","1","1","5","289","2","left","out","Female","Right-handed","1","3","no","left","s","841.843629993","896.207777513","17","green","2"
"100","84","18","813.088391724","1","1","5","290","0","right","out","Female","Right-handed","1","3","no","right","s","755.484970492","624.608972356","17","green","3"
"100","85","18","809.738930661","1","1","5","291","1","right","out","Female","Right-handed","1","3","no","right","s","596.226635356","936.165238324","17","green","1"
"100","86","18","797.779178931","1","1","5","292","2","left","in","Female","Right-handed","1","3","no","left","s","764.79170101","495.893608409","17","green","0"
"100","87","18","789.601100089","1","1","5","293","0","right","out","Female","Right-handed","1","3","no","right","s","757.453177706","576.406657204","17","green","1"
"100","88","18","783.448788259","1","1","5","294","1","left","out","Female","Right-handed","1","3","no","left","d","538.026776855","831.996821106","17","red","0"
"100","88","18","798.26809667","1","1","5","295","3","right","in","Female","Right-handed","1","3","no","right","s","1092.64043802","1007.75224129","17","green","2"
"100","89","18","805.658488982","1","1","5","296","2","left","out","Female","Right-handed","1","3","no","left","s","1237.12839946","640.242701726","17","green","3"
"100","90","18","807.471161611","1","1","5","297","1","right","in","Female","Right-handed","1","3","no","right","s","875.932388859","807.891494279","17","red","0"
"100","90","18","807.351599173","1","1","5","298","0","right","in","Female","Right-handed","1","3","no","right","d","945.449198317","664.471502528","17","red","1"
"100","90","18","811.949516725","1","1","5","299","1","right","out","Female","Right-handed","1","3","no","right","s","1177.00715764","640.004412992","17","red","2"
"100","91","18","802.45697312","1","1","5","300","0","left","out","Female","Right-handed","1","3","no","left","d","467.612936994","719.629090596","17","red","0"
"100","91","18","804.593897307","1","1","5","301","3","right","out","Female","Right-handed","1","3","no","right","d","995.1950985","712.291208718","17","green","3"
"100","92","18","807.623295979","1","1","5","302","1","left","out","Female","Right-handed","1","3","no","left","s","888.820506045","871.837222175","17","green","2"
"100","92","18","808.114456698","1","1","5","303","3","right","out","Female","Right-handed","1","3","no","right","d","928.301068675","712.485880671","17","green","1"
"100","92","18","817.772779665","1","1","5","304","0","right","in","Female","Right-handed","1","3","no","right","d","1089.94742254","1047.8309311","17","green","2"
"100","92","18","830.245162959","1","1","5","305","2","left","out","Female","Right-handed","1","3","no","left","d","574.601692202","1759.39733155","17","red","2"
"100","93","18","827.669691449","1","1","5","306","1","left","in","Female","Right-handed","1","3","no","left","d","656.046087543","855.066890823","17","green","2"
"100","93","18","835.500584871","1","1","5","307","0","left","in","Female","Right-handed","1","3","no","left","d","1229.61540904","895.577579179","17","red","1"
"100","93","18","828.877491947","1","1","5","308","2","right","in","Female","Right-handed","1","3","no","right","s","652.169646185","608.199762288","17","green","0"
"100","93","18","820.420695072","1","1","5","309","0","left","out","Female","Right-handed","1","3","no","left","s","540.733582932","575.786400929","17","red","0"
"100","93","18","817.299336424","1","1","5","310","3","right","in","Female","Right-handed","1","3","no","right","d","827.376970212","607.454749194","17","green","1"
"100","94","18","825.630186072","1","1","5","311","0","right","in","Female","Right-handed","1","3","no","right","s","1001.05482052","1200.04162837","17","red","2"
"100","94","18","819.544619737","1","1","5","312","3","left","out","Female","Right-handed","1","3","no","left","d","641.659926377","583.610802337","17","green","1"
"100","94","18","816.396267572","1","1","5","313","0","right","in","Female","Right-handed","1","3","no","right","s","476.205763444","936.20212016","17","red","0"
"100","94","18","812.893598754","1","1","5","314","2","right","in","Female","Right-handed","1","3","no","right","d","693.779413265","679.815629303","17","red","1"
"100","92","18","809.947310625","1","0","5","315","0","right","out","Female","Right-handed","1","3","no","right","d","666.392885847","735.476413905","17","red","2"
"100","89","18","811.819200156","1","0","5","316","2","left","in","Female","Right-handed","1","3","no","left","s","621.982985607","1143.91901903","17","red","1"
"100","90","18","814.088536772","1","1","5","317","2","left","out","Female","Right-handed","1","3","no","left","d","669.567289467","1135.61804016","17","green","1"
"100","90","18","813.91815452","1","1","5","318","1","left","in","Female","Right-handed","1","3","no","left","s","918.085120713","696.120608095","17","red","1"
"100","90","18","831.127658253","1","1","5","319","1","left","in","Female","Right-handed","1","3","no","left","s","1193.71238454","1879.72223808","17","green","3"
"100","90","18","832.687645125","1","1","5","320","0","right","out","Female","Right-handed","1","3","no","right","s","1068.18361125","728.230576261","17","red","1"
"100","90","18","828.464587139","1","1","5","321","0","right","out","Female","Right-handed","1","3","no","right","d","581.851378387","711.894809155","17","green","3"
"100","91","18","840.830088623","1","1","5","322","3","left","in","Female","Right-handed","1","3","no","left","d","1258.51665744","1511.30765032","17","green","2"
"100","91","18","838.266733289","1","1","5","323","0","right","in","Female","Right-handed","1","3","no","right","d","733.858744491","711.972742077","17","green","2"
"100","91","18","838.708793316","1","1","5","324","1","right","in","Female","Right-handed","1","3","no","right","s","590.763954324","1127.3231548","17","green","1"
"100","91","18","836.925143128","1","1","5","325","1","right","out","Female","Right-handed","1","3","no","right","s","626.082000829","880.105167754","17","red","1"
"100","91","18","835.616516449","1","1","5","326","2","left","in","Female","Right-handed","1","3","no","left","d","601.858331414","943.746540323","17","green","0"
"100","90","18","843.538331132","1","0","5","327","3","left","out","Female","Right-handed","1","3","no","left","s","568.132938815","1895.28156235","17","green","0"
"100","90","18","845.4557924","1","1","5","328","2","right","out","Female","Right-handed","1","3","no","right","d","1130.80672442","751.850987118","17","green","2"
"100","90","18","846.483543867","1","1","5","329","1","left","in","Female","Right-handed","1","3","no","left","s","606.367216089","1191.43052136","17","red","3"
"100","88","18","846.72002598","1","0","5","330","0","left","out","Female","Right-handed","1","3","no","left","s","782.023857096","936.01033461","17","red","0"
"100","87","18","849.078560473","1","0","5","331","3","left","out","Female","Right-handed","1","3","no","left","d","772.631496576","1175.53028063","17","red","2"
"100","87","18","847.169880304","1","1","5","332","3","right","in","Female","Right-handed","1","3","no","right","d","537.18875739","951.013544935","17","green","0"
"100","87","18","847.501315147","1","1","5","333","3","right","in","Female","Right-handed","1","3","no","right","s","883.685912999","847.774549994","17","red","1"
"100","87","18","851.304327409","1","1","5","334","2","left","in","Female","Right-handed","1","3","no","left","d","1017.27160362","1111.2744246","17","green","1"
"100","87","18","852.621835193","1","1","5","335","3","right","out","Female","Right-handed","1","3","no","right","s","727.746622425","1127.6929353","17","red","1"
"100","86","18","853.619342616","1","0","5","336","3","left","out","Female","Right-handed","1","3","no","left","s","535.471667373","1287.47787892","17","red","2"
"100","86","18","854.124950103","1","1","5","337","2","right","out","Female","Right-handed","1","3","no","right","s","631.962569105","1135.94901455","17","red","2"
"100","85","18","860.859457932","1","0","5","338","1","left","in","Female","Right-handed","1","3","no","left","d","1314.44780194","1215.4120535","17","red","0"
"100","83","18","862.129540058","1","0","5","339","3","right","out","Female","Right-handed","1","3","no","right","s","584.094435461","1295.11466403","17","red","1"
"100","84","18","871.056737357","1","1","5","340","0","left","in","Female","Right-handed","1","3","no","left","d","545.560292823","2303.52564699","17","red","1"
"100","84","18","870.088384214","1","1","5","341","1","left","in","Female","Right-handed","1","3","no","left","d","691.133221683","927.031050658","17","green","1"
"100","0","18","1352.30732768","1","0","6","342","3","right","in","Female","Right-handed","1","3","no","right","d","1489.33184865","1215.28280671","17","red","1"
"100","50","18","1050.16939988","1","1","6","343","2","left","in","Female","Right-handed","1","3","no","left","d","976.083572317","519.979371828","17","red","2"
"100","66","18","931.631177788","1","1","6","344","1","right","out","Female","Right-handed","1","3","no","right","d","757.564785351","631.544681863","17","red","2"
"100","75","18","852.507411646","1","1","6","345","2","right","out","Female","Right-handed","1","3","no","right","d","566.130094745","664.142131694","17","red","2"
"100","80","18","860.35055063","1","1","6","346","3","left","out","Female","Right-handed","1","3","no","left","s","719.721134831","1063.7250783","17","red","1"
"100","83","18","846.931532773","1","1","6","347","3","right","in","Female","Right-handed","1","3","no","right","s","751.323737214","808.349149762","17","green","1"
"100","85","18","824.493772743","1","1","6","348","0","left","in","Female","Right-handed","1","3","no","left","d","619.881362358","759.853062764","17","green","1"
"100","87","18","806.627670004","1","1","6","349","1","right","out","Female","Right-handed","1","3","no","right","s","587.512900625","775.617001051","17","green","1"
"100","88","18","816.298895961","1","1","6","350","3","left","out","Female","Right-handed","1","3","no","left","s","595.185605436","1192.15180179","17","red","0"
"100","90","18","801.548315526","1","1","6","351","2","left","in","Female","Right-handed","1","3","no","left","d","601.822732425","735.763450806","17","red","1"
"100","90","18","797.169944446","1","1","6","352","2","right","in","Female","Right-handed","1","3","no","right","d","739.392302793","767.3801645","17","green","0"
"100","83","18","797.902730411","1","0","6","353","0","left","in","Female","Right-handed","1","3","no","left","d","971.962427992","639.964324039","17","green","2"
"100","84","18","806.334328345","1","1","6","354","0","right","out","Female","Right-handed","1","3","no","right","d","1055.54532842","759.481678707","17","red","3"
"100","85","18","808.563854738","1","1","6","355","0","right","out","Female","Right-handed","1","3","no","right","s","860.036638096","815.058757577","17","red","3"
"100","86","18","815.704146951","1","1","6","356","1","right","in","Female","Right-handed","1","3","no","right","s","1119.70112243","711.635353453","17","red","3"
"100","87","18","814.42698575","1","1","6","357","2","left","out","Female","Right-handed","1","3","no","left","d","1079.30011745","511.239018032","17","red","2"
"100","88","18","812.219091993","1","1","6","358","0","left","out","Female","Right-handed","1","3","no","left","d","761.815817882","791.969765874","17","green","2"
"100","83","18","810.982183258","1","0","6","359","1","left","out","Female","Right-handed","1","3","no","left","d","556.380461479","1023.52900805","17","green","1"
"100","84","18","807.167496235","1","1","6","360","1","right","out","Female","Right-handed","1","3","no","right","s","524.987925207","952.018334442","17","red","1"
"100","85","18","829.935254738","1","1","6","361","1","right","in","Female","Right-handed","1","3","no","right","s","989.534217684","1535.5111149","17","green","2"
"100","80","18","836.441059481","1","0","6","362","3","left","out","Female","Right-handed","1","3","no","left","s","997.942314242","935.171994435","17","green","3"
"100","81","18","844.724385681","1","1","6","363","1","left","in","Female","Right-handed","1","3","no","left","d","757.745345993","1279.60312578","17","green","3"
"100","82","18","835.532206572","1","1","6","364","1","left","in","Female","Right-handed","1","3","no","left","d","627.297497872","639.311034469","17","green","0"
"100","79","18","835.710160561","1","0","6","365","0","right","out","Female","Right-handed","1","3","no","right","d","1015.67991184","663.926292773","17","green","2"
"100","76","18","851.637213581","1","0","6","366","0","right","out","Female","Right-handed","1","3","no","right","s","916.325376051","1551.44759604","17","green","1"
"100","76","18","847.841258011","1","1","6","367","2","right","in","Female","Right-handed","1","3","no","right","s","505.917450111","999.967287415","17","red","3"
"100","77","18","848.014270052","1","1","6","368","1","left","in","Female","Right-handed","1","3","no","left","s","961.560788001","743.46437824","17","red","0"
"100","75","18","864.31994796","1","0","6","369","3","right","in","Female","Right-handed","1","3","no","right","s","977.924457019","1631.22204597","17","red","0"
"100","75","18","858.936210171","1","1","6","370","0","left","in","Female","Right-handed","1","3","no","left","d","696.74118508","719.641919062","17","green","1"
"100","76","18","855.24427642","1","1","6","371","2","left","out","Female","Right-handed","1","3","no","left","s","633.157219891","863.199175386","17","green","1"
"100","77","18","856.378316849","1","1","6","372","1","right","out","Female","Right-handed","1","3","no","right","s","1012.85572531","767.943334104","17","green","2"
"100","78","18","854.939964188","1","1","6","373","0","right","in","Female","Right-handed","1","3","no","right","s","597.385687153","1023.31637624","17","green","0"
"100","78","18","849.321011709","1","1","6","374","3","right","out","Female","Right-handed","1","3","no","right","d","572.051714107","766.977350703","17","green","0"
"100","79","18","842.949453094","1","1","6","375","2","right","in","Female","Right-handed","1","3","no","right","d","617.665565771","647.710471813","17","green","0"
"100","80","18","840.874668556","1","1","6","376","0","left","out","Female","Right-handed","1","3","no","left","s","637.263932195","903.400056317","17","red","1"
"100","77","18","841.957139636","1","0","6","377","0","right","out","Female","Right-handed","1","3","no","right","s","919.916384067","839.770870789","17","red","2"
"100","78","18","852.11848488","1","1","6","378","2","right","out","Female","Right-handed","1","3","no","right","s","476.659249676","1959.19457766","17","green","0"
"100","78","18","848.247506796","1","1","6","379","1","left","out","Female","Right-handed","1","3","no","left","d","506.027133486","904.015501916","17","green","0"
"100","79","18","843.588198418","1","1","6","380","2","left","out","Female","Right-handed","1","3","no","left","s","565.498934275","767.570025779","17","green","1"
"100","77","18","837.215701175","1","0","6","381","2","left","out","Female","Right-handed","1","3","no","left","s","586.151800508","591.224816921","17","red","0"
"100","78","18","836.995858737","1","1","6","382","1","right","out","Female","Right-handed","1","3","no","right","d","832.611945994","823.792376428","17","green","1"
"100","78","18","836.110821962","1","1","6","383","2","right","in","Female","Right-handed","1","3","no","right","s","792.328642177","807.31998617","17","red","2"
"100","79","18","835.956076918","1","1","6","384","0","left","in","Female","Right-handed","1","3","no","left","s","1204.02871524","454.884854908","17","green","1"
"100","79","18","841.334347229","1","1","6","385","2","right","in","Female","Right-handed","1","3","no","right","s","737.645065883","1407.55487536","17","red","1"
"100","80","18","841.852335532","1","1","6","386","3","left","out","Female","Right-handed","1","3","no","left","d","626.13716323","1103.15047853","17","red","2"
"100","80","18","838.980518833","1","1","6","387","1","right","in","Female","Right-handed","1","3","no","right","s","571.759545821","847.73798887","17","red","1"
"100","80","18","844.752634513","1","1","6","388","0","left","out","Female","Right-handed","1","3","no","left","d","445.28755966","1775.25235194","17","red","0"
"100","79","18","844.172360501","1","0","6","389","1","left","in","Female","Right-handed","1","3","no","left","s","529.906358621","1103.89260522","17","green","1"
"100","79","18","856.208535833","1","1","6","390","3","right","in","Female","Right-handed","1","3","no","right","d","716.436727125","2151.45317642","17","green","1"
"100","80","18","861.913445706","1","1","6","391","3","right","in","Female","Right-handed","1","3","no","right","s","579.987081737","1702.9209773","17","red","0"
"100","78","18","863.934843825","1","0","6","392","3","right","out","Female","Right-handed","1","3","no","right","s","554.560102321","1375.44939716","17","red","2"
"100","78","18","865.22581996","1","1","6","393","3","left","in","Female","Right-handed","1","3","no","left","d","647.093101943","1215.03810375","17","red","3"
"100","79","18","868.902175319","1","1","6","394","1","left","in","Female","Right-handed","1","3","no","left","s","1000.56156605","1119.58374197","17","red","0"
"100","77","18","872.378574482","1","0","6","395","3","left","out","Female","Right-handed","1","3","no","left","d","666.135675127","1447.11978515","17","green","1"
"100","78","18","867.640168326","1","1","6","396","2","left","in","Female","Right-handed","1","3","no","left","d","552.766362225","670.766109506","17","red","3"
"100","78","18","863.081225097","1","1","6","397","0","left","out","Female","Right-handed","1","3","no","left","d","585.250921566","639.427773498","17","red","0"
"100","77","18","868.024883756","1","0","6","398","3","left","in","Female","Right-handed","1","3","no","left","d","682.859824006","1606.87971326","17","green","2"
"100","77","18","869.652888505","1","1","6","399","2","right","in","Female","Right-handed","1","3","no","right","d","853.529720025","1071.36859836","17","green","1"
"100","77","18","871.811962059","1","1","6","400","0","right","in","Female","Right-handed","1","3","no","right","s","795.006263497","1199.07019287","17","green","1"
"100","76","18","871.234484774","1","0","6","401","3","left","out","Female","Right-handed","1","3","no","left","s","723.72457799","950.602071926","17","green","1"
"100","77","18","871.128173472","1","1","6","402","2","left","in","Female","Right-handed","1","3","no","left","d","762.344029921","967.154960799","17","red","1"
"100","77","18","877.508919249","1","1","6","403","1","right","out","Female","Right-handed","1","3","no","right","s","958.645198658","1574.82362465","17","green","2"
"100","77","18","873.047015132","1","1","6","404","0","left","in","Female","Right-handed","1","3","no","left","s","609.35175843","583.466161397","17","red","0"
"100","78","18","877.645374769","1","1","6","405","3","right","out","Female","Right-handed","1","3","no","right","s","887.825017175","1446.8590466","17","red","2"
"100","100","18","557.588902864","1","1","7","406","2","left","out","Female","Right-handed","1","3","no","left","d","467.653667368","647.52413836","17","green","2"
"100","100","18","619.142041894","1","1","7","407","2","right","in","Female","Right-handed","1","3","no","right","d","770.277793992","591.112567856","17","green","1"
"100","66","18","669.033251167","1","0","7","408","1","right","in","Female","Right-handed","1","3","no","right","d","553.833049076","983.798290352","17","red","0"
"100","75","18","670.131421208","1","1","7","409","1","right","out","Female","Right-handed","1","3","no","right","d","475.527779079","871.324083582","17","red","0"
"100","80","18","717.59295666","1","1","7","410","3","right","out","Female","Right-handed","1","3","no","right","d","614.962608234","1199.9155887","17","red","2"
"100","83","18","725.585400267","1","1","7","411","2","right","out","Female","Right-handed","1","3","no","right","s","795.529344152","735.565892448","17","green","2"
"100","71","18","793.72472277","1","0","7","412","2","left","in","Female","Right-handed","1","3","no","left","s","1174.08194695","1231.03936864","17","red","3"
"100","62","18","800.097099452","1","0","7","413","1","left","in","Female","Right-handed","1","3","no","left","d","777.758392542","911.649079911","17","green","2"
"100","55","18","820.549073261","1","0","7","414","0","left","in","Female","Right-handed","1","3","no","left","s","1121.14528685","847.184440612","17","green","0"
"100","50","18","789.926127286","1","0","7","415","2","left","in","Female","Right-handed","1","3","no","left","d","532.780255455","495.858971555","17","green","0"
"100","54","18","786.919009762","1","1","7","416","1","left","out","Female","Right-handed","1","3","no","left","s","898.322229228","615.373439818","17","red","2"
"100","50","18","779.26238305","1","0","7","417","2","right","in","Female","Right-handed","1","3","no","right","s","711.068014596","679.010963848","17","green","1"
"100","46","18","812.861673279","1","0","7","418","2","right","in","Female","Right-handed","1","3","no","right","d","992.524853548","1439.58145851","17","green","2"
"100","42","18","815.874808295","1","0","7","419","3","right","in","Female","Right-handed","1","3","no","right","d","1199.04678092","511.04434608","17","green","1"
"100","40","18","794.499122213","1","0","7","420","1","left","out","Female","Right-handed","1","3","no","left","s","526.590521176","463.888512942","17","green","1"
"100","43","18","783.955843943","1","1","7","421","1","right","in","Female","Right-handed","1","3","no","right","d","572.352220895","679.26111891","17","green","0"
"100","41","18","799.335002568","1","0","7","422","0","left","out","Female","Right-handed","1","3","no","left","d","915.933145738","1174.8699354","17","red","3"
"100","44","18","831.422426594","1","1","7","423","1","left","out","Female","Right-handed","1","3","no","left","d","1778.37800739","975.439262671","17","green","3"
"100","47","18","846.607893956","1","1","7","424","2","right","out","Female","Right-handed","1","3","no","right","s","1089.00324753","1150.8893654","17","green","1"
"100","50","18","860.681076026","1","1","7","425","2","left","out","Female","Right-handed","1","3","no","left","s","1408.61482727","847.528243468","17","green","0"
"100","47","18","858.153564543","1","0","7","426","0","left","in","Female","Right-handed","1","3","no","left","s","992.134547505","623.072122271","17","red","0"
"100","50","18","861.975040997","1","1","7","427","3","left","in","Female","Right-handed","1","3","no","left","s","748.757723537","1135.69436952","17","red","0"
"100","52","18","878.89862275","1","1","7","428","3","left","in","Female","Right-handed","1","3","no","left","s","1207.26629904","1295.16854358","17","green","2"
"100","54","18","888.267004558","1","1","7","429","0","right","in","Female","Right-handed","1","3","no","right","d","839.651886777","1367.8276855","17","red","1"
"100","56","18","925.884705455","1","1","7","430","0","left","in","Female","Right-handed","1","3","no","left","s","1042.31886047","2615.10019352","17","green","2"
"100","57","18","930.573939595","1","1","7","431","3","left","out","Female","Right-handed","1","3","no","left","s","944.81643429","1150.79315191","17","green","3"
"100","59","18","930.86092944","1","1","7","432","0","left","out","Female","Right-handed","1","3","no","left","d","765.360002","1111.28532879","17","green","1"
"100","57","18","943.880769591","1","0","7","433","3","right","in","Female","Right-handed","1","3","no","right","s","743.966933349","1846.86597397","17","red","0"
"100","55","18","980.432399774","1","0","7","434","2","right","out","Female","Right-handed","1","3","no","right","d","1144.48411291","2863.27197692","17","red","1"
"100","53","18","970.44747182","1","0","7","435","2","right","out","Female","Right-handed","1","3","no","right","s","714.801097861","646.96802441","17","red","3"
"100","54","18","996.751124037","1","1","7","436","2","left","in","Female","Right-handed","1","3","no","left","s","1316.41280204","2255.3085791","17","green","2"
"100","56","18","1011.86117352","1","1","7","437","1","left","out","Female","Right-handed","1","3","no","left","d","1401.70894394","1558.83647107","17","green","1"
"100","54","18","1026.66168028","1","0","7","438","0","right","out","Female","Right-handed","1","3","no","right","d","1681.30276909","1319.25302415","17","red","3"
"100","55","18","1028.56384563","1","1","7","439","1","right","out","Female","Right-handed","1","3","no","right","d","999.882619546","1182.7879846","17","green","2"
"100","57","18","1027.12958243","1","1","7","440","0","left","in","Female","Right-handed","1","3","no","left","d","1069.36992354","887.359343902","17","red","0"
"100","55","18","1039.85871281","1","0","7","441","3","right","in","Female","Right-handed","1","3","no","right","d","987.810713435","1982.94583886","17","red","2"
"100","54","18","1046.4835089","1","0","7","442","0","right","out","Female","Right-handed","1","3","no","right","d","1106.49004864","1463.4622872","17","red","1"
"100","52","18","1052.95805494","1","0","7","443","0","left","in","Female","Right-handed","1","3","no","left","s","1146.04565779","1438.98685916","17","red","2"
"100","51","18","1070.7636869","1","0","7","444","0","right","in","Female","Right-handed","1","3","no","right","s","976.530965027","2518.22443784","17","red","1"
"100","52","18","1076.34338481","1","1","7","445","3","left","in","Female","Right-handed","1","3","no","left","s","1244.99834192","1342.90486475","17","green","3"
"100","51","18","1094.16017305","1","0","7","446","1","left","out","Female","Right-handed","1","3","no","left","None","613.580661859","3000.0827436","17","red","1"
"100","52","18","1096.95083274","1","1","7","447","1","right","in","Female","Right-handed","1","3","no","right","d","927.86490087","1494.87085905","17","red","1"
"100","51","18","1101.46274109","1","0","7","448","1","right","in","Female","Right-handed","1","3","no","right","d","775.513090486","1806.41269299","17","green","3"
"100","52","18","1102.9069673","1","1","7","449","2","right","out","Female","Right-handed","1","3","no","right","s","682.980090864","1647.03729812","17","red","0"
"100","53","18","1097.87647927","1","1","7","450","0","right","in","Female","Right-handed","1","3","no","right","s","818.465356411","934.604655579","17","red","2"
"100","52","18","1110.88060467","1","0","7","451","3","left","out","Female","Right-handed","1","3","no","left","s","1025.09857072","2367.03392423","17","red","1"
"100","53","18","1125.53257747","1","1","7","452","1","left","in","Female","Right-handed","1","3","no","left","s","776.602547861","2822.44410478","17","green","1"
"100","54","18","1114.69927727","1","1","7","453","3","left","out","Female","Right-handed","1","3","no","left","d","604.15879587","606.90953944","17","green","1"
"100","55","18","1107.01596006","1","1","7","454","3","left","out","Female","Right-handed","1","3","no","left","d","549.755842243","926.677626451","17","red","0"
"100","54","18","1110.50924195","1","0","7","455","3","right","out","Female","Right-handed","1","3","no","right","s","764.129431514","1799.23067696","17","green","1"
"100","54","18","1122.14931231","1","1","7","456","3","left","in","Female","Right-handed","1","3","no","left","d","1945.64643596","1462.6592253","17","red","2"
"100","53","18","1122.67005166","1","0","7","457","0","left","out","Female","Right-handed","1","3","no","left","s","947.267633206","1351.18788377","17","red","2"
"100","52","18","1130.65129426","1","0","7","458","1","right","out","Female","Right-handed","1","3","no","right","d","652.691123279","2438.66069544","17","green","1"
"100","51","18","1143.52229579","1","0","7","459","2","left","in","Female","Right-handed","1","3","no","left","None","651.23477181","3000.13598173","17","red","1"
"100","50","18","1138.39859533","1","0","7","460","0","right","in","Female","Right-handed","1","3","no","right","s","540.632558772","1182.80498232","17","green","0"
"100","51","18","1133.38636548","1","1","7","461","0","left","out","Female","Right-handed","1","3","no","left","d","677.150836447","1038.27661121","17","red","1"
"100","52","18","1128.49948845","1","1","7","462","3","right","out","Female","Right-handed","1","3","no","right","s","566.909103271","1142.75964653","17","green","0"
"100","51","18","1119.91170555","1","0","7","463","2","right","out","Female","Right-handed","1","3","no","right","s","510.418958418","750.397201342","17","green","1"
"100","52","18","1120.62554106","1","1","7","464","3","right","in","Female","Right-handed","1","3","no","right","s","661.008137736","1663.04786364","17","red","1"
"100","51","18","1113.11646653","1","0","7","465","0","left","out","Female","Right-handed","1","3","no","left","s","517.633045612","822.529093355","17","red","1"
"100","52","18","1110.8548707","1","1","7","466","1","right","in","Female","Right-handed","1","3","no","right","s","527.178385577","1423.13985656","17","green","0"
"100","53","18","1104.20814925","1","1","7","467","3","left","in","Female","Right-handed","1","3","no","left","d","606.764257076","790.75202385","17","red","1"
"100","52","18","1115.44664097","1","0","7","468","1","right","out","Female","Right-handed","1","3","no","right","d","1090.31976873","2534.14648696","17","red","2"
"100","51","18","1124.65659553","1","0","7","469","2","right","out","Female","Right-handed","1","3","no","right","None","409.67574131","3000.09172352","17","green","0"
"100","100","18","693.271566413","1","1","8","470","3","left","in","Female","Right-handed","1","3","no","left","s","658.771494894","727.771637932","17","green","3"
"100","100","18","799.295781423","1","1","8","471","1","left","in","Female","Right-handed","1","3","no","left","d","1099.36800568","711.271987186","17","red","1"
"100","66","18","797.665123188","1","0","8","472","1","right","out","Female","Right-handed","1","3","no","right","d","533.936100134","1054.8715133","17","green","0"
"100","75","18","755.123368139","1","1","8","473","3","left","out","Female","Right-handed","1","3","no","left","d","615.392682515","639.603523464","17","green","0"
"100","80","18","755.839934113","1","1","8","474","1","right","out","Female","Right-handed","1","3","no","right","s","862.119339361","655.293056658","17","green","2"
"100","83","18","797.224812859","1","1","8","475","3","right","out","Female","Right-handed","1","3","no","right","d","808.718609549","1199.57980363","17","red","3"
"100","71","18","845.292998013","1","0","8","476","0","right","out","Female","Right-handed","1","3","no","right","s","524.270172602","1743.13404527","17","green","1"
"100","62","18","974.626599469","1","0","8","477","2","right","out","Female","Right-handed","1","3","no","right","None","759.844082839","3000.07953648","17","green","2"
"100","66","18","950.75398233","1","1","8","478","0","right","in","Female","Right-handed","1","3","no","right","d","728.177017421","791.369073009","17","red","3"
"100","70","18","940.465403875","1","1","8","479","1","left","in","Female","Right-handed","1","3","no","left","s","896.85240787","798.883987701","17","red","0"
"100","63","18","1020.39692378","1","0","8","480","3","left","in","Female","Right-handed","1","3","no","left","None","639.373573235","3000.05067244","17","green","1"
"100","66","18","995.770027532","1","1","8","481","1","left","out","Female","Right-handed","1","3","no","left","d","754.782291329","694.966046262","17","green","3"
"100","61","18","1007.59394544","1","0","8","482","0","right","out","Female","Right-handed","1","3","no","right","s","707.469309502","1591.49261113","17","red","1"
"100","57","18","1029.83274385","1","0","8","483","2","right","out","Female","Right-handed","1","3","no","right","d","790.94188513","1846.93236128","17","red","2"
"100","53","18","1033.24467795","1","0","8","484","1","left","in","Female","Right-handed","1","3","no","left","s","682.472083656","1479.55142707","17","red","2"
"100","56","18","1017.95106125","1","1","8","485","1","right","in","Female","Right-handed","1","3","no","right","s","402.091232192","1175.0023893","17","red","0"
"100","52","18","1027.02494393","1","0","8","486","3","right","out","Female","Right-handed","1","3","no","right","d","1129.67365027","1214.74048336","17","red","2"
"100","50","18","1035.5300458","1","0","8","487","0","left","in","Female","Right-handed","1","3","no","left","s","1001.17701165","1359.05654338","17","green","3"
"100","47","18","1025.19641308","1","0","8","488","2","right","in","Female","Right-handed","1","3","no","right","s","775.693330417","902.688717943","17","red","1"
"100","50","18","1005.2743271","1","1","8","489","3","left","out","Female","Right-handed","1","3","no","left","d","670.164133793","583.345253116","17","green","0"
"100","47","18","982.352820169","1","0","8","490","1","right","out","Female","Right-handed","1","3","no","right","d","504.841462624","543.003900495","17","red","0"
"100","50","18","963.518819912","1","1","8","491","3","right","out","Female","Right-handed","1","3","no","right","s","496.493659852","639.515969195","17","green","0"
"100","52","18","950.892511158","1","1","8","492","1","left","out","Female","Right-handed","1","3","no","left","d","635.121899281","711.105537856","17","green","1"
"100","50","18","947.490761635","1","0","8","493","3","right","in","Female","Right-handed","1","3","no","right","s","547.645880491","1190.85516471","17","red","1"
"100","52","18","963.859571927","1","1","8","494","0","right","out","Female","Right-handed","1","3","no","right","d","714.268395857","1999.15364203","17","green","1"
"100","53","18","971.011604383","1","1","8","495","0","left","out","Female","Right-handed","1","3","no","left","s","372.7762658","1926.84856575","17","green","1"
"100","55","18","968.320106117","1","1","8","496","0","right","out","Female","Right-handed","1","3","no","right","d","421.393902503","1375.28839993","17","red","0"
"100","57","18","960.431774284","1","1","8","497","3","left","in","Female","Right-handed","1","3","no","left","s","544.023122025","950.870507551","17","red","1"
"100","58","18","962.365282043","1","1","8","498","0","left","in","Female","Right-handed","1","3","no","left","d","754.446506264","1278.56049231","17","green","2"
"100","60","18","956.206074535","1","1","8","499","1","right","in","Female","Right-handed","1","3","no","right","d","876.04527935","679.132834262","17","green","2"
"100","58","18","946.623644272","1","0","8","500","2","right","in","Female","Right-handed","1","3","no","right","d","583.620102975","734.681369796","17","green","1"
"100","59","18","959.48597925","1","1","8","501","3","left","in","Female","Right-handed","1","3","no","left","d","941.290851446","1775.14587568","17","red","2"
"100","60","18","949.674909208","1","1","8","502","0","right","in","Female","Right-handed","1","3","no","right","s","536.599289432","734.84204632","17","green","0"
"100","61","18","944.7087082","1","1","8","503","2","right","in","Female","Right-handed","1","3","no","right","s","531.307547691","1030.34060216","17","red","0"
"100","62","18","947.786068122","1","1","8","504","2","left","out","Female","Right-handed","1","3","no","left","s","705.985697543","1398.84691344","17","green","0"
"100","61","18","952.54343736","1","0","8","505","0","left","out","Female","Right-handed","1","3","no","left","d","607.643648339","1630.45907303","17","red","2"
"100","59","18","954.539799541","1","0","8","506","2","right","in","Female","Right-handed","1","3","no","right","s","869.836943798","1182.98073229","17","green","1"
"100","60","18","946.516096162","1","1","8","507","0","left","in","Female","Right-handed","1","3","no","left","s","724.486588802","574.791553481","17","red","2"
"100","58","18","938.803736938","1","0","8","508","3","right","in","Female","Right-handed","1","3","no","right","s","500.174787834","791.293385066","17","green","0"
"100","60","18","940.403161768","1","1","8","509","1","left","in","Female","Right-handed","1","3","no","left","s","550.805531377","1454.75592883","17","green","2"
"100","60","18","942.644778573","1","1","8","510","1","left","out","Female","Right-handed","1","3","no","left","d","546.288628913","1518.33027268","17","red","1"
"100","61","18","942.831175906","1","1","8","511","2","left","out","Female","Right-handed","1","3","no","left","d","518.022710229","1382.9242229","17","red","0"
"100","62","18","941.556396937","1","1","8","512","0","left","in","Female","Right-handed","1","3","no","left","s","1033.49897019","742.53239027","17","green","2"
"100","63","18","935.81896453","1","1","8","513","0","right","out","Female","Right-handed","1","3","no","right","d","716.060532395","662.158209609","17","green","1"
"100","64","18","929.973269756","1","1","8","514","3","left","out","Female","Right-handed","1","3","no","left","s","866.693649204","478.831750193","17","red","2"
"100","65","18","928.012386385","1","1","8","515","3","right","in","Female","Right-handed","1","3","no","right","s","817.292514013","862.252755394","17","green","1"
"100","65","18","922.244948318","1","1","8","516","2","right","out","Female","Right-handed","1","3","no","right","s","682.921721349","630.96387312","17","green","1"
"100","64","18","922.645539735","1","0","8","517","2","right","in","Female","Right-handed","1","3","no","right","d","692.561991952","1190.38468076","17","red","2"
"100","63","18","916.969531886","1","0","8","518","2","left","out","Female","Right-handed","1","3","no","left","d","755.076063175","533.966247025","17","red","2"
"100","64","18","911.933692231","1","1","8","519","2","right","in","Female","Right-handed","1","3","no","right","d","707.642814488","622.712283834","17","green","1"
"100","64","18","911.528482908","1","1","8","520","2","right","in","Female","Right-handed","1","3","no","right","s","976.214422657","806.321610897","17","red","3"
"100","65","18","907.814546927","1","1","8","521","1","right","out","Female","Right-handed","1","3","no","right","s","677.787769726","759.019853974","17","red","1"
"100","66","18","909.616766678","1","1","8","522","0","left","out","Female","Right-handed","1","3","no","left","s","1192.35866078","814.305726691","17","red","0"
"100","66","18","904.661266643","1","1","8","523","2","left","in","Female","Right-handed","1","3","no","left","d","653.953764929","630.085764701","17","green","1"
"100","65","18","906.930855099","1","0","8","524","2","left","out","Female","Right-handed","1","3","no","left","s","692.527355098","1366.44990837","17","red","0"
"100","66","18","920.247364186","1","1","8","525","1","left","in","Female","Right-handed","1","3","no","left","d","1003.21192688","2302.09880099","17","red","3"
"100","64","18","926.640539247","1","0","8","526","3","right","in","Female","Right-handed","1","3","no","right","d","1018.67022699","1550.64645841","17","green","2"
"100","63","18","916.184597473","1","0","8","527","3","left","in","Female","Right-handed","1","3","no","left","s","610.127559839","30.2642727913","17","red","1"
"98","62","18","909.974794024","0","0","8","528","0","right","out","Female","Right-handed","1","3","no","left","d","330.801849607","768.810538328","17","red","0"
"98","63","18","915.180892579","1","1","8","529","1","right","in","Female","Right-handed","1","3","no","right","s","694.416667255","1750.26474744","17","red","1"
"98","63","18","911.52901284","1","1","8","530","0","left","in","Female","Right-handed","1","3","no","left","d","514.920466727","869.911990316","17","green","1"
"98","64","18","908.368285382","1","1","8","531","1","left","out","Female","Right-handed","1","3","no","left","d","632.525738711","798.602082188","17","red","1"
"98","63","18","913.53848879","1","0","8","532","2","left","out","Female","Right-handed","1","3","no","left","s","846.200176648","1621.98202347","17","green","3"
"98","64","18","917.492783888","1","1","8","533","3","left","out","Female","Right-handed","1","3","no","left","s","542.584730407","1790.64201977","17","green","1"
dis_reply=No
dis_loc=1
tar_loc=3
