"acc_1","acc_2","age","avg_rt","correct_1","correct_2","count_block_loop","count_trial_sequence","cue_position","detection","dis_shape","gender","hand","high_loc","low_loc","practice","response_keyboard_response_1","response_keyboard_response_2","response_time_keyboard_response_1","response_time_keyboard_response_2","subject_nr","tar_color","tar_position"
"100","0","18","1922.34607828","1","0","0","0","1","right","out","Female","Right-handed","1","2","yes","right","d","2029.10444554","1815.58771102","4","green","3"
"50","0","18","2021.07714254","0","0","0","1","3","left","out","Female","Right-handed","1","2","yes","None","s","3000.12604048","1239.49037314","4","green","0"
"66","0","18","2018.67943364","1","0","0","2","0","left","out","Female","Right-handed","1","2","yes","left","d","2601.94782245","1425.8202092","4","green","3"
"75","0","18","1969.95582329","1","0","0","3","2","right","out","Female","Right-handed","1","2","yes","right","s","2502.36622551","1145.20375902","4","green","0"
"80","0","18","1948.4018196","1","0","0","4","2","right","in","Female","Right-handed","1","2","yes","right","s","2258.79220512","1465.57940454","4","red","0"
"83","0","18","1905.95867839","1","0","0","5","1","left","in","Female","Right-handed","1","2","yes","left","d","2282.25914563","1105.22679909","4","red","2"
"71","14","18","1942.57793411","0","1","0","6","0","left","out","Female","Right-handed","1","2","yes","None","d","3000.13053047","1324.45640635","4","green","2"
"75","12","18","1918.63818719","1","0","0","7","3","right","in","Female","Right-handed","1","2","yes","right","d","2196.09428469","1306.02563272","4","green","2"
"77","22","18","1875.28047302","1","1","0","8","3","left","in","Female","Right-handed","1","2","yes","left","s","1775.507802","1281.32971739","4","green","3"
"80","30","18","1826.25209827","1","1","0","9","3","right","out","Female","Right-handed","1","2","yes","right","s","1704.9459822","1065.04746883","4","red","1"
"81","36","18","1766.96174463","1","1","0","10","2","right","out","Female","Right-handed","1","2","yes","right","d","1338.59763454","1009.51878196","4","green","2"
"83","41","18","1726.17710739","1","1","0","11","2","left","in","Female","Right-handed","1","2","yes","left","d","1514.06810547","1041.02409009","4","green","1"
"84","46","18","1699.01128661","1","1","0","12","1","left","in","Female","Right-handed","1","2","yes","left","d","1672.51990509","1073.52296919","4","green","3"
"85","42","18","1665.83935901","1","0","0","13","3","right","out","Female","Right-handed","1","2","yes","right","s","1356.13233416","1113.07626635","4","green","3"
"86","46","18","1641.6511174","1","1","0","14","1","left","out","Female","Right-handed","1","2","yes","left","d","1500.55034467","1105.48112504","4","red","1"
"87","50","18","1632.24135404","1","1","0","15","2","left","out","Female","Right-handed","1","2","yes","left","d","1989.06462573","993.125181604","4","red","3"
"88","52","18","1614.67568433","1","1","0","16","2","left","out","Female","Right-handed","1","2","yes","left","s","1673.61642516","993.633512783","4","green","1"
"88","55","18","1586.84078284","1","1","0","17","3","right","in","Female","Right-handed","1","2","yes","right","d","1330.10898492","897.185929906","4","green","2"
"89","57","18","1550.59709797","1","1","0","18","2","left","in","Female","Right-handed","1","2","yes","left","d","930.625462229","865.796078698","4","red","2"
"90","60","18","1546.70841931","1","1","0","19","2","left","in","Female","Right-handed","1","2","yes","left","d","1760.38262425","1185.26442522","4","red","3"
"90","61","18","1534.97869071","1","1","0","20","1","left","in","Female","Right-handed","1","2","yes","left","d","1647.98049804","952.787739501","4","green","0"
"90","63","18","1519.60765434","1","1","0","21","0","left","in","Female","Right-handed","1","2","yes","left","d","1512.35549443","881.276286495","4","red","2"
"100","100","18","1348.24566411","1","1","1","22","0","right","out","Female","Right-handed","1","2","no","right","d","1591.31937117","1105.17195705","4","red","3"
"100","100","18","1124.81446714","1","1","1","23","1","left","out","Female","Right-handed","1","2","no","left","s","808.892812999","993.873727328","4","green","3"
"100","100","18","1093.04967491","1","1","1","24","3","left","out","Female","Right-handed","1","2","no","left","d","1193.47854393","865.561637","4","red","1"
"100","100","18","1089.4151738","1","1","1","25","0","left","in","Female","Right-handed","1","2","no","left","d","1260.07858768","896.944753221","4","green","1"
"100","100","18","1063.05615761","1","1","1","26","2","left","in","Female","Right-handed","1","2","no","left","d","1153.69625721","761.543928473","4","green","3"
"100","100","18","990.225208352","1","1","1","27","0","right","in","Female","Right-handed","1","2","no","right","s","835.029694879","417.111229276","4","green","3"
"100","100","18","1007.3665641","1","1","1","28","0","right","out","Female","Right-handed","1","2","no","right","d","1378.70031424","841.729082893","4","red","1"
"100","100","18","1005.55237559","1","1","1","29","3","right","in","Female","Right-handed","1","2","no","right","d","1072.39245348","913.313658618","4","green","1"
"100","88","18","1001.0969655","1","0","1","30","2","left","out","Female","Right-handed","1","2","no","left","s","1042.00868108","888.898688473","4","red","1"
"100","90","18","997.280780976","1","1","1","31","0","right","in","Female","Right-handed","1","2","no","right","d","1068.39411606","857.47612447","4","red","1"
"100","90","18","997.393851499","1","1","1","32","3","right","in","Female","Right-handed","1","2","no","right","d","796.106920809","1200.94219264","4","red","1"
"100","83","18","1040.07757048","1","0","1","33","2","left","out","Female","Right-handed","1","2","no","left","d","1841.60208028","1177.59487833","4","red","0"
"100","76","18","1090.49526037","1","0","1","34","1","left","in","Female","Right-handed","1","2","no","left","d","822.006153854","2569.00892418","4","red","3"
"100","78","18","1086.68289371","1","1","1","35","3","right","out","Female","Right-handed","1","2","no","right","s","832.616324454","1241.6279298","4","red","0"
"100","80","18","1096.87587461","1","1","1","36","3","left","in","Female","Right-handed","1","2","no","left","s","1550.06308438","929.092130135","4","red","0"
"100","75","18","1118.79854002","1","0","1","37","1","right","in","Female","Right-handed","1","2","no","right","d","1957.64687243","937.630169664","4","green","2"
"100","76","18","1139.90424848","1","1","1","38","2","right","in","Female","Right-handed","1","2","no","right","d","1610.14045335","1345.05071445","4","green","1"
"100","77","18","1135.91111584","1","1","1","39","2","right","in","Female","Right-handed","1","2","no","right","s","1158.47777743","977.577944649","4","red","1"
"100","78","18","1127.55363624","1","1","1","40","1","right","in","Female","Right-handed","1","2","no","right","d","913.050994116","1041.18701264","4","green","0"
"100","75","18","1113.60509114","1","0","1","41","3","left","in","Female","Right-handed","1","2","no","left","s","968.495654009","728.669814364","4","red","1"
"100","71","18","1103.68450992","1","0","1","42","3","right","out","Female","Right-handed","1","2","no","right","d","1185.26057666","625.285194638","4","green","3"
"100","72","18","1102.12597161","1","1","1","43","1","right","out","Female","Right-handed","1","2","no","right","s","777.885252495","1360.90808154","4","red","1"
"100","73","18","1097.57609064","1","1","1","44","1","left","in","Female","Right-handed","1","2","no","left","d","817.490825985","1177.46659286","4","green","1"
"100","70","18","1091.32203042","1","0","1","45","2","left","out","Female","Right-handed","1","2","no","left","d","1198.06314596","696.894144602","4","red","2"
"100","72","18","1108.2084934","1","1","1","46","2","left","in","Female","Right-handed","1","2","no","left","s","729.457807871","2297.50940172","4","green","2"
"100","73","18","1097.31304724","1","1","1","47","3","right","out","Female","Right-handed","1","2","no","right","s","736.972770767","912.881015867","4","green","3"
"100","74","18","1088.62007856","1","1","1","48","3","right","in","Female","Right-handed","1","2","no","right","d","955.64529837","769.560487562","4","green","0"
"100","71","18","1080.75154623","1","0","1","49","3","left","out","Female","Right-handed","1","2","no","left","d","775.33237162","961.26997485","4","green","2"
"100","72","18","1082.34084799","1","1","1","50","1","right","out","Female","Right-handed","1","2","no","right","s","828.753007492","1424.92958731","4","green","3"
"100","73","18","1066.68621951","1","1","1","51","0","left","out","Female","Right-handed","1","2","no","left","s","688.371820044","537.03216694","4","green","0"
"100","70","18","1083.2870609","1","0","1","52","2","right","out","Female","Right-handed","1","2","no","right","s","2073.8561907","1088.76841458","4","red","1"
"100","71","18","1079.12064058","1","1","1","53","0","left","in","Female","Right-handed","1","2","no","left","s","826.556439514","1073.36678163","4","red","3"
"100","72","18","1070.11623674","1","1","1","54","3","right","out","Female","Right-handed","1","2","no","right","s","571.009856814","992.94077124","4","red","3"
"100","73","18","1069.53992699","1","1","1","55","2","left","in","Female","Right-handed","1","2","no","left","s","844.505821915","1256.53758796","4","red","3"
"100","74","18","1075.14092846","1","1","1","56","2","left","in","Female","Right-handed","1","2","no","left","s","1114.03006883","1417.11988855","4","green","0"
"100","75","18","1073.89117522","1","1","1","57","1","right","out","Female","Right-handed","1","2","no","right","d","971.590220285","1088.70940326","4","green","1"
"100","75","18","1073.70073125","1","1","1","58","0","right","in","Female","Right-handed","1","2","no","right","d","1028.31420704","1105.37528952","4","red","2"
"100","76","18","1067.75708586","1","1","1","59","1","left","in","Female","Right-handed","1","2","no","left","d","622.818585742","1072.86582687","4","red","1"
"100","76","18","1063.24752499","1","1","1","60","1","left","in","Female","Right-handed","1","2","no","left","d","694.36595868","1089.40246552","4","green","1"
"100","77","18","1065.04034498","1","1","1","61","2","left","out","Female","Right-handed","1","2","no","left","d","1348.93391566","920.986733358","4","red","1"
"100","78","18","1076.34531605","1","1","1","62","3","right","in","Female","Right-handed","1","2","no","right","s","1152.57824933","1904.51006816","4","green","1"
"100","78","18","1073.86119231","1","1","1","63","0","left","out","Female","Right-handed","1","2","no","left","d","959.017602691","985.006635566","4","green","1"
"100","79","18","1077.01642124","1","1","1","64","2","right","out","Female","Right-handed","1","2","no","right","d","1522.62987781","896.442194887","4","green","3"
"100","79","18","1072.20194591","1","1","1","65","0","left","out","Female","Right-handed","1","2","no","left","s","953.159446653","777.199566651","4","red","2"
"100","77","18","1065.23620883","1","0","1","66","1","right","in","Female","Right-handed","1","2","no","right","d","652.741492589","864.746062117","4","red","1"
"100","78","18","1067.94341573","1","1","1","67","1","left","out","Female","Right-handed","1","2","no","left","s","1650.24601946","729.28943319","4","green","3"
"100","76","18","1072.01324709","1","0","1","68","2","left","in","Female","Right-handed","1","2","no","left","d","1149.71299333","1368.73798526","4","red","1"
"100","77","18","1062.11494648","1","1","1","69","3","left","out","Female","Right-handed","1","2","no","left","s","752.279151751","441.510484451","4","red","1"
"100","77","18","1061.45899695","1","1","1","70","2","left","out","Female","Right-handed","1","2","no","left","s","1131.06830367","928.878534826","4","green","0"
"100","78","18","1053.66081514","1","1","1","71","1","left","in","Female","Right-handed","1","2","no","left","s","926.576772761","416.523040391","4","green","2"
"100","78","18","1052.07028037","1","1","1","72","0","left","in","Female","Right-handed","1","2","no","left","d","1264.01983807","681.06724532","4","red","1"
"100","78","18","1053.54230662","1","1","1","73","3","right","out","Female","Right-handed","1","2","no","right","d","1128.67353464","1128.55775701","4","green","0"
"100","77","18","1050.73374206","1","0","1","74","0","right","in","Female","Right-handed","1","2","no","right","d","1361.30640792","448.070362015","4","red","0"
"100","77","18","1049.77946362","1","1","1","75","3","right","in","Female","Right-handed","1","2","no","right","d","1373.67441019","624.731001403","4","red","3"
"100","78","18","1055.00586527","1","1","1","76","0","left","out","Female","Right-handed","1","2","no","left","d","1746.25935602","928.203753248","4","green","1"
"100","78","18","1055.32271711","1","1","1","77","0","left","out","Female","Right-handed","1","2","no","left","s","960.908851248","1184.59028507","4","red","0"
"100","78","18","1053.58783179","1","1","1","78","0","right","out","Female","Right-handed","1","2","no","right","d","784.538778453","1128.32972958","4","green","0"
"100","77","18","1051.38047664","1","0","1","79","1","right","in","Female","Right-handed","1","2","no","right","s","738.218422692","1112.90404311","4","red","0"
"100","77","18","1055.74807678","1","1","1","80","0","left","in","Female","Right-handed","1","2","no","left","d","1665.73103796","952.406731652","4","green","3"
"100","78","18","1067.77090791","1","1","1","81","2","right","out","Female","Right-handed","1","2","no","right","d","817.149265919","2737.08662412","4","red","0"
"100","78","18","1062.56324434","1","1","1","82","1","right","out","Female","Right-handed","1","2","no","right","d","859.718554505","640.488305817","4","red","0"
"100","79","18","1064.40365423","1","1","1","83","2","left","out","Female","Right-handed","1","2","no","left","s","1160.1676178","1193.16969666","4","green","3"
"100","79","18","1067.16063853","1","1","1","84","1","right","out","Female","Right-handed","1","2","no","right","d","787.54097919","1688.64635095","4","green","0"
"100","79","18","1066.16156801","1","1","1","85","3","right","in","Female","Right-handed","1","2","no","right","s","1110.19016397","896.250087394","4","green","2"
"100","0","18","1590.39603649","1","0","2","86","3","right","out","Female","Right-handed","1","2","no","right","d","1611.3328668","1569.45920618","4","green","2"
"100","50","18","1256.20725288","1","1","2","87","1","right","out","Female","Right-handed","1","2","no","right","d","987.079087351","856.957851167","4","green","3"
"100","66","18","1112.98069368","1","1","2","88","1","right","out","Female","Right-handed","1","2","no","right","d","763.494188347","889.560962218","4","green","0"
"100","75","18","1076.27172595","1","1","2","89","3","right","in","Female","Right-handed","1","2","no","right","d","1123.17489864","809.114746864","4","green","2"
"100","80","18","1036.26113919","1","1","2","90","1","left","out","Female","Right-handed","1","2","no","left","s","775.687080948","976.75050336","4","red","0"
"100","66","18","1133.3615401","1","0","2","91","0","left","in","Female","Right-handed","1","2","no","left","s","1396.4306492","1841.29644014","4","green","1"
"100","71","18","1080.9315926","1","1","2","92","2","right","in","Female","Right-handed","1","2","no","right","s","707.890454471","824.813360675","4","red","0"
"100","75","18","1037.11036094","1","1","2","93","3","right","out","Female","Right-handed","1","2","no","right","d","763.349867193","697.37361155","4","red","3"
"100","77","18","1057.03639751","1","1","2","94","0","left","in","Female","Right-handed","1","2","no","left","s","1711.96993245","720.919447628","4","green","3"
"100","80","18","1041.68888143","1","1","2","95","2","left","in","Female","Right-handed","1","2","no","left","d","870.612235997","936.510237501","4","green","1"
"100","81","18","1032.04756207","1","1","2","96","2","left","in","Female","Right-handed","1","2","no","left","d","982.097121082","889.171615813","4","red","1"
"100","83","18","1014.68835236","1","1","2","97","3","right","out","Female","Right-handed","1","2","no","right","s","646.685456212","1000.78863493","4","red","3"
"100","84","18","1032.53531711","1","1","2","98","2","left","out","Female","Right-handed","1","2","no","left","d","764.189174887","1729.20861334","4","green","3"
"100","85","18","1035.23823208","1","1","2","99","0","left","in","Female","Right-handed","1","2","no","left","s","939.782479155","1200.96977402","4","red","0"
"100","80","18","1021.04979636","1","0","2","100","2","right","in","Female","Right-handed","1","2","no","right","s","619.372837989","1025.45055461","4","green","3"
"100","81","18","1002.82648973","1","1","2","101","2","left","out","Female","Right-handed","1","2","no","left","s","889.908295131","569.045485538","4","red","1"
"100","82","18","992.155824513","1","1","2","102","1","right","out","Female","Right-handed","1","2","no","right","s","714.518644048","928.331718005","4","red","1"
"100","83","18","979.436881303","1","1","2","103","0","right","out","Female","Right-handed","1","2","no","right","d","773.084168739","753.345524729","4","green","3"
"100","78","18","970.427844199","1","0","2","104","1","left","out","Female","Right-handed","1","2","no","left","d","831.796901008","784.733451655","4","red","2"
"100","75","18","991.693595925","1","0","2","105","0","right","out","Female","Right-handed","1","2","no","right","d","646.260831303","2145.22492612","4","red","1"
"100","76","18","988.869295829","1","1","2","106","1","right","in","Female","Right-handed","1","2","no","right","d","1071.96686643","792.799721364","4","red","2"
"100","72","18","973.501681094","1","0","2","107","1","right","in","Female","Right-handed","1","2","no","right","d","613.155482632","688.408060689","4","red","0"
"100","73","18","955.026704434","1","1","2","108","0","right","in","Female","Right-handed","1","2","no","right","d","512.162745514","584.991690309","4","red","0"
"100","75","18","978.093832644","1","1","2","109","3","right","in","Female","Right-handed","1","2","no","right","d","1832.68431575","1184.59124721","4","green","1"
"100","76","18","973.258630565","1","1","2","110","1","left","out","Female","Right-handed","1","2","no","left","d","617.2041721","1097.22338926","4","red","0"
"100","76","18","968.737009554","1","1","2","111","3","left","out","Female","Right-handed","1","2","no","left","d","998.731256691","712.661711854","4","red","1"
"100","77","18","983.962635336","1","1","2","112","3","left","in","Female","Right-handed","1","2","no","left","s","1095.25516942","1664.40264191","4","red","0"
"100","78","18","1001.26094882","1","1","2","113","0","right","out","Female","Right-handed","1","2","no","right","s","1207.84330956","1728.78751628","4","green","3"
"100","75","18","998.454729617","1","0","2","114","3","right","in","Female","Right-handed","1","2","no","right","d","902.348137263","937.413046504","4","red","1"
"100","73","18","1015.70214166","1","0","2","115","2","left","in","Female","Right-handed","1","2","no","left","d","1134.97716198","1896.77701997","4","green","3"
"100","74","18","1028.67378915","1","1","2","116","0","right","out","Female","Right-handed","1","2","no","right","d","651.351519509","2184.29490777","4","green","1"
"100","75","18","1017.92672198","1","1","2","117","1","left","in","Female","Right-handed","1","2","no","left","s","680.818050792","688.717228675","4","red","1"
"100","75","18","1007.35237078","1","1","2","118","1","right","out","Female","Right-handed","1","2","no","right","d","593.645186761","744.301078303","4","green","1"
"100","73","18","993.449229761","1","0","2","119","3","left","out","Female","Right-handed","1","2","no","left","s","565.028226011","504.262926204","4","red","3"
"100","74","18","981.956781358","1","1","2","120","1","right","in","Female","Right-handed","1","2","no","right","d","805.76232679","376.664744523","4","green","3"
"100","75","18","973.843812938","1","1","2","121","3","left","in","Female","Right-handed","1","2","no","left","d","619.394325805","760.385510669","4","green","3"
"100","75","18","977.561631591","1","1","2","122","1","left","out","Female","Right-handed","1","2","no","left","s","533.939524946","1688.86668125","4","green","3"
"100","76","18","982.164703049","1","1","2","123","3","left","in","Female","Right-handed","1","2","no","left","d","1528.57655083","776.380143205","4","green","0"
"100","74","18","978.79196927","1","0","2","124","1","right","in","Female","Right-handed","1","2","no","right","s","628.099136446","1073.15703489","4","green","1"
"100","75","18","981.636399848","1","1","2","125","0","right","in","Female","Right-handed","1","2","no","right","s","832.599647343","1352.5387374","4","green","1"
"100","75","18","987.9057073","1","1","2","126","2","left","in","Female","Right-handed","1","2","no","left","s","725.147736755","1752.20827403","4","red","1"
"100","76","18","987.628592058","1","1","2","127","1","right","out","Female","Right-handed","1","2","no","right","s","767.712214637","1184.82151963","4","green","1"
"100","74","18","982.271249962","1","0","2","128","0","left","out","Female","Right-handed","1","2","no","left","s","698.294701233","816.231062659","4","green","1"
"100","75","18","999.919610201","1","1","2","129","3","left","out","Female","Right-handed","1","2","no","left","d","940.90080775","2576.69739317","4","green","1"
"100","75","18","1012.3055415","1","1","2","130","2","left","out","Female","Right-handed","1","2","no","left","s","1154.33704314","1960.23599395","4","green","0"
"100","73","18","1019.11070754","1","0","2","131","3","left","out","Female","Right-handed","1","2","no","left","s","1041.8685292","1608.81783014","4","green","0"
"100","74","18","1014.32959971","1","1","2","132","2","left","in","Female","Right-handed","1","2","no","left","s","780.34223998","808.455038829","4","green","0"
"100","72","18","1012.69662688","1","0","2","133","2","right","in","Female","Right-handed","1","2","no","right","s","1182.87286333","689.020944527","4","green","2"
"100","73","18","1004.50000234","1","1","2","134","2","right","out","Female","Right-handed","1","2","no","right","s","709.654700411","512.46934779","4","red","0"
"100","74","18","998.224124981","1","1","2","135","2","left","out","Female","Right-handed","1","2","no","left","s","693.254365074","688.157904021","4","red","1"
"100","74","18","997.479265955","1","1","2","136","2","right","in","Female","Right-handed","1","2","no","right","d","1175.84153665","744.631092677","4","green","1"
"100","75","18","993.543173291","1","1","2","137","2","left","out","Female","Right-handed","1","2","no","left","s","633.303678008","952.301216852","4","green","3"
"100","75","18","988.305190869","1","1","2","138","0","right","out","Female","Right-handed","1","2","no","right","d","623.888165858","807.97204403","4","red","3"
"100","74","18","994.197223494","1","0","2","139","2","left","in","Female","Right-handed","1","2","no","left","s","940.503764216","1672.44614095","4","red","2"
"100","74","18","986.158006416","1","1","2","140","1","right","out","Female","Right-handed","1","2","no","right","d","574.934750802","529.145817605","4","red","1"
"100","75","18","987.72964932","1","1","2","141","3","left","out","Female","Right-handed","1","2","no","left","d","1203.63201826","944.707999818","4","green","0"
"100","75","18","981.534808727","1","1","2","142","0","left","out","Female","Right-handed","1","2","no","left","d","597.118515891","672.128955122","4","red","0"
"100","75","18","983.460441748","1","1","2","143","1","left","in","Female","Right-handed","1","2","no","left","s","1201.73114829","984.711899696","4","red","3"
"100","76","18","977.042094605","1","1","2","144","0","left","in","Female","Right-handed","1","2","no","left","s","681.3036113","528.252309299","4","green","1"
"100","76","18","972.649558944","1","1","2","145","0","right","out","Female","Right-handed","1","2","no","right","s","587.037202145","839.942707709","4","red","0"
"100","77","18","974.245721651","1","1","2","146","3","right","in","Female","Right-handed","1","2","no","right","s","875.502798868","1264.52816924","4","red","1"
"100","77","18","970.339757656","1","1","2","147","3","right","in","Female","Right-handed","1","2","no","right","s","744.070485169","720.081422789","4","red","1"
"100","77","18","971.511179636","1","1","2","148","0","left","in","Female","Right-handed","1","2","no","left","s","863.717854066","1224.56083073","4","red","2"
"100","78","18","972.317521234","1","1","2","149","0","right","in","Female","Right-handed","1","2","no","right","s","862.170410571","1184.06367321","4","red","2"
"100","100","18","1064.73284871","1","1","3","150","1","left","out","Female","Right-handed","1","2","no","left","s","1640.23975272","489.22594471","4","red","1"
"100","100","18","1072.96717239","1","1","3","151","1","left","in","Female","Right-handed","1","2","no","left","s","1057.74064911","1104.66234302","4","red","0"
"100","100","18","896.922998143","1","1","3","152","2","left","in","Female","Right-handed","1","2","no","left","s","713.353811971","376.315487328","4","red","0"
"100","100","18","933.342227793","1","1","3","153","0","right","out","Female","Right-handed","1","2","no","right","d","908.123228458","1177.07660503","4","red","1"
"100","100","18","893.101833648","1","1","3","154","3","left","in","Female","Right-handed","1","2","no","left","s","719.742107718","744.538406425","4","green","3"
"100","83","18","906.360559359","1","0","3","155","2","right","in","Female","Right-handed","1","2","no","right","s","864.157873232","1081.15050259","4","green","1"
"100","85","18","869.707823425","1","1","3","156","3","right","in","Female","Right-handed","1","2","no","right","s","762.874569522","536.708246126","4","red","1"
"100","87","18","858.660600261","1","1","3","157","2","right","out","Female","Right-handed","1","2","no","right","d","842.322082484","720.337993731","4","green","1"
"100","88","18","909.745629866","1","1","3","158","2","left","in","Female","Right-handed","1","2","no","left","d","1763.80784632","873.043887101","4","red","3"
"100","90","18","874.720594244","1","1","3","159","3","right","in","Female","Right-handed","1","2","no","right","d","534.540221664","584.450325621","4","green","3"
"100","90","18","897.249125078","1","1","3","160","3","left","out","Female","Right-handed","1","2","no","left","d","908.131567013","1336.93729983","4","red","0"
"100","91","18","910.487449512","1","1","3","161","3","left","in","Female","Right-handed","1","2","no","left","d","719.489385339","1392.72865121","4","red","1"
"100","92","18","903.043617208","1","1","3","162","2","left","out","Female","Right-handed","1","2","no","left","d","603.168137994","1024.26712114","4","green","3"
"100","92","18","906.344894023","1","1","3","163","2","left","in","Female","Right-handed","1","2","no","left","s","753.745454686","1144.77753054","4","green","3"
"100","93","18","887.814344839","1","1","3","164","0","left","in","Female","Right-handed","1","2","no","left","s","744.404668821","512.368643695","4","green","1"
"100","93","18","879.038607031","1","1","3","165","0","right","in","Female","Right-handed","1","2","no","right","s","781.917264851","712.887814997","4","green","3"
"100","94","18","870.485205082","1","1","3","166","1","left","in","Female","Right-handed","1","2","no","left","d","554.645120694","912.616427083","4","green","3"
"100","94","18","869.446334873","1","1","3","167","1","right","out","Female","Right-handed","1","2","no","right","s","759.306309144","944.264773515","4","green","3"
"100","94","18","875.910805745","1","1","3","168","2","right","out","Female","Right-handed","1","2","no","right","d","1183.71152959","800.831033282","4","green","1"
"100","95","18","864.206140641","1","1","3","169","1","right","out","Female","Right-handed","1","2","no","right","d","547.29083535","736.344171959","4","red","1"
"100","90","18","866.811748371","1","0","3","170","1","left","in","Female","Right-handed","1","2","no","left","s","1052.88793045","784.959875511","4","green","2"
"100","90","18","863.55097362","1","1","3","171","0","left","out","Female","Right-handed","1","2","no","left","d","629.628940689","960.520466985","4","red","0"
"100","91","18","886.486663652","1","1","3","172","0","left","in","Female","Right-handed","1","2","no","left","d","1510.03897954","1272.10470917","4","red","1"
"100","91","18","898.882605484","1","1","3","173","0","right","out","Female","Right-handed","1","2","no","right","d","935.547134327","1432.43140095","4","green","0"
"100","92","18","959.646535041","1","1","3","174","3","left","out","Female","Right-handed","1","2","no","left","s","2716.0134905","2119.94819833","4","red","1"
"100","92","18","959.238728604","1","1","3","175","2","left","out","Female","Right-handed","1","2","no","left","d","633.631447387","1264.45568795","4","green","2"
"100","92","18","954.327367085","1","1","3","176","3","right","in","Female","Right-handed","1","2","no","right","s","1093.14070415","560.123231024","4","red","1"
"100","92","18","940.862362197","1","1","3","177","2","left","out","Female","Right-handed","1","2","no","left","d","537.846779682","616.767680784","4","green","2"
"100","93","18","961.927111646","1","1","3","178","0","left","out","Female","Right-handed","1","2","no","left","d","2151.30116746","952.179024941","4","green","2"
"100","93","18","951.407045737","1","1","3","179","0","right","out","Female","Right-handed","1","2","no","right","d","659.872881927","632.777386863","4","green","0"
"100","93","18","944.408344614","1","1","3","180","1","left","out","Female","Right-handed","1","2","no","left","s","404.528348844","1064.36627298","4","red","1"
"100","93","18","953.636062257","1","1","3","181","0","left","in","Female","Right-handed","1","2","no","left","s","935.196594277","1544.19402408","4","green","3"
"100","93","18","945.908489425","1","1","3","182","2","right","in","Female","Right-handed","1","2","no","right","s","484.683035465","912.569282172","4","red","0"
"100","94","18","942.516662302","1","1","3","183","3","right","in","Female","Right-handed","1","2","no","right","s","445.033203487","1216.13953098","4","red","3"
"100","94","18","938.122987464","1","1","3","184","1","right","in","Female","Right-handed","1","2","no","right","s","728.740692087","848.735393897","4","green","1"
"100","94","18","927.020725124","1","1","3","185","0","left","out","Female","Right-handed","1","2","no","left","s","556.456190832","520.426895562","4","green","0"
"100","94","18","922.467650435","1","1","3","186","0","right","in","Female","Right-handed","1","2","no","right","d","885.077385004","632.036538268","4","red","1"
"100","94","18","917.02532865","1","1","3","187","1","right","out","Female","Right-handed","1","2","no","right","s","590.685320229","840.63352497","4","green","1"
"100","94","18","914.606060729","1","1","3","188","0","left","out","Female","Right-handed","1","2","no","left","s","925.05242065","720.295338811","4","red","3"
"100","95","18","911.187647649","1","1","3","189","2","left","in","Female","Right-handed","1","2","no","left","d","834.813213147","720.925861902","4","green","1"
"100","95","18","908.519341139","1","1","3","190","3","left","in","Female","Right-handed","1","2","no","left","s","851.327401841","752.246759669","4","green","2"
"100","95","18","906.375594721","1","1","3","191","3","left","out","Female","Right-handed","1","2","no","left","s","932.999064158","703.964919055","4","green","1"
"100","93","18","919.042227684","1","0","3","192","0","right","out","Female","Right-handed","1","2","no","right","d","1061.63635815","1840.44526604","4","green","2"
"100","90","18","919.654736565","1","0","3","193","0","right","in","Female","Right-handed","1","2","no","right","s","988.049246227","903.935990681","4","green","1"
"100","91","18","916.832186996","1","1","3","194","1","left","out","Female","Right-handed","1","2","no","left","s","904.62135581","680.658656094","4","red","0"
"100","91","18","922.058844322","1","1","3","195","2","right","out","Female","Right-handed","1","2","no","right","d","1050.26641685","1264.2504312","4","green","1"
"100","91","18","920.208787743","1","1","3","196","1","left","in","Female","Right-handed","1","2","no","left","d","661.552459457","1008.65991073","4","red","1"
"100","91","18","918.917345056","1","1","3","197","3","left","in","Female","Right-handed","1","2","no","left","s","868.170642768","848.268434782","4","red","2"
"100","91","18","921.058468499","1","1","3","198","1","right","out","Female","Right-handed","1","2","no","right","s","1239.83449891","807.830288584","4","red","3"
"100","92","18","926.321866323","1","1","3","199","2","left","out","Female","Right-handed","1","2","no","left","s","1151.82232719","1216.63439218","4","green","0"
"100","92","18","923.912387287","1","1","3","200","2","right","out","Female","Right-handed","1","2","no","right","d","894.896996388","711.979874575","4","red","1"
"100","92","18","930.713766422","1","1","3","201","1","right","out","Female","Right-handed","1","2","no","right","d","1314.67335633","1240.49484838","4","red","3"
"100","92","18","933.392610096","1","1","3","202","3","right","out","Female","Right-handed","1","2","no","right","s","793.107927209","1352.27703504","4","red","1"
"100","92","18","936.462688729","1","1","3","203","2","right","in","Female","Right-handed","1","2","no","right","s","910.754684183","1287.59902837","4","green","0"
"100","92","18","938.392637277","1","1","3","204","1","right","out","Female","Right-handed","1","2","no","right","d","1277.13670677","808.083010962","4","red","2"
"100","91","18","944.614156705","1","0","3","205","1","left","out","Female","Right-handed","1","2","no","left","s","757.790616303","1815.80483418","4","red","0"
"100","91","18","942.319583168","1","1","3","206","3","right","in","Female","Right-handed","1","2","no","right","s","979.386449078","648.260481083","4","green","0"
"100","91","18","940.018463597","1","1","3","207","0","right","in","Female","Right-handed","1","2","no","right","s","913.864003289","703.845292853","4","red","3"
"100","91","18","938.019067613","1","1","3","208","3","left","in","Female","Right-handed","1","2","no","left","d","1107.56287752","536.545323578","4","red","0"
"100","91","18","936.046362583","1","1","3","209","0","left","out","Female","Right-handed","1","2","no","left","d","831.058618121","808.254913494","4","green","1"
"100","91","18","930.247569508","1","1","3","210","1","right","in","Female","Right-handed","1","2","no","right","d","604.839056255","559.800913777","4","red","0"
"100","90","18","940.886168722","1","0","3","211","2","right","in","Female","Right-handed","1","2","no","right","d","1515.32241667","1664.35902485","4","red","3"
"100","90","18","938.296027257","1","1","3","212","3","right","in","Female","Right-handed","1","2","no","right","s","611.707139664","943.707373143","4","green","3"
"100","90","18","933.258907381","1","1","3","213","3","right","out","Female","Right-handed","1","2","no","right","d","503.383208587","728.45750191","4","red","0"
"100","100","18","785.723013708","1","1","4","214","3","left","out","Female","Right-handed","1","2","no","left","d","922.683308713","648.762718702","4","green","2"
"100","100","18","773.809462721","1","1","4","215","3","left","in","Female","Right-handed","1","2","no","left","s","843.38300333","680.408820139","4","red","1"
"100","100","18","765.494639912","1","1","4","216","1","right","out","Female","Right-handed","1","2","no","right","s","848.796970924","648.933017666","4","red","1"
"100","100","18","771.121360942","1","1","4","217","0","right","in","Female","Right-handed","1","2","no","right","s","975.528904962","600.474143101","4","red","0"
"100","100","18","750.928754739","1","1","4","218","2","left","out","Female","Right-handed","1","2","no","left","s","804.218090432","536.098569425","4","red","1"
"100","100","18","719.580922368","1","1","4","219","1","right","out","Female","Right-handed","1","2","no","right","s","588.775149565","536.908371461","4","red","0"
"100","100","18","704.923234432","1","1","4","220","1","left","in","Female","Right-handed","1","2","no","left","d","585.429143765","648.525069867","4","red","1"
"100","100","18","687.757192325","1","1","4","221","3","left","in","Female","Right-handed","1","2","no","left","s","550.096117889","585.093677258","4","green","3"
"100","100","18","691.202634955","1","1","4","222","3","right","in","Female","Right-handed","1","2","no","right","d","796.728143203","640.804208789","4","green","0"
"100","100","18","677.012734899","1","1","4","223","3","right","in","Female","Right-handed","1","2","no","right","d","418.29145561","680.315813172","4","red","0"
"100","100","18","693.591799596","1","1","4","224","2","left","in","Female","Right-handed","1","2","no","left","d","774.859318945","943.905574196","4","red","0"
"100","91","18","736.91192871","1","0","4","225","2","right","out","Female","Right-handed","1","2","no","right","s","962.456294744","1464.41040318","4","green","1"
"100","92","18","743.459266575","1","1","4","226","0","right","out","Female","Right-handed","1","2","no","right","d","772.058847111","871.995794802","4","green","1"
"100","92","18","755.112657094","1","1","4","227","2","right","in","Female","Right-handed","1","2","no","right","d","876.628503877","936.584963788","4","red","3"
"100","93","18","739.952168762","1","1","4","228","1","right","out","Female","Right-handed","1","2","no","right","s","599.227849749","456.182814494","4","red","1"
"100","93","18","761.413488207","1","1","4","229","2","left","in","Female","Right-handed","1","2","no","left","d","1013.83879519","1152.82776457","4","red","2"
"100","94","18","747.463852833","1","1","4","230","0","left","out","Female","Right-handed","1","2","no","left","s","456.171589515","592.367784182","4","green","0"
"100","94","18","741.466477189","1","1","4","231","0","left","out","Female","Right-handed","1","2","no","left","d","527.108644324","751.913538158","4","red","1"
"100","89","18","759.606210192","1","0","4","232","3","left","in","Female","Right-handed","1","2","no","left","d","875.63814004","1296.60466844","4","green","1"
"100","90","18","778.432502279","1","1","4","233","1","left","out","Female","Right-handed","1","2","no","left","s","1368.12991213","904.134191734","4","red","2"
"100","90","18","788.349910718","1","1","4","234","0","left","in","Female","Right-handed","1","2","no","left","d","1036.70984969","936.686309311","4","red","0"
"100","90","18","783.436893724","1","1","4","235","0","left","in","Female","Right-handed","1","2","no","left","s","816.216630543","544.310443143","4","green","3"
"100","91","18","803.43093357","1","1","4","236","2","right","out","Female","Right-handed","1","2","no","right","d","718.782853107","1767.8167673","4","red","0"
"100","91","18","808.175924388","1","1","4","237","2","right","in","Female","Right-handed","1","2","no","right","s","610.227046041","1224.39438033","4","green","0"
"100","92","18","812.791068509","1","1","4","238","3","left","out","Female","Right-handed","1","2","no","left","d","799.067428767","1048.04162607","4","red","3"
"100","92","18","808.974884862","1","1","4","239","0","right","in","Female","Right-handed","1","2","no","right","s","802.640179138","624.500408268","4","green","1"
"100","92","18","800.651344535","1","1","4","240","3","left","out","Female","Right-handed","1","2","no","left","s","640.240714858","528.237877184","4","red","1"
"100","92","18","807.846690798","1","1","4","241","1","left","out","Female","Right-handed","1","2","no","left","d","1108.63758905","895.604490761","4","green","3"
"100","89","18","806.982526214","1","0","4","242","2","left","in","Female","Right-handed","1","2","no","left","s","701.306844094","864.264991601","4","green","1"
"100","90","18","804.964578243","1","1","4","243","2","left","out","Female","Right-handed","1","2","no","left","s","580.902270204","911.985903992","4","red","0"
"100","87","18","801.419548053","1","0","4","244","2","left","in","Female","Right-handed","1","2","no","left","s","853.638143889","536.499140808","4","green","3"
"100","87","18","801.223200965","1","1","4","245","1","left","in","Female","Right-handed","1","2","no","left","d","750.08931876","840.183563681","4","green","1"
"100","84","18","804.084192472","1","0","4","246","1","left","out","Female","Right-handed","1","2","no","left","d","871.666742568","919.605098834","4","green","1"
"100","82","18","806.647963462","1","0","4","247","0","right","in","Female","Right-handed","1","2","no","right","s","494.280712985","1288.22409932","4","green","3"
"100","82","18","811.095437885","1","1","4","248","0","left","in","Female","Right-handed","1","2","no","left","d","972.795141573","951.8239949","4","green","1"
"100","83","18","806.339967759","1","1","4","249","1","right","in","Female","Right-handed","1","2","no","right","d","591.418150983","688.378875745","4","green","3"
"100","83","18","821.408677274","1","1","4","250","3","left","in","Female","Right-handed","1","2","no","left","s","1615.87609676","1111.88834289","4","red","2"
"100","84","18","818.990061151","1","1","4","251","1","right","out","Female","Right-handed","1","2","no","right","s","906.60785633","552.394672818","4","red","0"
"100","84","18","813.522697326","1","1","4","252","0","left","out","Female","Right-handed","1","2","no","left","s","771.278871447","440.246872561","4","green","3"
"100","85","18","816.738700295","1","1","4","253","3","right","in","Female","Right-handed","1","2","no","right","d","780.660387948","1103.66524419","4","red","3"
"100","85","18","817.727794282","1","1","4","254","1","right","out","Female","Right-handed","1","2","no","right","d","1122.2477154","592.335392101","4","green","1"
"100","85","18","812.646728417","1","1","4","255","3","right","in","Female","Right-handed","1","2","no","right","s","672.825865943","535.820189952","4","red","1"
"100","86","18","819.144552501","1","1","4","256","0","right","out","Female","Right-handed","1","2","no","right","d","1352.54932095","831.557007177","4","green","2"
"100","86","18","820.097772626","1","1","4","257","1","right","out","Female","Right-handed","1","2","no","right","d","610.097798429","1112.07467754","4","red","0"
"100","86","18","822.856266036","1","1","4","258","1","right","in","Female","Right-handed","1","2","no","right","s","1008.74714485","879.712807315","4","green","3"
"100","86","18","820.734520636","1","1","4","259","3","right","out","Female","Right-handed","1","2","no","right","d","586.216816558","864.295138686","4","red","0"
"100","85","18","833.258069112","1","0","4","260","2","left","out","Female","Right-handed","1","2","no","left","s","1018.93140768","1799.75119033","4","red","1"
"100","85","18","861.246203953","1","1","4","261","3","left","out","Female","Right-handed","1","2","no","left","s","2305.0615674","2048.31551555","4","green","3"
"100","85","18","871.326822069","1","1","4","262","1","left","out","Female","Right-handed","1","2","no","left","s","1846.68314707","863.709836224","4","green","3"
"100","86","18","879.022224175","1","1","4","263","2","left","in","Female","Right-handed","1","2","no","left","d","768.092901772","1744.10095297","4","red","3"
"100","86","18","878.65398683","1","1","4","264","1","right","in","Female","Right-handed","1","2","no","right","d","584.813694217","1135.67054495","4","red","0"
"100","86","18","877.532241099","1","1","4","265","2","right","out","Female","Right-handed","1","2","no","right","s","929.183533533","711.462884127","4","red","1"
"100","86","18","881.314593626","1","1","4","266","0","right","out","Female","Right-handed","1","2","no","right","d","956.021495514","1199.97235448","4","green","3"
"100","87","18","884.428622807","1","1","4","267","0","left","in","Female","Right-handed","1","2","no","left","s","1027.56437846","1071.3799604","4","green","2"
"100","87","18","884.422260258","1","1","4","268","0","left","in","Female","Right-handed","1","2","no","left","s","728.095736881","1040.06162834","4","red","0"
"100","87","18","884.632013928","1","1","4","269","0","right","out","Female","Right-handed","1","2","no","right","d","840.732625497","951.604306031","4","green","1"
"100","85","18","893.082586889","1","0","4","270","1","right","in","Female","Right-handed","1","2","no","right","d","1028.29720921","1704.33213622","4","red","2"
"100","86","18","894.670691417","1","1","4","271","3","right","out","Female","Right-handed","1","2","no","right","d","642.683911655","1327.70138734","4","green","1"
"100","86","18","898.1109361","1","1","4","272","2","right","in","Female","Right-handed","1","2","no","right","s","948.145088302","1247.1451672","4","green","1"
"100","85","18","904.339550047","1","0","4","273","2","left","out","Female","Right-handed","1","2","no","left","d","1447.89589377","1095.75965204","4","green","2"
"100","85","18","903.635140221","1","1","4","274","3","left","out","Female","Right-handed","1","2","no","left","s","1235.33007531","487.411026008","4","red","0"
"100","85","18","906.470158948","1","1","4","275","3","right","in","Female","Right-handed","1","2","no","right","d","966.898499894","1191.91410261","4","green","1"
"100","85","18","903.851528443","1","1","4","276","2","right","out","Female","Right-handed","1","2","no","right","s","571.535506533","911.457367851","4","green","3"
"100","85","18","899.769088156","1","1","4","277","0","right","in","Female","Right-handed","1","2","no","right","s","869.043304685","416.107395465","4","red","1"
"100","0","18","2270.88631791","1","0","5","278","1","right","in","Female","Right-handed","1","2","no","right","None","1541.60907184","3000.16356398","4","green","2"
"100","0","18","1626.88274965","1","0","5","279","0","left","in","Female","Right-handed","1","2","no","left","s","1013.87439441","951.883968357","4","red","0"
"100","33","18","1288.91448897","1","1","5","280","0","right","in","Female","Right-handed","1","2","no","right","d","585.504832193","640.45110303","4","red","0"
"100","50","18","1265.92191071","1","1","5","281","1","right","out","Female","Right-handed","1","2","no","right","s","1274.00686199","1119.88148988","4","red","3"
"100","60","18","1199.63467505","1","1","5","282","2","left","out","Female","Right-handed","1","2","no","left","d","1004.57401847","864.39744635","4","green","2"
"100","66","18","1157.80024306","1","1","5","283","1","left","out","Female","Right-handed","1","2","no","left","s","1001.07246654","896.183699663","4","green","1"
"100","71","18","1162.50658265","1","1","5","284","0","right","in","Female","Right-handed","1","2","no","right","d","1013.71916899","1367.77007138","4","green","1"
"100","75","18","1156.35671748","1","1","5","285","2","left","out","Female","Right-handed","1","2","no","left","s","1330.42232218","896.19300036","4","red","3"
"100","77","18","1177.01688101","1","1","5","286","3","right","in","Female","Right-handed","1","2","no","right","s","812.811292714","1871.78508592","4","green","1"
"100","80","18","1114.49122303","1","1","5","287","3","left","in","Female","Right-handed","1","2","no","left","s","631.278691847","472.241910479","4","green","3"
"100","81","18","1101.85222062","1","1","5","288","0","right","in","Female","Right-handed","1","2","no","right","d","822.922112118","1128.00228092","4","red","1"
"100","83","18","1080.61757","1","1","5","289","3","left","out","Female","Right-handed","1","2","no","left","d","1134.64778903","559.425037347","4","green","1"
"100","84","18","1061.73776535","1","1","5","290","0","right","out","Female","Right-handed","1","2","no","right","d","686.075189398","984.285029791","4","red","3"
"100","85","18","1063.9870176","1","1","5","291","0","right","in","Female","Right-handed","1","2","no","right","d","1042.74760539","1143.70698829","4","red","2"
"100","86","18","1074.90512755","1","1","5","292","1","left","in","Female","Right-handed","1","2","no","left","s","1631.30883893","824.208494679","4","red","3"
"100","87","18","1082.40117569","1","1","5","293","2","right","out","Female","Right-handed","1","2","no","right","s","581.815342044","1807.86845351","4","red","3"
"100","88","18","1060.1866946","1","1","5","294","2","left","out","Female","Right-handed","1","2","no","left","d","809.354961409","600.155032992","4","red","1"
"100","88","18","1043.37260508","1","1","5","295","3","right","out","Female","Right-handed","1","2","no","right","d","667.049491894","848.016674545","4","green","1"
"100","89","18","1053.6922888","1","1","5","296","3","left","in","Female","Right-handed","1","2","no","left","d","1558.43852207","920.454669367","4","green","0"
"100","85","18","1055.19168896","1","0","5","297","1","right","out","Female","Right-handed","1","2","no","right","s","575.215054557","1592.1455296","4","red","3"
"100","80","18","1062.52036723","1","0","5","298","3","right","out","Female","Right-handed","1","2","no","right","d","562.563541397","1855.62432369","4","green","1"
"100","77","18","1062.02106879","1","0","5","299","1","left","in","Female","Right-handed","1","2","no","left","s","998.99456262","1104.07704056","4","green","0"
"100","78","18","1045.29101824","1","1","5","300","1","right","in","Female","Right-handed","1","2","no","right","d","706.698041016","647.761771314","4","red","1"
"100","79","18","1050.64515966","1","1","5","301","2","left","out","Female","Right-handed","1","2","no","left","s","1147.26498583","1200.31583883","4","green","0"
"100","80","18","1033.41427291","1","1","5","302","2","right","in","Female","Right-handed","1","2","no","right","s","743.853362009","495.892619929","4","green","1"
"96","80","18","1030.50816614","0","1","5","303","1","right","in","Female","Right-handed","1","2","no","left","s","1577.38243759","338.328555769","4","green","2"
"96","81","18","1018.78957503","1","1","5","304","3","right","out","Female","Right-handed","1","2","no","right","s","980.086246322","448.126166195","4","red","3"
"96","82","18","1008.70910591","1","1","5","305","2","left","out","Female","Right-handed","1","2","no","left","s","1057.57227443","415.500605187","4","green","3"
"96","82","18","999.637604603","1","1","5","306","3","left","in","Female","Right-handed","1","2","no","left","s","1091.03040815","400.240727687","4","red","1"
"96","83","18","994.360282048","1","1","5","307","1","left","in","Female","Right-handed","1","2","no","left","d","538.733873715","1143.9019822","4","red","1"
"96","83","18","979.330453504","1","1","5","308","1","left","in","Female","Right-handed","1","2","no","left","s","529.456589159","527.414605172","4","green","3"
"96","84","18","991.552076004","1","1","5","309","1","right","in","Female","Right-handed","1","2","no","right","s","973.042411818","1767.80233518","4","green","0"
"96","81","18","1011.37032033","1","0","5","310","2","right","in","Female","Right-handed","1","2","no","right","d","939.594220227","2351.5140572","4","red","0"
"97","82","18","1004.3158251","1","1","5","311","3","right","out","Female","Right-handed","1","2","no","right","d","999.04683895","543.988125897","4","green","0"
"97","82","18","996.954081407","1","1","5","312","0","left","out","Female","Right-handed","1","2","no","left","d","605.689588928","887.62000304","4","green","3"
"97","83","18","990.155070052","1","1","5","313","1","right","out","Female","Right-handed","1","2","no","right","d","585.098808677","919.280536592","4","green","1"
"97","83","18","978.578913707","1","1","5","314","1","left","out","Female","Right-handed","1","2","no","left","s","691.759839335","431.914731213","4","red","0"
"97","84","18","972.192794867","1","1","5","315","0","left","in","Female","Right-handed","1","2","no","left","d","448.48761051","1023.32518507","4","green","0"
"97","84","18","966.458386159","1","1","5","316","1","left","out","Female","Right-handed","1","2","no","left","d","793.113700055","703.98801044","4","red","1"
"97","85","18","966.085318337","1","1","5","317","3","right","out","Female","Right-handed","1","2","no","right","s","631.453160088","1271.61818652","4","green","0"
"97","85","18","969.404560483","1","1","5","318","3","right","out","Female","Right-handed","1","2","no","right","d","1036.06168735","1168.28680526","4","red","2"
"97","85","18","961.627872224","1","1","5","319","0","left","in","Female","Right-handed","1","2","no","left","s","837.723048345","447.844258872","4","red","1"
"97","86","18","956.993888197","1","1","5","320","2","left","out","Female","Right-handed","1","2","no","left","d","589.373922001","935.359196112","4","red","1"
"97","86","18","951.905069859","1","1","5","321","3","right","out","Female","Right-handed","1","2","no","right","d","898.162503054","568.009259645","4","green","1"
"97","86","18","943.530506677","1","1","5","322","2","right","out","Female","Right-handed","1","2","no","right","s","694.471794195","455.627659117","4","red","1"
"97","84","18","947.708304161","1","0","5","323","0","right","in","Female","Right-handed","1","2","no","right","s","840.307679874","1431.11070202","4","green","1"
"97","82","18","956.099463056","1","0","5","324","2","right","in","Female","Right-handed","1","2","no","right","s","764.591029125","1919.59451528","4","green","0"
"97","83","18","954.704595041","1","1","5","325","3","left","out","Female","Right-handed","1","2","no","left","s","611.093614398","1167.19798233","4","red","3"
"97","83","18","946.665354664","1","1","5","326","0","right","out","Female","Right-handed","1","2","no","right","d","553.884067137","567.679565985","4","green","3"
"98","82","18","951.260770367","1","0","5","327","3","left","in","Female","Right-handed","1","2","no","left","d","649.365018989","1703.50726064","4","red","2"
"98","80","18","948.154917233","1","0","5","328","0","right","in","Female","Right-handed","1","2","no","right","s","993.934662926","591.789858135","4","red","2"
"98","80","18","947.008577709","1","1","5","329","3","right","out","Female","Right-handed","1","2","no","right","s","497.586308861","1279.50421514","4","green","3"
"98","81","18","946.151689413","1","1","5","330","2","left","out","Female","Right-handed","1","2","no","left","d","1027.95532843","775.231667525","4","red","0"
"98","81","18","949.727596493","1","1","5","331","1","right","out","Female","Right-handed","1","2","no","right","s","822.785167377","1455.71617609","4","red","1"
"98","80","18","953.72855599","1","0","5","332","3","left","out","Female","Right-handed","1","2","no","left","s","812.288529419","1527.2722083","4","green","0"
"98","80","18","952.757114208","1","1","5","333","0","left","in","Female","Right-handed","1","2","no","left","s","742.874864578","1055.78076783","4","red","1"
"98","80","18","946.515938778","1","1","5","334","0","left","in","Female","Right-handed","1","2","no","left","d","546.564739584","647.455489752","4","green","0"
"98","81","18","941.247325054","1","1","5","335","2","right","in","Female","Right-handed","1","2","no","right","s","883.005253932","398.867431718","4","red","1"
"98","81","18","939.117626112","1","1","5","336","2","left","in","Female","Right-handed","1","2","no","left","d","839.479597157","791.710577714","4","red","1"
"98","80","18","938.385132334","1","0","5","337","0","left","out","Female","Right-handed","1","2","no","left","d","847.069286341","943.266712551","4","green","3"
"98","78","18","953.493254387","1","0","5","338","0","right","in","Female","Right-handed","1","2","no","right","None","719.881938881","3000.07921628","4","red","1"
"98","79","18","951.706044685","1","1","5","339","2","left","in","Female","Right-handed","1","2","no","left","s","542.158133652","1143.21437208","4","green","3"
"98","79","18","950.619669223","1","1","5","340","2","left","out","Female","Right-handed","1","2","no","left","s","814.728519079","951.800262087","4","red","2"
"98","78","18","953.085036069","1","0","5","341","1","left","in","Female","Right-handed","1","2","no","left","d","905.452645664","1311.35364905","4","green","0"
"100","0","18","799.496222955","1","0","6","342","1","left","out","Female","Right-handed","1","2","no","left","d","847.523416909","751.469029001","4","red","1"
"100","50","18","775.998012858","1","1","6","343","2","left","in","Female","Right-handed","1","2","no","left","d","705.094151914","799.905453607","4","green","1"
"100","66","18","797.219262748","1","1","6","344","0","right","in","Female","Right-handed","1","2","no","right","s","1023.63403234","655.689492715","4","green","2"
"100","75","18","804.464478715","1","1","6","345","3","right","out","Female","Right-handed","1","2","no","right","d","1188.28202021","464.118233022","4","green","1"
"100","80","18","763.120428627","1","1","6","346","3","right","out","Female","Right-handed","1","2","no","right","d","555.645747369","639.842709184","4","green","3"
"100","83","18","763.927178539","1","1","6","347","0","left","out","Female","Right-handed","1","2","no","left","d","888.544941287","647.376914902","4","green","1"
"100","85","18","771.15638173","1","1","6","348","2","left","out","Female","Right-handed","1","2","no","left","s","1037.13800245","591.925199308","4","red","2"
"100","87","18","759.973373549","1","1","6","349","0","left","out","Female","Right-handed","1","2","no","left","d","843.598843635","519.78578892","4","green","1"
"100","88","18","772.119426362","1","1","6","350","2","left","in","Female","Right-handed","1","2","no","left","d","530.17434637","1208.40135136","4","red","0"
"100","90","18","765.939405641","1","1","6","351","1","left","out","Female","Right-handed","1","2","no","left","s","612.881272438","807.757165866","4","green","0"
"100","81","18","794.749879193","1","0","6","352","3","right","out","Female","Right-handed","1","2","no","right","d","550.333766725","1615.37546271","4","green","3"
"100","75","18","787.725763721","1","0","6","353","2","right","out","Female","Right-handed","1","2","no","right","d","660.99024838","759.930738674","4","green","3"
"100","76","18","763.020925976","1","1","6","354","1","right","in","Female","Right-handed","1","2","no","right","s","517.525078206","415.600667854","4","green","0"
"100","78","18","800.101730379","1","1","6","355","2","right","in","Female","Right-handed","1","2","no","right","s","1572.15352179","992.150853451","4","green","1"
"100","80","18","789.920599846","1","1","6","356","0","left","in","Female","Right-handed","1","2","no","left","d","694.89000483","599.879539942","4","green","1"
"100","75","18","775.072583519","1","0","6","357","2","left","out","Female","Right-handed","1","2","no","left","d","641.350384183","463.354293041","4","red","0"
"100","70","18","766.121974732","1","0","6","358","3","right","in","Female","Right-handed","1","2","no","right","s","685.974806016","559.849662256","4","red","0"
"100","72","18","766.032441115","1","1","6","359","1","left","in","Female","Right-handed","1","2","no","left","s","841.521901858","687.498837413","4","red","3"
"100","73","18","759.012611373","1","1","6","360","0","right","out","Female","Right-handed","1","2","no","right","d","721.112837976","544.198514069","4","red","1"
"100","70","18","758.650409583","1","0","6","361","2","right","in","Female","Right-handed","1","2","no","right","d","799.797373098","703.739778053","4","red","0"
"100","66","18","756.178549002","1","0","6","362","1","left","in","Female","Right-handed","1","2","no","left","s","766.295301609","647.187373118","4","green","1"
"100","63","18","771.98608884","1","0","6","363","0","right","in","Female","Right-handed","1","2","no","right","s","863.889756598","1343.9990943","4","red","3"
"100","65","18","774.107796162","1","1","6","364","3","right","out","Female","Right-handed","1","2","no","right","d","610.228970323","1031.34174416","4","red","0"
"100","62","18","790.104490387","1","0","6","365","0","left","in","Female","Right-handed","1","2","no","left","d","555.997249559","1760.05966557","4","red","0"
"100","64","18","806.760900898","1","1","6","366","1","left","in","Female","Right-handed","1","2","no","left","s","1581.55684682","831.47265948","4","green","1"
"100","65","18","804.719563273","1","1","6","367","0","right","out","Female","Right-handed","1","2","no","right","s","724.153524355","783.218720955","4","red","1"
"100","66","18","810.071584243","1","1","6","368","2","left","out","Female","Right-handed","1","2","no","left","s","1266.78535211","631.662906833","4","red","3"
"100","67","18","806.80795074","1","1","6","369","2","right","in","Female","Right-handed","1","2","no","right","d","886.331375483","551.048316799","4","red","1"
"100","68","18","803.862435552","1","1","6","370","3","right","in","Female","Right-handed","1","2","no","right","s","602.919584894","839.856435729","4","red","1"
"100","66","18","803.299395412","1","0","6","371","1","right","in","Female","Right-handed","1","2","no","right","d","670.623845831","903.318616852","4","green","0"
"100","64","18","824.465500137","1","0","6","372","2","right","in","Female","Right-handed","1","2","no","right","s","624.043711992","2294.85357176","4","green","1"
"100","65","18","823.109494095","1","1","6","373","2","left","in","Female","Right-handed","1","2","no","left","s","1042.59686996","519.549743654","4","red","0"
"100","66","18","820.506350918","1","1","6","374","1","right","out","Female","Right-handed","1","2","no","right","d","819.253468358","655.15807015","4","green","2"
"100","67","18","817.984328873","1","1","6","375","2","left","in","Female","Right-handed","1","2","no","left","d","597.794901038","871.720301753","4","green","3"
"100","65","18","815.277484681","1","0","6","376","2","left","in","Female","Right-handed","1","2","no","left","d","847.296030912","599.193533386","4","red","1"
"100","66","18","814.560108763","1","1","6","377","2","right","in","Female","Right-handed","1","2","no","right","d","827.003193667","751.90070961","4","green","2"
"100","67","18","810.423765743","1","1","6","378","1","left","in","Female","Right-handed","1","2","no","left","s","875.593240126","447.437593929","4","green","2"
"100","68","18","821.137530397","1","1","6","379","0","left","in","Female","Right-handed","1","2","no","left","s","1436.01601772","999.077627463","4","red","0"
"100","69","18","824.150778552","1","1","6","380","3","left","in","Female","Right-handed","1","2","no","left","d","989.528056995","887.78035988","4","red","0"
"100","70","18","824.928019824","1","1","6","381","3","left","out","Female","Right-handed","1","2","no","left","d","887.155930349","823.324928497","4","green","1"
"100","68","18","827.274783396","1","0","6","382","3","left","out","Female","Right-handed","1","2","no","left","s","634.645223322","1207.64542922","4","green","2"
"100","69","18","823.206440065","1","1","6","383","1","right","in","Female","Right-handed","1","2","no","right","s","641.410036927","671.398690077","4","red","3"
"100","69","18","821.400318258","1","1","6","384","3","left","out","Female","Right-handed","1","2","no","left","s","564.113229888","926.973174866","4","green","3"
"100","70","18","817.712836384","1","1","6","385","1","right","out","Female","Right-handed","1","2","no","right","d","534.610778674","783.691452917","4","red","3"
"100","71","18","816.767673658","1","1","6","386","3","right","out","Female","Right-handed","1","2","no","right","d","911.153331285","639.207696102","4","green","2"
"100","71","18","830.483442543","1","1","6","387","2","right","in","Female","Right-handed","1","2","no","right","d","1439.72635426","1455.65973049","4","red","3"
"100","72","18","844.085332165","1","1","6","388","1","left","out","Female","Right-handed","1","2","no","left","d","2020.29155439","919.252955216","4","green","1"
"100","70","18","854.161809191","1","0","6","389","3","left","in","Female","Right-handed","1","2","no","left","d","1863.72651334","791.785945429","4","green","1"
"100","69","18","853.021624205","1","0","6","390","3","left","out","Female","Right-handed","1","2","no","left","s","1037.27943719","559.306052573","4","red","1"
"100","70","18","853.799690575","1","1","6","391","1","right","out","Female","Right-handed","1","2","no","right","d","728.869939699","1054.97994577","4","red","0"
"100","68","18","847.018550695","1","0","6","392","3","right","out","Female","Right-handed","1","2","no","right","s","616.374485816","399.54862757","4","red","0"
"100","69","18","848.36665643","1","1","6","393","0","left","in","Female","Right-handed","1","2","no","left","s","739.120590267","1095.11950754","4","green","3"
"100","69","18","846.004644007","1","1","6","394","3","right","out","Female","Right-handed","1","2","no","right","d","934.62476179","511.735234182","4","green","1"
"100","70","18","848.565088995","1","1","6","395","2","right","in","Female","Right-handed","1","2","no","right","s","1505.36778482","463.169561963","4","red","1"
"100","69","18","852.225852053","1","0","6","396","0","right","out","Female","Right-handed","1","2","no","right","d","796.970602743","1302.84351161","4","green","3"
"100","69","18","851.113053427","1","1","6","397","1","right","in","Female","Right-handed","1","2","no","right","s","1156.32418508","423.494072891","4","green","1"
"100","68","18","849.715387992","1","0","6","398","3","left","in","Female","Right-handed","1","2","no","left","s","1168.02798932","374.864257935","4","red","3"
"100","68","18","849.066823836","1","1","6","399","0","right","out","Female","Right-handed","1","2","no","right","s","624.648898701","999.548435142","4","red","0"
"100","69","18","852.372952891","1","1","6","400","1","left","out","Female","Right-handed","1","2","no","left","d","993.111390916","1095.14548535","4","green","3"
"100","68","18","852.529923121","1","0","6","401","1","left","out","Female","Right-handed","1","2","no","left","d","740.804978502","982.777354792","4","red","1"
"100","68","18","863.049812733","1","1","6","402","0","right","out","Female","Right-handed","1","2","no","right","d","709.207625545","2279.27875342","4","red","3"
"100","69","18","863.96294139","1","1","6","403","0","right","in","Female","Right-handed","1","2","no","right","d","736.71491697","1102.6126619","4","green","0"
"100","69","18","862.398056194","1","1","6","404","0","left","out","Female","Right-handed","1","2","no","left","s","667.453270413","863.297077721","4","red","1"
"100","70","18","866.853068296","1","1","6","405","0","left","out","Female","Right-handed","1","2","no","left","s","736.021854713","1559.01580669","4","red","2"
"100","100","18","1772.54713369","1","1","7","406","0","left","out","Female","Right-handed","1","2","no","left","d","2513.64861198","1031.44565539","4","red","1"
"100","100","18","1334.10595931","1","1","7","407","3","left","in","Female","Right-handed","1","2","no","left","s","584.244427439","1207.08514243","4","green","3"
"100","100","18","1154.14279755","1","1","7","408","0","left","out","Female","Right-handed","1","2","no","left","s","700.614423264","887.818524807","4","green","3"
"100","75","18","1266.95080028","1","0","7","409","0","left","out","Female","Right-handed","1","2","no","left","d","979.433914702","2231.31570221","4","red","1"
"100","80","18","1186.8281289","1","1","7","410","3","right","out","Female","Right-handed","1","2","no","right","s","1045.82164599","686.85324078","4","green","2"
"100","83","18","1155.77656648","1","1","7","411","2","right","out","Female","Right-handed","1","2","no","right","d","1377.5598564","623.47765235","4","green","0"
"100","85","18","1131.23832774","1","1","7","412","3","left","in","Female","Right-handed","1","2","no","left","d","1071.99380638","896.023984252","4","red","0"
"100","87","18","1101.95662203","1","1","7","413","2","right","in","Female","Right-handed","1","2","no","right","s","586.401226922","1207.56813722","4","red","3"
"100","88","18","1083.86242181","1","1","7","414","3","left","out","Female","Right-handed","1","2","no","left","d","815.100546944","1063.11709321","4","red","1"
"100","90","18","1031.7051769","1","1","7","415","2","right","in","Female","Right-handed","1","2","no","right","d","540.821719756","583.758225504","4","green","3"
"100","90","18","1031.71709578","1","1","7","416","3","left","in","Female","Right-handed","1","2","no","left","s","1288.31197487","775.360594423","4","red","1"
"100","91","18","1023.72613062","1","1","7","417","3","left","in","Female","Right-handed","1","2","no","left","d","1087.75207293","783.898954665","4","green","1"
"100","92","18","1043.59317934","1","1","7","418","0","left","in","Female","Right-handed","1","2","no","left","d","1172.43780239","1391.55772557","4","green","1"
"100","92","18","1018.29507738","1","1","7","419","3","right","in","Female","Right-handed","1","2","no","right","s","812.040617746","566.798886226","4","red","1"
"100","86","18","1025.18018229","1","0","7","420","1","right","in","Female","Right-handed","1","2","no","right","s","987.616603475","1255.52669845","4","green","1"
"100","87","18","1031.45479573","1","1","7","421","1","left","in","Female","Right-handed","1","2","no","left","s","1548.1057688","703.042225804","4","green","3"
"100","82","18","1008.19623421","1","0","7","422","0","left","in","Female","Right-handed","1","2","no","left","s","544.544243413","727.574256442","4","red","0"
"100","83","18","1009.83831968","1","1","7","423","0","right","in","Female","Right-handed","1","2","no","right","s","1636.2625824","439.244963031","4","green","2"
"100","84","18","987.736660109","1","1","7","424","3","right","out","Female","Right-handed","1","2","no","right","s","652.959577889","526.853997664","4","green","3"
"100","85","18","969.922461054","1","1","7","425","0","right","out","Female","Right-handed","1","2","no","right","d","743.423605682","519.481752353","4","red","1"
"100","80","18","960.140444185","1","0","7","426","1","left","in","Female","Right-handed","1","2","no","left","s","1017.9189146","511.081298993","4","red","0"
"100","81","18","946.618651553","1","1","7","427","0","right","out","Female","Right-handed","1","2","no","right","d","645.638646768","679.683365801","4","red","3"
"100","82","18","939.994310539","1","1","7","428","0","left","in","Female","Right-handed","1","2","no","left","d","837.264748499","751.252867982","4","green","0"
"100","83","18","942.194346235","1","1","7","429","2","left","in","Female","Right-handed","1","2","no","left","s","714.721014379","1270.86932008","4","red","0"
"100","84","18","945.621244844","1","1","7","430","1","right","out","Female","Right-handed","1","2","no","right","d","920.299443947","1135.43417897","4","red","1"
"100","84","18","947.863908753","1","1","7","431","2","right","out","Female","Right-handed","1","2","no","right","d","769.012067173","1238.84894578","4","green","1"
"100","85","18","948.425320787","1","1","7","432","1","left","in","Female","Right-handed","1","2","no","left","d","1086.61931222","839.424755119","4","red","0"
"100","85","18","949.107865036","1","1","7","433","0","right","in","Female","Right-handed","1","2","no","right","d","535.99433748","1399.07878203","4","green","0"
"100","86","18","947.265586336","1","1","7","434","1","right","out","Female","Right-handed","1","2","no","right","d","863.654352758","927.709212757","4","green","3"
"100","83","18","951.694864882","1","0","7","435","1","left","out","Female","Right-handed","1","2","no","left","d","1097.1608501","1063.12703533","4","red","1"
"100","83","18","944.840558023","1","1","7","436","2","right","out","Female","Right-handed","1","2","no","right","d","695.625080579","782.797623896","4","green","2"
"100","84","18","936.23473443","1","1","7","437","0","left","out","Female","Right-handed","1","2","no","left","d","563.516702448","775.391703651","4","green","0"
"100","84","18","945.680005226","1","1","7","438","3","right","out","Female","Right-handed","1","2","no","right","s","920.97647052","1574.8808709","4","red","3"
"100","85","18","956.634596305","1","1","7","439","3","left","out","Female","Right-handed","1","2","no","left","d","1012.64734388","1623.62485993","4","red","0"
"100","85","18","951.759146594","1","1","7","440","2","left","out","Female","Right-handed","1","2","no","left","d","573.0518408","998.935872018","4","green","0"
"100","86","18","943.691778441","1","1","7","441","1","right","in","Female","Right-handed","1","2","no","right","s","923.788167332","398.879618838","4","green","3"
"100","86","18","940.045499043","1","1","7","442","3","left","out","Female","Right-handed","1","2","no","left","s","1186.3285532","431.230328225","4","green","2"
"100","86","18","928.949729042","1","1","7","443","1","left","out","Female","Right-handed","1","2","no","left","s","565.936166433","470.876311639","4","green","3"
"100","87","18","921.5133041","1","1","7","444","1","right","out","Female","Right-handed","1","2","no","right","s","886.400970351","391.457342194","4","red","2"
"100","87","18","918.851201201","1","1","7","445","0","right","out","Female","Right-handed","1","2","no","right","d","1095.00789918","535.050477126","4","green","1"
"100","87","18","920.129082405","1","1","7","446","0","left","out","Female","Right-handed","1","2","no","left","s","1543.72995139","398.758709782","4","green","2"
"100","88","18","917.022025058","1","1","7","447","2","left","out","Female","Right-handed","1","2","no","left","d","932.10363157","647.161716023","4","red","1"
"100","88","18","909.631194337","1","1","7","448","1","left","in","Female","Right-handed","1","2","no","left","s","775.650198874","422.78240924","4","red","1"
"100","88","18","911.094709927","1","1","7","449","2","left","out","Female","Right-handed","1","2","no","left","d","805.5538629","1142.49789772","4","red","2"
"100","86","18","911.401275029","1","0","7","450","2","right","out","Female","Right-handed","1","2","no","right","s","994.980830943","854.799448116","4","red","1"
"100","86","18","914.557424607","1","1","7","451","2","right","out","Female","Right-handed","1","2","no","right","s","1266.66604662","846.50226456","4","green","1"
"100","87","18","911.665504205","1","1","7","452","1","right","in","Female","Right-handed","1","2","no","right","d","894.089118634","663.185212791","4","red","1"
"100","87","18","905.270734193","1","1","7","453","1","right","in","Female","Right-handed","1","2","no","right","s","586.673512835","622.759574426","4","red","0"
"100","87","18","902.486643028","1","1","7","454","1","left","in","Female","Right-handed","1","2","no","left","s","874.262599076","663.437935168","4","red","2"
"100","88","18","903.60681337","1","1","7","455","3","left","in","Female","Right-handed","1","2","no","left","d","750.089318759","1166.90100146","4","green","0"
"100","88","18","901.419092623","1","1","7","456","2","right","in","Female","Right-handed","1","2","no","right","d","521.604235473","1062.46187516","4","red","3"
"100","88","18","904.325213735","1","1","7","457","3","right","in","Female","Right-handed","1","2","no","right","s","658.097731721","1446.97704909","4","green","3"
"100","88","18","899.822668331","1","1","7","458","3","right","in","Female","Right-handed","1","2","no","right","s","772.746457237","558.634157417","4","red","0"
"100","88","18","893.820912912","1","1","7","459","1","right","in","Female","Right-handed","1","2","no","right","s","664.254472191","487.201279263","4","red","0"
"100","89","18","890.459313301","1","1","7","460","2","left","out","Female","Right-handed","1","2","no","left","d","755.011311571","662.854556989","4","green","1"
"100","89","18","887.744554488","1","1","7","461","0","right","out","Female","Right-handed","1","2","no","right","s","854.494449409","622.371190161","4","red","3"
"100","89","18","882.90792577","1","1","7","462","2","right","in","Female","Right-handed","1","2","no","right","s","681.067245319","543.046189825","4","green","3"
"100","89","18","884.155247472","1","1","7","463","2","left","in","Female","Right-handed","1","2","no","left","s","1335.70832502","574.796843921","4","green","0"
"100","89","18","878.538875667","1","1","7","464","3","right","in","Female","Right-handed","1","2","no","right","d","555.189371805","550.389250191","4","green","1"
"100","90","18","872.936159377","1","1","7","465","0","left","out","Female","Right-handed","1","2","no","left","s","653.732818567","431.018977911","4","green","3"
"100","90","18","869.241461048","1","1","7","466","3","right","out","Female","Right-handed","1","2","no","right","s","776.579947826","518.539174855","4","red","1"
"100","90","18","863.733535413","1","1","7","467","0","left","in","Female","Right-handed","1","2","no","left","s","624.130946111","431.369197248","4","green","1"
"100","90","18","861.116377433","1","1","7","468","2","left","out","Female","Right-handed","1","2","no","left","d","630.781264933","766.923900417","4","red","1"
"100","90","18","855.71457954","1","1","7","469","1","right","in","Female","Right-handed","1","2","no","right","s","624.423436985","406.379187479","4","red","1"
"100","100","18","650.625904813","1","1","8","470","2","right","out","Female","Right-handed","1","2","no","right","d","837.588027887","463.66378174","4","red","0"
"100","100","18","862.689004588","1","1","8","471","0","right","out","Female","Right-handed","1","2","no","right","d","1638.27987143","511.224337293","4","red","1"
"100","100","18","903.392968973","1","1","8","472","3","right","in","Female","Right-handed","1","2","no","right","d","578.878566897","1390.72322859","4","green","1"
"100","75","18","894.639944376","1","0","8","473","0","left","out","Female","Right-handed","1","2","no","left","d","841.46096626","895.300774908","4","green","1"
"100","60","18","856.30818147","1","0","8","474","1","right","out","Female","Right-handed","1","2","no","right","d","566.951225223","839.011034475","4","green","0"
"100","66","18","840.424740366","1","1","8","475","1","left","in","Female","Right-handed","1","2","no","left","d","906.590537792","615.424531902","4","red","1"
"100","71","18","838.729860212","1","1","8","476","2","left","out","Female","Right-handed","1","2","no","left","d","698.09393447","959.027224101","4","green","1"
"100","62","18","879.782522452","1","0","8","477","3","left","out","Female","Right-handed","1","2","no","left","s","1287.60127336","1046.7010429","4","red","0"
"100","66","18","857.327758759","1","1","8","478","3","left","in","Female","Right-handed","1","2","no","left","d","788.226023606","567.153274839","4","green","2"
"100","70","18","838.232437879","1","1","8","479","1","right","out","Female","Right-handed","1","2","no","right","d","701.879959436","630.869140481","4","red","0"
"100","72","18","822.667567503","1","1","8","480","3","left","in","Female","Right-handed","1","2","no","left","s","670.493956792","663.543770682","4","green","1"
"100","75","18","827.70224258","1","1","8","481","1","left","out","Female","Right-handed","1","2","no","left","d","1310.9726412","455.194695652","4","red","3"
"100","69","18","821.816957454","1","0","8","482","1","right","in","Female","Right-handed","1","2","no","right","s","743.73052867","758.656543232","4","red","3"
"100","71","18","808.626196846","1","1","8","483","1","left","in","Female","Right-handed","1","2","no","left","d","723.209343288","551.083274588","4","red","3"
"100","73","18","788.845172051","1","1","8","484","0","right","out","Female","Right-handed","1","2","no","right","s","544.93807981","478.88357003","4","green","3"
"100","75","18","771.257313474","1","1","8","485","3","right","in","Female","Right-handed","1","2","no","right","d","559.45582586","455.423043791","4","green","0"
"100","70","18","762.250234319","1","0","8","486","3","right","in","Female","Right-handed","1","2","no","right","d","757.129946127","479.143989537","4","green","2"
"100","72","18","756.799308142","1","1","8","487","1","right","in","Female","Right-handed","1","2","no","right","d","833.653512488","494.613613782","4","green","0"
"100","73","18","751.38133069","1","1","8","488","1","left","in","Female","Right-handed","1","2","no","left","d","836.444042198","471.27143089","4","green","0"
"100","75","18","747.308201996","1","1","8","489","2","left","out","Female","Right-handed","1","2","no","left","d","596.961045476","742.876468147","4","red","1"
"100","76","18","754.74945649","1","1","8","490","1","right","out","Female","Right-handed","1","2","no","right","s","1296.62166626","510.527426472","4","red","2"
"100","72","18","752.542209856","1","0","8","491","2","right","out","Female","Right-handed","1","2","no","right","s","877.187507817","535.192553285","4","red","0"
"100","73","18","755.617181541","1","1","8","492","3","right","out","Female","Right-handed","1","2","no","right","s","895.695573447","750.837543769","4","red","3"
"100","70","18","766.477988137","1","0","8","493","0","right","in","Female","Right-handed","1","2","no","right","s","1130.23284454","902.320235173","4","red","2"
"100","72","18","775.754706634","1","1","8","494","2","left","out","Female","Right-handed","1","2","no","left","d","1469.88049567","526.911405412","4","green","1"
"100","69","18","782.643730672","1","0","8","495","1","left","out","Female","Right-handed","1","2","no","left","d","1334.33310477","575.405558481","4","red","1"
"100","66","18","779.229155648","1","0","8","496","0","right","in","Female","Right-handed","1","2","no","right","s","661.806464689","719.093945375","4","red","3"
"100","64","18","776.061708885","1","0","8","497","3","left","out","Female","Right-handed","1","2","no","left","d","782.491342334","598.589950245","4","green","3"
"100","65","18","765.663385073","1","1","8","498","1","left","in","Female","Right-handed","1","2","no","left","s","606.11870383","342.901932813","4","red","3"
"100","66","18","765.262731852","1","1","8","499","1","right","out","Female","Right-handed","1","2","no","right","d","1012.6877538","494.599823094","4","green","1"
"100","64","18","782.490571587","1","0","8","500","3","right","out","Female","Right-handed","1","2","no","right","s","552.37575071","2046.27577656","4","green","1"
"100","65","18","775.831462236","1","1","8","501","0","right","in","Female","Right-handed","1","2","no","right","s","435.961817113","702.836327624","4","green","3"
"100","63","18","767.228840813","1","0","8","502","2","left","in","Female","Right-handed","1","2","no","left","s","481.634972672","502.254937868","4","green","3"
"100","64","18","768.475777307","1","1","8","503","0","right","in","Female","Right-handed","1","2","no","right","s","1236.173873","383.075490227","4","red","2"
"100","65","18","768.723805138","1","1","8","504","2","right","in","Female","Right-handed","1","2","no","right","d","867.597206712","686.716296039","4","red","1"
"100","66","18","767.337331528","1","1","8","505","0","right","out","Female","Right-handed","1","2","no","right","d","567.291181721","870.330328674","4","red","0"
"100","67","18","764.066228865","1","1","8","506","0","left","in","Female","Right-handed","1","2","no","left","s","613.756820779","678.856245225","4","red","0"
"100","68","18","771.182125634","1","1","8","507","2","right","in","Female","Right-handed","1","2","no","right","s","1006.55570829","1062.38490388","4","red","3"
"100","69","18","774.870913978","1","1","8","508","2","left","out","Female","Right-handed","1","2","no","left","s","1350.94703542","479.142706683","4","red","1"
"100","70","18","771.39095286","1","1","8","509","2","right","out","Female","Right-handed","1","2","no","right","d","616.64420602","654.700732446","4","red","3"
"100","70","18","773.170213872","1","1","8","510","0","left","in","Female","Right-handed","1","2","no","left","s","1233.29001561","455.391293137","4","red","1"
"100","71","18","775.766304862","1","1","8","511","3","left","in","Female","Right-handed","1","2","no","left","s","941.72407976","822.687991132","4","red","1"
"100","69","18","773.720446029","1","0","8","512","2","right","out","Female","Right-handed","1","2","no","right","s","561.270103135","814.318646999","4","green","3"
"100","70","18","767.419938787","1","1","8","513","3","right","in","Female","Right-handed","1","2","no","right","s","570.020775833","422.975478874","4","red","3"
"100","68","18","776.469747043","1","0","8","514","2","left","in","Female","Right-handed","1","2","no","left","d","718.765855283","1630.55676536","4","green","2"
"100","69","18","778.318557589","1","1","8","515","2","left","out","Female","Right-handed","1","2","no","left","s","1331.98612208","391.043942264","4","red","1"
"100","70","18","779.14676951","1","1","8","516","1","left","out","Female","Right-handed","1","2","no","left","s","1283.76649992","350.722535844","4","green","2"
"100","70","18","796.367834749","1","1","8","517","1","right","out","Female","Right-handed","1","2","no","right","d","1085.32843967","2126.18736221","4","green","1"
"100","69","18","798.520631583","1","0","8","518","2","right","in","Female","Right-handed","1","2","no","right","d","1020.9294539","782.780305358","4","green","2"
"100","70","18","808.504717377","1","1","8","519","2","left","out","Female","Right-handed","1","2","no","left","s","1397.24013052","1198.20971211","4","red","0"
"100","70","18","806.257687931","1","1","8","520","0","left","out","Female","Right-handed","1","2","no","left","d","716.98749794","670.824933308","4","green","3"
"100","71","18","816.185444222","1","1","8","521","3","left","out","Female","Right-handed","1","2","no","left","d","1006.49573483","1638.50629529","4","red","0"
"100","71","18","821.23889479","1","1","8","522","3","left","in","Female","Right-handed","1","2","no","left","s","642.010733645","1526.02591495","4","green","3"
"100","72","18","823.171576876","1","1","8","523","1","left","in","Female","Right-handed","1","2","no","left","d","644.57227379","1206.63518114","4","red","1"
"100","72","18","822.98979145","1","1","8","524","0","left","in","Female","Right-handed","1","2","no","left","d","644.342963509","982.003793402","4","green","0"
"100","73","18","823.280592694","1","1","8","525","0","right","in","Female","Right-handed","1","2","no","right","d","495.747978061","1182.80134417","4","green","0"
"100","73","18","830.114633984","1","1","8","526","1","left","in","Female","Right-handed","1","2","no","left","s","819.387847389","1606.254045","4","red","1"
"100","74","18","833.912057478","1","1","8","527","0","left","out","Female","Right-handed","1","2","no","left","s","822.953221344","1277.77717199","4","green","1"
"100","72","18","838.778473572","1","0","8","528","2","right","in","Female","Right-handed","1","2","no","right","d","571.488361622","1670.57285236","4","green","0"
"100","73","18","834.423433779","1","1","8","529","3","left","in","Female","Right-handed","1","2","no","left","s","827.9723904","326.979781568","4","green","1"
"100","73","18","834.213008014","1","1","8","530","0","left","out","Female","Right-handed","1","2","no","left","s","812.6679337","830.506990597","4","green","1"
"100","74","18","833.100183111","1","1","8","531","3","right","out","Female","Right-handed","1","2","no","right","s","660.344331033","870.091396984","4","green","1"
"100","74","18","834.50800063","1","1","8","532","0","right","in","Female","Right-handed","1","2","no","right","s","940.760335159","902.825038501","4","red","1"
"100","75","18","831.91163382","1","1","8","533","3","right","out","Female","Right-handed","1","2","no","right","s","554.339480559","782.341569046","4","green","0"
dis_reply=No
dis_loc=2
tar_loc=2
