"acc_1","acc_2","age","avg_rt","correct_1","correct_2","count_block_loop","count_trial_sequence","cue_position","detection","dis_shape","gender","hand","high_loc","low_loc","practice","response_keyboard_response_1","response_keyboard_response_2","response_time_keyboard_response_1","response_time_keyboard_response_2","subject_nr","tar_color","tar_position"
"100","100","20","1314.21480495","1","1","0","0","3","right","out","Female","Right-handed","0","3","yes","right","s","1340.97418079","1287.4554291","2","green","1"
"100","100","20","1003.8313012","1","1","0","1","3","right","out","Female","Right-handed","0","3","yes","right","s","769.414117596","617.481477304","2","green","2"
"100","100","20","970.757621338","1","1","0","2","1","left","in","Female","Right-handed","0","3","yes","left","d","879.041688022","930.178835213","2","green","2"
"100","100","20","1070.71318407","1","1","0","3","1","right","in","Female","Right-handed","0","3","yes","right","s","1531.62024152","1209.53950301","2","red","0"
"100","100","20","1058.18314943","1","1","0","4","0","right","in","Female","Right-handed","0","3","yes","right","s","1143.1233335","873.002688204","2","red","1"
"100","100","20","1006.27098122","1","1","0","5","0","right","in","Female","Right-handed","0","3","yes","right","s","819.749165028","673.671115364","2","green","2"
"100","100","20","992.683582891","1","1","0","6","3","right","out","Female","Right-handed","0","3","yes","right","d","749.149633139","1073.16875268","2","green","1"
"100","100","20","967.643564953","1","1","0","7","0","right","in","Female","Right-handed","0","3","yes","right","d","638.883846586","945.84303219","2","green","2"
"100","100","20","953.239176678","1","1","0","8","2","left","out","Female","Right-handed","0","3","yes","left","s","586.402917706","1089.60522324","2","red","3"
"100","100","20","908.768416063","1","1","0","9","2","left","out","Female","Right-handed","0","3","yes","left","s","639.996395203","377.066745863","2","green","2"
"100","100","20","883.261903081","1","1","0","10","2","left","in","Female","Right-handed","0","3","yes","left","s","638.648764972","617.744781543","2","green","0"
"100","100","20","888.474017228","1","1","0","11","2","right","in","Female","Right-handed","0","3","yes","right","s","1290.37486699","601.239678697","2","red","0"
"100","92","20","888.159075332","1","0","0","12","3","right","out","Female","Right-handed","0","3","yes","right","d","598.905539522","1169.85400566","2","red","0"
"100","92","20","872.469127154","1","1","0","13","1","left","out","Female","Right-handed","0","3","yes","left","d","559.500664836","777.498936841","2","red","3"
"100","93","20","860.943546416","1","1","0","14","0","left","out","Female","Right-handed","0","3","yes","left","s","558.1087764","841.062055773","2","green","1"
"100","87","20","876.6158153","1","0","0","15","2","right","out","Female","Right-handed","0","3","yes","right","s","1173.61948079","1049.78021633","2","green","1"
"100","88","20","869.558028448","1","1","0","16","0","left","out","Female","Right-handed","0","3","yes","left","s","752.13417548","761.132702133","2","green","3"
"100","88","20","861.566129632","1","1","0","17","0","left","in","Female","Right-handed","0","3","yes","left","s","841.704441151","609.703258364","2","red","3"
"100","89","20","855.848068373","1","1","0","18","2","left","in","Female","Right-handed","0","3","yes","left","d","536.491851039","969.354080382","2","green","3"
"100","85","20","862.330920834","1","0","0","19","1","right","in","Female","Right-handed","0","3","yes","right","s","1569.98889696","401.021338224","2","green","2"
"100","85","20","853.343440026","1","1","0","20","2","right","out","Female","Right-handed","0","3","yes","right","s","881.614436643","465.573211088","2","red","2"
"100","81","20","860.380506553","1","0","0","21","3","right","out","Female","Right-handed","0","3","yes","right","s","1215.08524836","801.232558901","2","red","0"
"100","0","20","1094.38350567","1","0","1","22","1","left","out","Female","Right-handed","0","3","no","left","s","1211.36723854","977.399772808","2","red","0"
"100","50","20","848.494948471","1","1","1","23","0","right","out","Female","Right-handed","0","3","no","right","s","764.058874956","441.153907581","2","red","3"
"100","66","20","868.360868564","1","1","1","24","1","left","out","Female","Right-handed","0","3","no","left","d","518.636872985","1297.54854451","2","green","0"
"100","75","20","887.684786017","1","1","1","25","3","right","out","Female","Right-handed","0","3","no","right","d","650.159105033","1241.15397172","2","green","3"
"100","80","20","882.216540637","1","1","1","26","2","left","in","Female","Right-handed","0","3","no","left","s","886.89591561","833.791202622","2","red","2"
"100","83","20","901.069097532","1","1","1","27","2","left","out","Female","Right-handed","0","3","no","left","d","885.461372531","1105.20239148","2","green","3"
"100","71","20","959.485463104","1","0","1","28","0","left","out","Female","Right-handed","0","3","no","left","d","865.915923525","1754.05138955","2","green","0"
"100","75","20","1020.607245","1","1","1","29","2","left","in","Female","Right-handed","0","3","no","left","d","1103.51352409","1793.40591251","2","red","1"
"100","77","20","1040.93420587","1","1","1","30","1","right","out","Female","Right-handed","0","3","no","right","d","1262.1198525","1144.97993307","2","red","2"
"100","80","20","1016.39893126","1","1","1","31","0","right","in","Female","Right-handed","0","3","no","right","d","845.59852165","745.56439793","2","green","0"
"100","81","20","1017.599954","1","1","1","32","1","right","out","Female","Right-handed","0","3","no","right","s","858.094729232","1201.12563365","2","red","0"
"100","75","20","1033.81372192","1","0","1","33","2","right","out","Female","Right-handed","0","3","no","right","d","1150.64594528","1273.68439283","2","red","2"
"100","76","20","1012.53397755","1","1","1","34","2","right","in","Female","Right-handed","0","3","no","right","s","841.136460873","673.217629133","2","green","0"
"100","78","20","1006.34612701","1","1","1","35","2","right","out","Female","Right-handed","0","3","no","right","d","737.983416646","1113.8247234","2","green","2"
"100","80","20","1006.01214556","1","1","1","36","1","left","in","Female","Right-handed","0","3","no","left","s","977.32280202","1025.35000863","2","green","2"
"100","81","20","1004.00748212","1","1","1","37","1","left","in","Female","Right-handed","0","3","no","left","d","850.99577751","1096.8792835","2","green","2"
"100","82","20","1012.3305506","1","1","1","38","1","right","in","Female","Right-handed","0","3","no","right","d","1337.46367139","953.53562112","2","red","1"
"100","83","20","1021.92117379","1","1","1","39","1","left","in","Female","Right-handed","0","3","no","left","s","1464.88015327","905.04338266","2","green","0"
"100","84","20","1017.05428773","1","1","1","40","1","left","in","Female","Right-handed","0","3","no","left","d","914.463003672","944.437673865","2","red","1"
"100","85","20","998.28840217","1","1","1","41","2","left","out","Female","Right-handed","0","3","no","left","s","882.187869018","401.28528389","2","red","0"
"100","80","20","985.028356863","1","0","1","42","0","right","in","Female","Right-handed","0","3","no","right","s","766.816674182","672.838227285","2","green","0"
"100","81","20","974.837367137","1","1","1","43","0","right","in","Female","Right-handed","0","3","no","right","s","656.262888599","865.39027718","2","red","3"
"100","82","20","981.71070172","1","1","1","44","1","left","in","Female","Right-handed","0","3","no","left","d","1024.90037094","1240.94775415","2","red","3"
"100","83","20","970.266197594","1","1","1","45","3","left","out","Female","Right-handed","0","3","no","left","s","708.54754197","705.537663413","2","green","2"
"100","80","20","982.922503885","1","0","1","46","0","right","in","Female","Right-handed","0","3","no","right","d","908.249536729","1665.09817303","2","red","2"
"100","76","20","992.564917829","1","0","1","47","0","left","out","Female","Right-handed","0","3","no","left","d","881.741438443","1585.50909442","2","red","1"
"100","74","20","984.530706605","1","0","1","48","3","right","in","Female","Right-handed","0","3","no","right","s","702.14196877","849.140460785","2","green","0"
"100","75","20","966.986718919","1","1","1","49","1","left","in","Female","Right-handed","0","3","no","left","s","649.795738769","336.802364029","2","red","2"
"100","72","20","966.290499214","1","0","1","50","0","left","in","Female","Right-handed","0","3","no","left","s","1020.28821712","873.304477838","2","green","2"
"100","73","20","968.112135321","1","1","1","51","3","right","in","Female","Right-handed","0","3","no","right","d","952.95352953","1088.92563531","2","green","0"
"100","74","20","973.593075882","1","1","1","52","2","right","in","Female","Right-handed","0","3","no","right","d","1226.6475437","1049.39504167","2","red","1"
"100","75","20","969.701315856","1","1","1","53","1","left","in","Female","Right-handed","0","3","no","left","d","816.981744454","881.131765655","2","red","0"
"100","75","20","969.652473389","1","1","1","54","0","left","out","Female","Right-handed","0","3","no","left","d","967.665533699","968.513495223","2","red","0"
"100","76","20","967.564358616","1","1","1","55","2","right","in","Female","Right-handed","0","3","no","right","s","932.155380931","865.157761255","2","red","2"
"100","77","20","962.00119378","1","1","1","56","0","right","out","Female","Right-handed","0","3","no","right","d","552.855520058","992.851658688","2","green","0"
"100","77","20","957.150535514","1","1","1","57","1","left","in","Female","Right-handed","0","3","no","left","s","1149.40607415","425.348918208","2","red","1"
"100","78","20","953.455412876","1","1","1","58","3","left","in","Female","Right-handed","0","3","no","left","s","975.940855646","664.921140218","2","red","1"
"100","78","20","953.23283559","1","1","1","59","3","right","out","Female","Right-handed","0","3","no","right","d","881.439328099","1008.5556239","2","red","0"
"100","79","20","952.921528264","1","1","1","60","3","left","out","Female","Right-handed","0","3","no","left","s","641.109264525","1241.07443525","2","red","2"
"100","77","20","957.665448711","1","0","1","61","0","right","out","Female","Right-handed","0","3","no","right","s","724.740271693","1560.61642056","2","red","0"
"100","75","20","949.997995943","1","0","1","62","1","left","out","Female","Right-handed","0","3","no","left","d","717.314835543","569.284934954","2","green","1"
"100","76","20","942.267872671","1","1","1","63","3","left","in","Female","Right-handed","0","3","no","left","d","505.81642595","744.84921102","2","green","2"
"100","76","20","936.434393687","1","1","1","64","3","right","in","Female","Right-handed","0","3","no","right","s","717.450496559","665.406056189","2","red","2"
"100","77","20","933.788710549","1","1","1","65","3","left","out","Female","Right-handed","0","3","no","left","d","782.963542148","857.08512905","2","green","0"
"100","77","20","932.228674227","1","1","1","66","0","left","in","Female","Right-handed","0","3","no","left","s","974.60958171","752.564570474","2","green","2"
"100","78","20","922.619324175","1","1","1","67","2","right","in","Female","Right-handed","0","3","no","right","s","611.274424595","369.122719017","2","green","3"
"100","78","20","918.23229664","1","1","1","68","2","right","out","Female","Right-handed","0","3","no","right","d","559.96088601","872.897174082","2","green","0"
"100","79","20","913.185839796","1","1","1","69","1","left","out","Female","Right-handed","0","3","no","left","s","559.424656181","792.580080088","2","red","3"
"100","79","20","904.335945187","1","1","1","70","3","left","in","Female","Right-handed","0","3","no","left","s","502.109961752","456.972046133","2","green","0"
"100","80","20","903.173560149","1","1","1","71","2","right","out","Female","Right-handed","0","3","no","right","d","795.716639735","896.716746858","2","red","0"
"100","80","20","898.618132861","1","1","1","72","0","left","out","Female","Right-handed","0","3","no","left","s","804.369118552","537.324418405","2","green","1"
"100","80","20","897.85404577","1","1","1","73","3","left","out","Female","Right-handed","0","3","no","left","d","844.891993947","872.879214232","2","green","1"
"100","81","20","898.611801566","1","1","1","74","2","right","out","Female","Right-handed","0","3","no","right","s","571.571288099","1304.45891781","2","green","0"
"100","81","20","894.546699187","1","1","1","75","3","right","in","Female","Right-handed","0","3","no","right","s","877.142754514","481.049791761","2","green","0"
"100","81","20","892.086499073","1","1","1","76","1","right","in","Female","Right-handed","0","3","no","right","s","525.732617589","992.7387682","2","red","0"
"100","82","20","891.045594678","1","1","1","77","2","left","in","Female","Right-handed","0","3","no","left","d","675.296161146","992.29554474","2","green","1"
"100","82","20","889.847759432","1","1","1","78","2","right","out","Female","Right-handed","0","3","no","right","d","828.768217223","816.76975407","2","red","0"
"100","82","20","891.382173526","1","1","1","79","0","right","in","Female","Right-handed","0","3","no","right","d","1013.33166136","944.355892403","2","red","1"
"100","83","20","897.578224472","1","1","1","80","3","right","out","Female","Right-handed","0","3","no","right","s","912.992220175","1600.90613861","2","green","1"
"100","83","20","896.043741537","1","1","1","81","2","left","out","Female","Right-handed","0","3","no","left","s","618.55586123","992.462635491","2","red","1"
"100","83","20","888.717405145","1","1","1","82","3","right","out","Female","Right-handed","0","3","no","right","s","505.203225333","393.071217866","2","green","3"
"100","83","20","885.686532779","1","1","1","83","0","left","out","Female","Right-handed","0","3","no","left","d","616.851278963","784.75535797","2","red","1"
"100","84","20","883.917835862","1","1","1","84","0","right","out","Female","Right-handed","0","3","no","right","d","700.129503351","848.387750612","2","green","2"
"100","84","20","880.395161215","1","1","1","85","3","right","in","Female","Right-handed","0","3","no","right","s","723.941699758","592.991617239","2","green","1"
"100","0","20","867.974731773","1","0","2","86","1","right","out","Female","Right-handed","0","3","no","right","d","950.955816843","784.993646703","2","red","0"
"100","50","20","784.214157109","1","1","2","87","2","left","out","Female","Right-handed","0","3","no","left","d","727.412120206","673.495044684","2","red","2"
"100","33","20","805.498344166","1","0","2","88","1","left","in","Female","Right-handed","0","3","no","left","s","639.094554124","1057.03888243","2","red","0"
"100","50","20","795.164334238","1","1","2","89","2","right","out","Female","Right-handed","0","3","no","right","d","518.667019878","1009.65758903","2","green","0"
"100","60","20","751.169218355","1","1","2","90","3","right","in","Female","Right-handed","0","3","no","right","s","605.325224031","545.052285615","2","red","0"
"100","66","20","738.207246629","1","1","2","91","1","left","in","Female","Right-handed","0","3","no","left","d","537.924469849","808.870306144","2","red","2"
"100","71","20","710.594667152","1","1","2","92","3","left","out","Female","Right-handed","0","3","no","left","s","504.417161152","585.421219435","2","green","2"
"100","75","20","701.469897526","1","1","2","93","1","left","out","Female","Right-handed","0","3","no","left","s","746.057652403","529.135367884","2","red","1"
"100","77","20","734.094396263","1","1","2","94","2","right","in","Female","Right-handed","0","3","no","right","d","933.678119705","1056.50265261","2","red","0"
"100","80","20","731.060824241","1","1","2","95","2","right","out","Female","Right-handed","0","3","no","right","d","702.267687728","705.249664374","2","red","0"
"100","81","20","740.003929009","1","1","2","96","1","right","in","Female","Right-handed","0","3","no","right","d","689.887577748","968.982375612","2","red","2"
"100","83","20","740.920774287","1","1","2","97","1","right","in","Female","Right-handed","0","3","no","right","s","892.485598444","609.526546265","2","green","1"
"100","84","20","733.780318164","1","1","2","98","1","left","out","Female","Right-handed","0","3","no","left","d","599.071668141","697.118021235","2","green","2"
"100","85","20","726.811862591","1","1","2","99","0","right","out","Female","Right-handed","0","3","no","right","d","607.710356355","664.733523925","2","green","3"
"100","86","20","745.15175967","1","1","2","100","3","left","out","Female","Right-handed","0","3","no","left","d","482.369840793","1521.45079674","2","red","2"
"100","87","20","732.01195669","1","1","2","101","3","right","out","Female","Right-handed","0","3","no","right","s","501.006713777","568.823110221","2","green","3"
"100","88","20","743.914629057","1","1","2","102","1","right","in","Female","Right-handed","0","3","no","right","d","1203.30454839","665.41022544","2","green","0"
"94","88","20","786.587966529","0","1","2","103","0","left","in","Female","Right-handed","0","3","no","right","s","1028.0924137","1995.97699343","2","green","0"
"94","89","20","801.557996797","1","1","2","104","2","left","in","Female","Right-handed","0","3","no","left","d","821.468179314","1320.56890393","2","red","0"
"95","85","20","796.534654815","1","0","2","105","2","left","in","Female","Right-handed","0","3","no","left","d","713.073103645","689.109210645","2","red","3"
"95","85","20","790.684246795","1","1","2","106","3","left","in","Female","Right-handed","0","3","no","left","s","762.691039894","584.661132896","2","green","0"
"95","86","20","786.191132872","1","1","2","107","0","right","out","Female","Right-handed","0","3","no","right","d","750.344283926","633.327197051","2","red","0"
"95","86","20","785.481225974","1","1","2","108","1","right","in","Female","Right-handed","0","3","no","right","d","738.873712104","800.852836343","2","green","1"
"95","83","20","783.859991257","1","0","2","109","3","right","in","Female","Right-handed","0","3","no","right","s","988.495432743","504.647752809","2","green","1"
"96","84","20","784.109130467","1","1","2","110","1","left","in","Female","Right-handed","0","3","no","left","d","899.077825805","681.09911721","2","green","1"
"96","84","20","784.01609918","1","1","2","111","0","left","in","Female","Right-handed","0","3","no","left","d","682.69465752","880.685976499","2","red","1"
"96","85","20","782.375826221","1","1","2","112","2","left","in","Female","Right-handed","0","3","no","left","s","934.25283493","545.204623635","2","green","3"
"96","85","20","779.234106975","1","1","2","113","0","left","in","Female","Right-handed","0","3","no","left","s","579.941861397","808.873513259","2","red","3"
"96","86","20","768.141207645","1","1","2","114","1","left","out","Female","Right-handed","0","3","no","left","s","530.601982126","384.4780707","2","red","3"
"96","86","20","766.718429522","1","1","2","115","0","left","out","Female","Right-handed","0","3","no","left","d","689.910027559","761.005700329","2","red","2"
"96","87","20","768.264656112","1","1","2","116","0","right","in","Female","Right-handed","0","3","no","right","s","1132.69218804","496.610719591","2","red","0"
"96","87","20","771.889695608","1","1","2","117","3","left","in","Female","Right-handed","0","3","no","left","s","1352.25841916","416.273420768","2","green","0"
"96","87","20","762.574733339","1","1","2","118","2","left","out","Female","Right-handed","0","3","no","left","s","535.964601135","393.027280374","2","green","2"
"97","88","20","763.05849995","1","1","2","119","0","right","in","Female","Right-handed","0","3","no","right","d","597.503709028","960.541887183","2","red","2"
"97","88","20","760.016726485","1","1","2","120","3","left","out","Female","Right-handed","0","3","no","left","d","632.020938618","681.171918746","2","green","3"
"97","86","20","760.576971252","1","0","2","121","3","left","out","Female","Right-handed","0","3","no","left","s","911.668322609","648.702753566","2","green","0"
"97","86","20","763.502509638","1","1","2","122","3","right","out","Female","Right-handed","0","3","no","right","d","985.342196091","752.301586945","2","green","2"
"97","86","20","765.604050885","1","1","2","123","3","right","out","Female","Right-handed","0","3","no","right","d","693.872098924","992.850055129","2","red","1"
"97","87","20","771.25346864","1","1","2","124","0","right","in","Female","Right-handed","0","3","no","right","d","1059.4583309","912.404355775","2","green","2"
"97","87","20","769.372994349","1","1","2","125","2","right","out","Female","Right-handed","0","3","no","right","d","695.0029281","697.066065954","2","red","1"
"97","87","20","765.952954765","1","1","2","126","1","left","out","Female","Right-handed","0","3","no","left","s","729.662553647","528.640189143","2","green","0"
"97","88","20","766.613511006","1","1","2","127","3","right","in","Female","Right-handed","0","3","no","right","d","739.235154098","848.157479668","2","green","1"
"97","88","20","765.746690714","1","1","2","128","0","right","out","Female","Right-handed","0","3","no","right","d","585.887534129","872.792942802","2","green","0"
"97","88","20","762.308143019","1","1","2","129","1","right","in","Female","Right-handed","0","3","no","right","s","532.473334435","696.427849827","2","red","0"
"97","88","20","757.455942954","1","1","2","130","0","left","out","Female","Right-handed","0","3","no","left","s","535.08681343","552.831466684","2","red","2"
"97","89","20","759.711364003","1","1","2","131","3","right","in","Female","Right-handed","0","3","no","right","d","753.728432945","968.682189538","2","red","2"
"97","87","20","762.659033557","1","0","2","132","0","left","in","Female","Right-handed","0","3","no","left","d","860.333617056","936.170048997","2","green","1"
"97","87","20","757.268364295","1","1","2","133","1","left","in","Female","Right-handed","0","3","no","left","s","598.94049709","408.873320834","2","green","3"
"97","87","20","752.618711832","1","1","2","134","1","left","out","Female","Right-handed","0","3","no","left","s","666.422070604","392.448716608","2","green","2"
"98","88","20","751.938589497","1","1","2","135","3","right","out","Female","Right-handed","0","3","no","right","d","789.187271854","648.037918378","2","red","0"
"98","88","20","748.737509273","1","1","2","136","0","left","in","Female","Right-handed","0","3","no","left","s","688.71249037","488.654505709","2","green","0"
"98","88","20","746.566291782","1","1","2","137","2","left","in","Female","Right-handed","0","3","no","left","s","895.208440103","376.459959476","2","red","2"
"98","88","20","745.214562065","1","1","2","138","2","right","out","Female","Right-handed","0","3","no","right","d","628.873474776","720.97575869","2","green","2"
"98","88","20","743.581806205","1","1","2","139","0","right","out","Female","Right-handed","0","3","no","right","s","817.564477467","496.52701386","2","green","0"
"98","89","20","743.183175375","1","1","2","140","2","left","out","Female","Right-handed","0","3","no","left","s","955.082413264","488.231807791","2","red","1"
"98","87","20","745.568759036","1","0","2","141","2","right","out","Female","Right-handed","0","3","no","right","d","624.735974157","1128.81574668","2","red","0"
"98","85","20","741.214032009","1","0","2","142","3","right","out","Female","Right-handed","0","3","no","right","s","666.371718879","328.326918032","2","red","0"
"98","84","20","737.692216021","1","0","2","143","0","right","in","Female","Right-handed","0","3","no","right","s","744.997059075","328.90035041","2","red","1"
"98","84","20","733.994519658","1","1","2","144","2","right","out","Female","Right-handed","0","3","no","right","s","654.567286259","384.488974898","2","green","1"
"98","85","20","731.664398166","1","1","2","145","0","right","in","Female","Right-handed","0","3","no","right","s","836.190125545","352.184334777","2","green","1"
"98","85","20","727.028047009","1","1","2","146","2","left","out","Female","Right-handed","0","3","no","left","s","512.843217559","384.850737602","2","red","1"
"98","85","20","724.83139259","1","1","2","147","3","left","out","Female","Right-handed","0","3","no","left","s","789.370718903","392.30022713","2","green","1"
"98","85","20","723.144662657","1","1","2","148","1","right","in","Female","Right-handed","0","3","no","right","s","717.032930028","520.101883667","2","green","0"
"98","85","20","722.676319532","1","1","2","149","2","left","in","Female","Right-handed","0","3","no","left","s","913.700030724","472.64137449","2","red","0"
"100","100","20","588.011927906","1","1","3","150","2","left","out","Female","Right-handed","0","3","no","left","s","775.037475152","400.98638066","2","green","1"
"100","100","20","730.583958133","1","1","3","151","0","right","in","Female","Right-handed","0","3","no","right","d","777.646464186","968.665512533","2","red","3"
"100","100","20","701.655983762","1","1","3","152","1","right","out","Female","Right-handed","0","3","no","right","d","638.290209379","649.309860663","2","red","2"
"100","100","20","708.705572621","1","1","3","153","2","right","in","Female","Right-handed","0","3","no","right","s","1098.92349938","360.785179019","2","red","2"
"100","100","20","690.764371248","1","1","3","154","0","left","in","Female","Right-handed","0","3","no","left","s","901.360330412","336.638801102","2","green","0"
"100","100","20","676.730517143","1","1","3","155","0","left","in","Female","Right-handed","0","3","no","left","s","836.05991663","377.062576608","2","red","2"
"100","100","20","639.80000515","1","1","3","156","2","left","in","Female","Right-handed","0","3","no","left","s","515.705248061","320.728618317","2","green","2"
"100","100","20","655.927324021","1","1","3","157","2","left","out","Female","Right-handed","0","3","no","left","d","841.359034734","696.278077499","2","green","1"
"100","100","20","723.030825304","1","1","3","158","2","left","out","Female","Right-handed","0","3","no","left","d","1742.81333365","776.904337494","2","green","0"
"100","100","20","727.119246353","1","1","3","159","1","left","out","Female","Right-handed","0","3","no","left","d","823.395976866","704.434094725","2","red","0"
"100","100","20","754.282651781","1","1","3","160","0","left","out","Female","Right-handed","0","3","no","left","s","1450.85126485","600.982147265","2","green","0"
"100","100","20","750.972691619","1","1","3","161","1","left","out","Female","Right-handed","0","3","no","left","s","1036.5928752","392.533384474","2","green","1"
"100","100","20","739.335265465","1","1","3","162","1","left","out","Female","Right-handed","0","3","no","left","s","782.253486617","417.1188166","2","red","3"
"100","100","20","729.412765111","1","1","3","163","2","left","in","Female","Right-handed","0","3","no","left","s","815.904474122","384.936046896","2","green","0"
"100","100","20","735.01013128","1","1","3","164","1","right","out","Female","Right-handed","0","3","no","right","d","642.326044413","984.420470893","2","red","2"
"100","100","20","740.413157948","1","1","3","165","1","right","out","Female","Right-handed","0","3","no","right","d","666.000976245","976.916139683","2","green","0"
"100","100","20","747.773525603","1","1","3","166","1","left","out","Female","Right-handed","0","3","no","left","s","1034.46784","696.610976163","2","red","2"
"100","100","20","767.129359104","1","1","3","167","3","right","out","Female","Right-handed","0","3","no","right","d","992.102797056","1200.25426017","2","red","1"
"100","100","20","776.106390105","1","1","3","168","2","left","in","Female","Right-handed","0","3","no","left","d","858.682914342","1016.70298191","2","green","0"
"100","100","20","776.917999811","1","1","3","169","3","left","in","Female","Right-handed","0","3","no","left","s","1160.30353431","424.373634171","2","red","0"
"100","100","20","777.463070592","1","1","3","170","0","right","out","Female","Right-handed","0","3","no","right","d","743.811708926","832.917263458","2","red","1"
"100","100","20","777.417847823","1","1","3","171","2","left","in","Female","Right-handed","0","3","no","left","d","912.471705218","640.464634165","2","red","0"
"100","100","20","797.469684316","1","1","3","172","3","left","in","Female","Right-handed","0","3","no","left","d","1652.15585558","825.064318717","2","red","2"
"100","100","20","794.228564544","1","1","3","173","0","left","in","Female","Right-handed","0","3","no","left","s","790.790829957","648.574789629","2","red","2"
"100","100","20","783.110934791","1","1","3","174","0","right","out","Female","Right-handed","0","3","no","right","s","656.353970699","376.22167074","2","red","0"
"100","100","20","777.835659372","1","1","3","175","1","left","in","Female","Right-handed","0","3","no","left","d","474.999246326","816.908301491","2","green","1"
"100","100","20","769.34502206","1","1","3","176","2","right","out","Female","Right-handed","0","3","no","right","s","720.566209951","376.610693936","2","green","1"
"100","100","20","779.460758459","1","1","3","177","3","right","out","Female","Right-handed","0","3","no","right","d","1281.09764194","824.073640517","2","green","2"
"100","100","20","775.551597999","1","1","3","178","0","right","in","Female","Right-handed","0","3","no","right","d","571.677443648","760.512766567","2","red","0"
"100","100","20","777.754431754","1","1","3","179","3","right","out","Female","Right-handed","0","3","no","right","d","915.136498072","768.136723214","2","red","1"
"100","100","20","770.548810829","1","1","3","180","3","right","in","Female","Right-handed","0","3","no","right","s","747.876087291","360.884278911","2","green","3"
"100","100","20","770.23636707","1","1","3","181","3","right","out","Female","Right-handed","0","3","no","right","d","784.539198336","736.562022743","2","green","2"
"100","100","20","761.336276261","1","1","3","182","3","left","out","Female","Right-handed","0","3","no","left","s","577.020499244","376.046241483","2","green","3"
"100","100","20","759.554022759","1","1","3","183","3","right","out","Female","Right-handed","0","3","no","right","d","712.824552142","688.654762282","2","green","2"
"100","100","20","762.188260287","1","1","3","184","3","right","in","Female","Right-handed","0","3","no","right","d","927.265490853","776.239181596","2","green","0"
"100","100","20","762.820994916","1","1","3","185","3","right","out","Female","Right-handed","0","3","no","right","s","857.071659164","712.861754691","2","red","0"
"100","100","20","755.935925702","1","1","3","186","2","left","in","Female","Right-handed","0","3","no","left","s","671.529723877","344.617144088","2","green","3"
"100","100","20","754.021103399","1","1","3","187","2","right","in","Female","Right-handed","0","3","no","right","s","862.054876325","504.290480061","2","green","0"
"100","100","20","755.013273596","1","1","3","188","2","right","in","Female","Right-handed","0","3","no","right","d","928.743971421","656.687510785","2","red","2"
"100","100","20","754.04720827","1","1","3","189","2","right","in","Female","Right-handed","0","3","no","right","s","880.359171359","552.382149704","2","green","0"
"100","100","20","749.253571081","1","1","3","190","1","left","out","Female","Right-handed","0","3","no","left","s","738.988526864","376.02764021","2","green","3"
"100","100","20","742.156004639","1","1","3","191","3","right","in","Female","Right-handed","0","3","no","right","s","549.599334972","352.712226104","2","green","0"
"100","100","20","740.959053644","1","1","3","192","1","right","in","Female","Right-handed","0","3","no","right","d","733.189740051","648.184483587","2","green","1"
"100","100","20","740.44429522","1","1","3","193","2","left","in","Female","Right-handed","0","3","no","left","d","708.818864001","727.800501976","2","green","1"
"100","97","20","741.611359948","1","0","3","194","0","left","in","Female","Right-handed","0","3","no","left","s","753.46384586","832.460570109","2","red","1"
"100","97","20","743.174608318","1","1","3","195","2","right","in","Female","Right-handed","0","3","no","right","d","819.021149648","808.020420351","2","green","2"
"100","97","20","739.331080992","1","1","3","196","1","right","out","Female","Right-handed","0","3","no","right","s","556.519971036","568.537676882","2","green","0"
"100","97","20","737.851664301","1","1","3","197","3","right","in","Female","Right-handed","0","3","no","right","s","1000.27292559","336.365234089","2","green","1"
"100","97","20","732.157457703","1","1","3","198","0","left","out","Female","Right-handed","0","3","no","left","s","613.848776775","303.822305239","2","green","1"
"100","98","20","727.265417089","1","1","3","199","1","right","in","Female","Right-handed","0","3","no","right","s","598.561415954","376.549438017","2","red","0"
"100","98","20","722.204722477","1","1","3","200","0","left","out","Female","Right-handed","0","3","no","left","s","562.156798474","376.183185348","2","red","0"
"100","98","20","720.55285108","1","1","3","201","3","right","in","Female","Right-handed","0","3","no","right","s","695.830684788","576.784134781","2","red","0"
"100","98","20","719.494001416","1","1","3","202","1","left","in","Female","Right-handed","0","3","no","left","d","520.428368098","808.439269727","2","green","1"
"100","98","20","720.576481633","1","1","3","203","0","right","in","Female","Right-handed","0","3","no","right","d","708.045307572","847.850558646","2","red","3"
"100","98","20","719.612594357","1","1","3","204","0","right","in","Female","Right-handed","0","3","no","right","s","862.594313268","472.531049694","2","red","2"
"100","98","20","717.240544986","1","1","3","205","1","right","out","Female","Right-handed","0","3","no","right","s","821.230852715","352.324806467","2","green","0"
"100","98","20","717.417128483","1","1","3","206","3","right","out","Female","Right-handed","0","3","no","right","d","806.803961172","647.807647434","2","green","0"
"100","98","20","716.010584324","1","1","3","207","1","right","out","Female","Right-handed","0","3","no","right","d","631.310241668","640.364892853","2","red","0"
"100","98","20","722.952092413","1","1","3","208","1","left","out","Female","Right-handed","0","3","no","left","d","707.014540421","1544.10458278","2","red","2"
"100","98","20","726.195177288","1","1","3","209","3","left","out","Female","Right-handed","0","3","no","left","d","1002.55799589","832.516373928","2","red","1"
"100","96","20","724.841818983","1","0","3","210","0","left","in","Female","Right-handed","0","3","no","left","s","735.14094955","552.139691717","2","red","2"
"100","96","20","723.582893288","1","1","3","211","0","left","out","Female","Right-handed","0","3","no","left","s","581.736884338","711.839967465","2","red","1"
"100","96","20","719.198810142","1","1","3","212","2","left","out","Female","Right-handed","0","3","no","left","s","550.402396868","344.368913295","2","red","3"
"100","95","20","717.375785784","1","0","3","213","0","left","in","Female","Right-handed","0","3","no","left","s","644.964218205","560.086284255","2","red","0"
"100","100","20","762.858611717","1","1","4","214","3","left","out","Female","Right-handed","0","3","no","left","s","1028.87174294","496.845480498","2","red","1"
"100","100","20","694.167875215","1","1","4","215","2","left","out","Female","Right-handed","0","3","no","left","d","674.461028084","576.49324934","2","green","1"
"100","100","20","728.63515397","1","1","4","216","0","left","in","Female","Right-handed","0","3","no","left","d","962.068474495","633.070948465","2","red","0"
"100","100","20","727.540725565","1","1","4","217","3","left","out","Female","Right-handed","0","3","no","left","d","695.765259621","752.749621079","2","red","0"
"100","100","20","656.686420364","1","1","4","218","2","left","in","Female","Right-handed","0","3","no","left","s","394.366251385","352.172147734","2","green","2"
"100","100","20","709.469080085","1","1","4","219","0","right","out","Female","Right-handed","0","3","no","right","d","1161.9151102","784.849647185","2","green","2"
"100","100","20","714.692857687","1","1","4","220","1","left","out","Female","Right-handed","0","3","no","left","d","451.561641094","1040.50940551","2","green","1"
"100","100","20","707.86985827","1","1","4","221","2","right","in","Female","Right-handed","0","3","no","right","d","712.089481105","608.128243595","2","green","1"
"100","100","20","709.414959999","1","1","4","222","2","left","in","Female","Right-handed","0","3","no","left","d","714.770950966","728.780596692","2","red","3"
"100","90","20","688.017380003","1","0","4","223","1","left","in","Female","Right-handed","0","3","no","left","s","598.460391793","392.417928291","2","green","0"
"100","90","20","675.516927363","1","1","4","224","3","right","out","Female","Right-handed","0","3","no","right","s","660.988253618","440.036548298","2","green","0"
"100","91","20","675.90235956","1","1","4","225","1","left","out","Female","Right-handed","0","3","no","left","d","519.663791591","840.620435876","2","green","1"
"100","92","20","670.879098675","1","1","4","226","0","right","in","Female","Right-handed","0","3","no","right","s","820.960172106","400.239764007","2","red","2"
"100","92","20","661.944294957","1","1","4","227","1","left","out","Female","Right-handed","0","3","no","left","s","690.783325306","400.800367919","2","green","0"
"100","93","20","678.4441702","1","1","4","228","2","right","in","Female","Right-handed","0","3","no","right","d","1042.48851692","776.39633029","2","red","0"
"100","93","20","685.354318991","1","1","4","229","0","right","out","Female","Right-handed","0","3","no","right","s","1137.99290971","440.020192003","2","green","2"
"100","94","20","673.277111705","1","1","4","230","0","right","out","Female","Right-handed","0","3","no","right","s","511.491097364","448.592492914","2","green","0"
"100","94","20","660.637448555","1","1","4","231","0","left","out","Female","Right-handed","0","3","no","left","s","507.276946671","384.249403316","2","red","1"
"100","94","20","648.205346721","1","1","4","232","0","left","in","Female","Right-handed","0","3","no","left","s","488.898246542","359.9567809","2","green","1"
"100","95","20","646.669089108","1","1","4","233","1","right","in","Female","Right-handed","0","3","no","right","s","890.472812313","344.487576593","2","green","2"
"100","95","20","635.573507057","1","1","4","234","3","left","in","Female","Right-handed","0","3","no","left","s","491.217953695","336.105778391","2","green","3"
"100","95","20","641.238183307","1","1","4","235","1","right","in","Female","Right-handed","0","3","no","right","s","1031.70234369","488.690425412","2","green","2"
"100","95","20","639.351911255","1","1","4","236","1","left","in","Female","Right-handed","0","3","no","left","s","675.338815792","520.369036447","2","red","2"
"100","95","20","630.861399074","1","1","4","237","1","right","in","Female","Right-handed","0","3","no","right","s","526.980506503","344.178731302","2","green","1"
"100","96","20","630.933751883","1","1","4","238","2","left","in","Female","Right-handed","0","3","no","left","d","480.607530437","784.732908156","2","red","2"
"100","96","20","637.003224484","1","1","4","239","1","left","in","Female","Right-handed","0","3","no","left","d","745.374857364","832.105221634","2","green","0"
"100","96","20","638.256184252","1","1","4","240","3","left","out","Female","Right-handed","0","3","no","left","d","709.847065456","631.819211012","2","red","1"
"100","96","20","634.441303405","1","1","4","241","3","right","out","Female","Right-handed","0","3","no","right","s","654.381594231","408.497446813","2","red","1"
"100","96","20","632.999357891","1","1","4","242","1","right","in","Female","Right-handed","0","3","no","right","d","489.029417593","696.220349408","2","green","1"
"100","93","20","637.973592177","1","0","4","243","2","right","in","Female","Right-handed","0","3","no","right","d","459.720224011","1104.73254896","2","green","3"
"100","93","20","641.691335425","1","1","4","244","3","left","out","Female","Right-handed","0","3","no","left","d","618.324307441","888.122958269","2","red","2"
"100","93","20","641.805524442","1","1","4","245","2","right","out","Female","Right-handed","0","3","no","right","d","642.747138772","647.943629163","2","green","0"
"100","93","20","644.659002786","1","1","4","246","3","left","out","Female","Right-handed","0","3","no","left","s","503.474589699","968.466029906","2","green","2"
"100","94","20","659.713755068","1","1","4","247","2","right","in","Female","Right-handed","0","3","no","right","s","1633.00520258","680.035958187","2","red","1"
"100","94","20","668.926022","1","1","4","248","1","right","out","Female","Right-handed","0","3","no","right","d","1260.63656125","703.649634099","2","red","2"
"100","94","20","662.351050833","1","1","4","249","2","left","out","Female","Right-handed","0","3","no","left","s","496.240297671","368.213822287","2","red","2"
"100","91","20","657.853782926","1","0","4","250","2","left","in","Female","Right-handed","0","3","no","left","s","543.895158087","448.009118474","2","red","2"
"100","92","20","659.000837462","1","1","4","251","3","right","out","Female","Right-handed","0","3","no","right","s","1034.44955944","368.434151169","2","red","0"
"100","89","20","660.54174903","1","0","4","252","0","left","out","Female","Right-handed","0","3","no","left","d","518.181141772","920.011635419","2","red","0"
"100","87","20","663.495188203","1","0","4","253","2","right","out","Female","Right-handed","0","3","no","right","d","813.68001832","743.678613602","2","green","1"
"100","87","20","661.11018661","1","1","4","254","3","left","in","Female","Right-handed","0","3","no","left","s","715.219947237","416.200298521","2","green","0"
"100","88","20","669.434663758","1","1","4","255","0","right","in","Female","Right-handed","0","3","no","right","d","1173.75065184","847.725801828","2","red","2"
"100","86","20","663.059681494","1","0","4","256","3","right","in","Female","Right-handed","0","3","no","right","s","438.396429068","352.224423732","2","green","3"
"100","84","20","667.535712551","1","0","4","257","2","right","in","Female","Right-handed","0","3","no","right","d","943.991564","776.018532","2","red","0"
"100","84","20","668.282222948","1","1","4","258","0","left","in","Female","Right-handed","0","3","no","left","d","714.621499352","687.635861461","2","red","1"
"100","84","20","665.411173632","1","1","4","259","3","right","in","Female","Right-handed","0","3","no","right","s","632.217534847","440.210373996","2","red","0"
"100","85","20","675.473054076","1","1","4","260","3","right","in","Female","Right-handed","0","3","no","right","d","1132.7932122","1143.84589678","2","red","1"
"100","85","20","684.116469017","1","1","4","261","3","right","in","Female","Right-handed","0","3","no","right","s","677.382390237","1503.33155231","2","red","2"
"100","85","20","683.277354538","1","1","4","262","1","right","out","Female","Right-handed","0","3","no","right","s","837.980658522","448.019060535","2","red","0"
"100","84","20","683.881325796","1","0","4","263","3","left","in","Female","Right-handed","0","3","no","left","s","907.483998093","519.467836792","2","red","2"
"100","84","20","683.877045805","1","1","4","264","2","right","out","Female","Right-handed","0","3","no","right","s","799.154347598","568.171744922","2","green","0"
"100","82","20","683.048960601","1","0","4","265","0","left","out","Female","Right-handed","0","3","no","left","s","641.786286757","639.846943588","2","red","0"
"100","81","20","683.705831005","1","0","4","266","2","left","out","Female","Right-handed","0","3","no","left","s","867.416533198","568.30965092","2","green","0"
"100","81","20","687.876742613","1","1","4","267","0","left","out","Female","Right-handed","0","3","no","left","d","650.012539823","1167.85757582","2","green","1"
"100","81","20","684.950726741","1","1","4","268","0","right","out","Female","Right-handed","0","3","no","right","d","446.420954529","607.470784776","2","red","0"
"100","82","20","684.339544471","1","1","4","269","1","right","out","Female","Right-handed","0","3","no","right","d","557.152414353","744.296624893","2","red","0"
"100","82","20","685.62660597","1","1","4","270","0","left","in","Female","Right-handed","0","3","no","left","d","875.645993383","639.758106467","2","green","3"
"100","82","20","685.760364786","1","1","4","271","0","right","out","Female","Right-handed","0","3","no","right","s","826.41130752","560.357926995","2","green","3"
"100","83","20","687.94944676","1","1","4","272","2","left","in","Female","Right-handed","0","3","no","left","d","709.916659878","919.915742645","2","red","0"
"100","83","20","687.601008125","1","1","4","273","1","left","in","Female","Right-handed","0","3","no","left","s","814.596932844","519.489324473","2","green","0"
"100","83","20","689.027274084","1","1","4","274","1","right","out","Female","Right-handed","0","3","no","right","d","901.055975082","648.150488156","2","red","3"
"100","83","20","691.781263481","1","1","4","275","1","right","out","Female","Right-handed","0","3","no","right","d","791.837953398","927.711280005","2","red","3"
"100","84","20","688.376603491","1","1","4","276","0","left","out","Female","Right-handed","0","3","no","left","s","603.272348948","351.303019244","2","green","0"
"100","84","20","685.761141682","1","1","4","277","3","right","in","Female","Right-handed","0","3","no","right","s","610.059248262","431.914847213","2","green","0"
"100","100","20","644.280300674","1","1","5","278","2","left","out","Female","Right-handed","0","3","no","left","d","688.314166538","600.246434809","2","red","1"
"100","100","20","648.057481785","1","1","5","279","1","left","in","Female","Right-handed","0","3","no","left","s","719.917410341","583.751915452","2","red","0"
"100","100","20","649.190074873","1","1","5","280","2","right","out","Female","Right-handed","0","3","no","right","s","878.436825904","424.473696196","2","red","0"
"100","100","20","625.665476612","1","1","5","281","2","left","out","Female","Right-handed","0","3","no","left","s","734.121086596","376.062277064","2","green","3"
"100","100","20","638.074498743","1","1","5","282","0","left","out","Female","Right-handed","0","3","no","left","s","998.761732433","376.659442099","2","green","1"
"100","100","20","639.35497196","1","1","5","283","0","right","in","Female","Right-handed","0","3","no","right","d","419.24994532","872.264730766","2","red","0"
"100","100","20","659.130714817","1","1","5","284","0","right","in","Female","Right-handed","0","3","no","right","d","955.854366133","599.715977791","2","green","3"
"100","100","20","634.929472307","1","1","5","285","3","right","out","Female","Right-handed","0","3","no","right","s","450.436905441","480.604644035","2","red","3"
"100","100","20","629.613748465","1","1","5","286","3","left","in","Female","Right-handed","0","3","no","left","s","766.124257793","408.051657661","2","green","0"
"100","100","20","615.273025009","1","1","5","287","1","right","in","Female","Right-handed","0","3","no","right","s","620.722588937","351.690438878","2","red","0"
"100","90","20","613.922015645","1","0","5","288","3","left","in","Female","Right-handed","0","3","no","left","s","736.396214834","464.427629177","2","red","1"
"100","91","20","601.686055822","1","1","5","289","2","right","in","Female","Right-handed","0","3","no","right","s","606.035600271","328.145395255","2","red","1"
"100","92","20","606.755116793","1","1","5","290","0","right","in","Female","Right-handed","0","3","no","right","d","558.620952859","776.54674404","2","green","0"
"100","92","20","644.358004517","1","1","5","291","3","right","in","Female","Right-handed","0","3","no","right","d","1362.20945933","904.181630536","2","green","0"
"100","93","20","659.988060975","1","1","5","292","2","left","in","Female","Right-handed","0","3","no","left","d","1021.81191803","735.805784741","2","green","0"
"100","93","20","669.661067549","1","1","5","293","3","right","out","Female","Right-handed","0","3","no","right","s","1045.23926049","584.273071832","2","green","1"
"100","94","20","665.178200016","1","1","5","294","3","right","in","Female","Right-handed","0","3","no","right","d","458.895033011","728.009605951","2","green","3"
"100","94","20","649.646821673","1","1","5","295","0","right","in","Female","Right-handed","0","3","no","right","s","442.664459315","328.562320363","2","green","0"
"100","94","20","646.520901772","1","1","5","296","3","left","in","Female","Right-handed","0","3","no","left","s","844.26724771","336.241439403","2","red","0"
"100","95","20","653.410246928","1","1","5","297","3","right","in","Female","Right-handed","0","3","no","right","d","920.789040389","647.826569417","2","green","2"
"100","95","20","655.646381595","1","1","5","298","2","left","out","Female","Right-handed","0","3","no","left","d","760.389934017","640.34821585","2","green","1"
"100","95","20","645.984912092","1","1","5","299","3","right","out","Female","Right-handed","0","3","no","right","s","550.135564801","336.05254026","2","red","2"
"100","95","20","649.516154927","1","1","5","300","2","left","out","Female","Right-handed","0","3","no","left","s","870.691319556","583.715675035","2","red","0"
"100","95","20","646.194701833","1","1","5","301","1","left","in","Female","Right-handed","0","3","no","left","d","499.387120093","640.215441235","2","green","1"
"100","92","20","658.921466062","1","0","5","302","2","left","out","Female","Right-handed","0","3","no","left","s","1160.85227189","767.875343241","2","green","0"
"100","92","20","656.535598324","1","1","5","303","1","left","out","Female","Right-handed","0","3","no","left","s","706.394925575","487.382884134","2","red","2"
"100","92","20","659.941106418","1","1","5","304","3","left","out","Female","Right-handed","0","3","no","left","d","816.985272282","679.983361479","2","red","0"
"100","92","20","678.981761909","1","1","5","305","3","right","in","Female","Right-handed","0","3","no","right","d","1210.55070675","1175.60821355","2","red","2"
"100","93","20","678.387395396","1","1","5","306","2","right","out","Female","Right-handed","0","3","no","right","d","515.235726249","808.254539836","2","green","2"
"100","93","20","683.252610218","1","1","5","307","3","left","out","Female","Right-handed","0","3","no","left","s","856.843953912","791.843726209","2","green","2"
"100","93","20","683.288874081","1","1","5","308","2","right","in","Female","Right-handed","0","3","no","right","d","681.379419166","687.374160778","2","red","1"
"100","93","20","681.545452574","1","1","5","309","3","left","out","Female","Right-handed","0","3","no","left","s","830.969902497","424.02886918","2","green","0"
"100","93","20","681.729281529","1","1","5","310","1","right","out","Female","Right-handed","0","3","no","right","s","1055.59632157","319.627294612","2","green","2"
"100","94","20","681.861920366","1","1","5","311","0","right","out","Female","Right-handed","0","3","no","right","d","612.240087285","760.237916707","2","red","1"
"100","94","20","684.089386544","1","1","5","312","2","left","out","Female","Right-handed","0","3","no","left","s","983.696945481","535.949527686","2","red","0"
"100","94","20","681.18124611","1","1","5","313","0","right","out","Female","Right-handed","0","3","no","right","s","687.312904858","471.479757005","2","green","2"
"100","94","20","681.068701613","1","1","5","314","1","left","in","Female","Right-handed","0","3","no","left","d","618.062927471","735.971271934","2","red","1"
"100","94","20","680.703755739","1","1","5","315","1","right","out","Female","Right-handed","0","3","no","right","s","838.691676188","495.709840652","2","red","3"
"100","94","20","684.036876771","1","1","5","316","1","left","in","Female","Right-handed","0","3","no","left","d","766.182627307","855.208324647","2","green","0"
"100","95","20","682.057940724","1","1","5","317","1","right","in","Female","Right-handed","0","3","no","right","d","545.956692385","663.802177376","2","green","1"
"100","95","20","686.041291105","1","1","5","318","0","right","out","Female","Right-handed","0","3","no","right","s","1243.41402652","447.336586203","2","green","2"
"100","92","20","688.922877194","1","0","5","319","3","left","in","Female","Right-handed","0","3","no","left","s","1070.09024184","544.045571842","2","red","1"
"100","90","20","689.253206434","1","0","5","320","0","right","in","Female","Right-handed","0","3","no","right","s","550.651910511","855.602158518","2","green","0"
"100","90","20","686.97189365","1","1","5","321","1","left","out","Female","Right-handed","0","3","no","left","s","826.53927146","351.211616431","2","green","0"
"100","91","20","686.793362723","1","1","5","322","0","right","out","Female","Right-handed","0","3","no","right","s","893.925272911","463.950730995","2","red","2"
"100","91","20","690.677201132","1","1","5","323","0","right","out","Female","Right-handed","0","3","no","right","d","947.448193849","783.451665229","2","green","1"
"100","91","20","699.683891615","1","1","5","324","1","left","in","Female","Right-handed","0","3","no","left","d","876.044958637","1351.93834897","2","green","3"
"100","91","20","700.629105242","1","1","5","325","2","left","in","Female","Right-handed","0","3","no","left","d","802.579547704","687.52874378","2","green","3"
"100","91","20","699.640496673","1","1","5","326","0","left","in","Female","Right-handed","0","3","no","left","s","857.221752201","447.152818444","2","red","1"
"100","92","20","694.725878157","1","1","5","327","1","right","out","Female","Right-handed","0","3","no","right","s","491.87637465","415.942767086","2","red","1"
"100","90","20","694.279368094","1","0","5","328","0","left","out","Female","Right-handed","0","3","no","left","s","856.497906072","487.409823912","2","red","0"
"100","90","20","689.333502167","1","1","5","329","1","right","out","Female","Right-handed","0","3","no","right","s","522.027115527","352.161564253","2","green","0"
"100","90","20","688.990559448","1","1","5","330","2","left","out","Female","Right-handed","0","3","no","left","s","830.575106495","511.739969585","2","red","0"
"100","90","20","686.439960492","1","1","5","331","2","left","in","Female","Right-handed","0","3","no","left","s","591.272923666","511.243507993","2","red","2"
"100","90","20","691.25738956","1","1","5","332","3","left","out","Female","Right-handed","0","3","no","left","d","1086.92086698","815.876251498","2","red","1"
"100","91","20","698.178623155","1","1","5","333","0","right","out","Female","Right-handed","0","3","no","right","d","1230.35336648","927.339575235","2","red","3"
"100","91","20","700.33334372","1","1","5","334","0","left","in","Female","Right-handed","0","3","no","left","s","1203.02424644","438.971144293","2","green","2"
"100","91","20","712.526312453","1","1","5","335","1","right","in","Female","Right-handed","0","3","no","right","d","887.561392221","1927.48966828","2","red","2"
"100","91","20","709.9005944","1","1","5","336","1","right","in","Female","Right-handed","0","3","no","right","s","684.13914266","431.078752019","2","red","0"
"100","91","20","715.697879711","1","1","5","337","1","right","out","Female","Right-handed","0","3","no","right","d","667.824542521","1447.65088359","2","green","2"
"100","91","20","713.035067776","1","1","5","338","2","left","in","Female","Right-handed","0","3","no","left","s","563.191414163","543.341289122","2","red","2"
"100","91","20","715.518020238","1","1","5","339","2","left","out","Female","Right-handed","0","3","no","left","d","590.025676174","1143.93056465","2","green","2"
"100","92","20","717.35138394","1","1","5","340","0","left","in","Female","Right-handed","0","3","no","left","d","574.481425345","1087.55844168","2","green","0"
"100","92","20","715.604395281","1","1","5","341","3","right","in","Female","Right-handed","0","3","no","right","s","844.078348564","367.009870861","2","red","0"
"100","100","20","663.010821452","1","1","6","342","1","left","out","Female","Right-handed","0","3","no","left","s","934.500745014","391.52089789","2","green","2"
"100","100","20","648.079209998","1","1","6","343","2","right","in","Female","Right-handed","0","3","no","right","s","890.146648595","376.148548494","2","green","0"
"100","100","20","642.136824558","1","1","6","344","2","left","out","Female","Right-handed","0","3","no","left","s","788.734747755","471.769359599","2","red","0"
"100","100","20","641.066168901","1","1","6","345","0","left","out","Female","Right-handed","0","3","no","left","d","651.322967504","624.385436357","2","green","1"
"100","80","20","621.15096345","1","0","6","346","2","right","out","Female","Right-handed","0","3","no","right","s","610.997650466","471.982632826","2","green","3"
"100","83","20","610.231898021","1","1","6","347","0","right","in","Female","Right-handed","0","3","no","right","d","455.627302308","655.645839441","2","red","0"
"100","85","20","601.442414259","1","1","6","348","3","right","out","Female","Right-handed","0","3","no","right","d","433.290700068","664.120323305","2","red","3"
"100","87","20","605.920585068","1","1","6","349","2","right","in","Female","Right-handed","0","3","no","right","s","898.773791192","375.76177028","2","red","1"
"100","77","20","608.248670811","1","0","6","350","2","right","out","Female","Right-handed","0","3","no","right","d","518.351439645","735.395273867","2","red","2"
"100","80","20","645.972262936","1","1","6","351","2","right","in","Female","Right-handed","0","3","no","right","s","1282.93050885","688.038675257","2","red","0"
"100","81","20","637.70744721","1","1","6","352","1","right","out","Female","Right-handed","0","3","no","right","s","702.615980546","407.502599366","2","green","0"
"100","83","20","642.455852442","1","1","6","353","3","right","in","Female","Right-handed","0","3","no","right","d","677.108181801","712.268438194","2","red","0"
"100","84","20","638.904865536","1","1","6","354","2","left","in","Female","Right-handed","0","3","no","left","d","544.791867782","647.794177545","2","green","2"
"100","78","20","704.157893295","1","0","6","355","1","right","in","Female","Right-handed","0","3","no","right","d","513.484961513","2591.40954681","2","green","1"
"100","80","20","706.667872543","1","1","6","356","3","right","out","Female","Right-handed","0","3","no","right","s","763.834056113","719.781107906","2","red","1"
"100","81","20","702.846943026","1","1","6","357","3","left","in","Female","Right-handed","0","3","no","left","s","931.493111435","359.572889094","2","green","2"
"100","82","20","704.772398321","1","1","6","358","0","left","in","Female","Right-handed","0","3","no","left","d","735.139666704","736.019699391","2","green","0"
"100","83","20","688.521524419","1","1","6","359","2","left","in","Female","Right-handed","0","3","no","left","s","464.684519185","359.828816967","2","green","2"
"100","84","20","689.777911254","1","1","6","360","3","left","in","Female","Right-handed","0","3","no","left","s","1049.45244905","375.333299551","2","red","1"
"100","85","20","687.635187966","1","1","6","361","0","left","out","Female","Right-handed","0","3","no","left","s","677.977951717","615.868939272","2","red","2"
"100","85","20","682.533935184","1","1","6","362","1","right","out","Female","Right-handed","0","3","no","right","s","705.429583595","455.58817549","2","green","0"
"100","86","20","678.837874328","1","1","6","363","1","left","in","Female","Right-handed","0","3","no","left","s","707.194459643","495.246733069","2","red","0"
"100","86","20","674.856500375","1","1","6","364","0","right","out","Female","Right-handed","0","3","no","right","d","558.763990241","615.768556534","2","green","1"
"100","87","20","663.736317908","1","1","6","365","0","right","in","Female","Right-handed","0","3","no","right","s","448.453624776","367.49061758","2","red","0"
"100","88","20","665.868573661","1","1","6","366","3","left","in","Female","Right-handed","0","3","no","left","s","715.015012513","719.070410952","2","green","2"
"96","88","20","670.323101909","0","1","6","367","1","right","in","Female","Right-handed","0","3","no","left","s","1176.66207194","386.710544291","2","green","2"
"96","88","20","669.374719957","1","1","6","368","1","right","out","Female","Right-handed","0","3","no","right","d","602.174232361","687.259346018","2","red","0"
"96","89","20","663.998137903","1","1","6","369","3","right","in","Female","Right-handed","0","3","no","right","s","453.828110116","583.832734778","2","red","3"
"96","89","20","662.170711832","1","1","6","370","3","left","in","Female","Right-handed","0","3","no","left","s","822.570144439","399.435419265","2","green","0"
"96","90","20","663.952355937","1","1","6","371","3","left","in","Female","Right-handed","0","3","no","left","s","1088.11359349","343.126476476","2","red","2"
"96","90","20","672.60642003","1","1","6","372","3","right","out","Female","Right-handed","0","3","no","right","d","856.842671066","1007.61401459","2","green","2"
"96","87","20","686.671722151","1","0","6","373","0","right","in","Female","Right-handed","0","3","no","right","d","1606.22546155","639.166714238","2","red","2"
"96","87","20","681.447269111","1","1","6","374","1","right","out","Female","Right-handed","0","3","no","right","d","436.741877817","591.787665813","2","red","1"
"97","88","20","684.30246977","1","1","6","375","0","left","out","Female","Right-handed","0","3","no","left","s","541.574168088","1015.47401498","2","green","1"
"97","85","20","686.608141072","1","0","6","376","3","left","out","Female","Right-handed","0","3","no","left","s","786.909577928","743.092352761","2","green","0"
"97","86","20","686.011189842","1","1","6","377","1","left","in","Female","Right-handed","0","3","no","left","s","962.622984887","367.61280871","2","green","3"
"97","86","20","689.557383465","1","1","6","378","2","right","in","Female","Right-handed","0","3","no","right","s","1035.15672856","599.283979234","2","green","0"
"97","86","20","686.947213433","1","1","6","379","0","left","out","Female","Right-handed","0","3","no","left","d","580.766410974","599.975433492","2","red","1"
"97","87","20","686.547785612","1","1","6","380","1","right","out","Female","Right-handed","0","3","no","right","d","751.199621817","591.539435023","2","red","2"
"97","87","20","686.809696299","1","1","6","381","3","right","out","Female","Right-handed","0","3","no","right","d","779.057595319","614.990830854","2","green","1"
"97","87","20","688.559072883","1","1","6","382","2","left","in","Female","Right-handed","0","3","no","left","d","725.617097265","791.45117518","2","red","3"
"97","88","20","682.303190809","1","1","6","383","2","right","in","Female","Right-handed","0","3","no","right","s","516.31460014","335.309451435","2","green","2"
"97","88","20","682.490237426","1","1","6","384","2","right","out","Female","Right-handed","0","3","no","right","d","677.903546621","702.788844111","2","red","1"
"97","88","20","686.727030328","1","1","6","385","0","left","in","Female","Right-handed","0","3","no","left","d","1050.317729","687.500521155","2","red","3"
"97","88","20","681.392240504","1","1","6","386","0","right","in","Female","Right-handed","0","3","no","right","s","526.217212846","367.105763638","2","red","0"
"97","86","20","681.346779786","1","0","6","387","3","right","out","Female","Right-handed","0","3","no","right","d","766.860611672","591.741483342","2","green","0"
"97","85","20","685.930330709","1","0","6","388","0","left","out","Female","Right-handed","0","3","no","left","d","1026.22587206","767.321474271","2","green","2"
"97","85","20","691.917889433","1","1","6","389","1","right","in","Female","Right-handed","0","3","no","right","d","1355.87700838","590.789290541","2","green","0"
"97","85","20","699.477113737","1","1","6","390","3","left","in","Female","Right-handed","0","3","no","left","s","1709.41955687","415.220203806","2","red","1"
"98","86","20","698.767261501","1","1","6","391","2","left","in","Female","Right-handed","0","3","no","left","d","705.034466879","622.934536983","2","green","1"
"98","86","20","698.007920521","1","1","6","392","1","left","out","Female","Right-handed","0","3","no","left","d","600.483440696","719.598302283","2","red","0"
"98","86","20","696.618568394","1","1","6","393","1","left","in","Female","Right-handed","0","3","no","left","d","596.311303223","655.211916615","2","red","2"
"98","84","20","693.22668494","1","0","6","394","0","right","out","Female","Right-handed","0","3","no","right","s","578.836047731","454.861442959","2","red","0"
"98","85","20","694.693717551","1","1","6","395","3","right","in","Female","Right-handed","0","3","no","right","d","825.493751574","719.399140365","2","green","0"
"98","85","20","693.854413135","1","1","6","396","1","left","out","Female","Right-handed","0","3","no","left","d","585.998500352","711.065448904","2","red","1"
"98","83","20","697.635638337","1","0","6","397","2","left","out","Female","Right-handed","0","3","no","left","s","1123.66255236","687.543496515","2","green","0"
"98","84","20","698.278060486","1","1","6","398","1","right","out","Female","Right-handed","0","3","no","right","s","869.250362244","599.257039463","2","green","3"
"98","84","20","698.872858456","1","1","6","399","0","left","out","Female","Right-handed","0","3","no","left","s","1050.74363403","414.809051508","2","red","3"
"98","84","20","705.278642573","1","1","6","400","0","left","out","Female","Right-handed","0","3","no","left","d","506.35682503","1647.2714176","2","green","0"
"98","85","20","706.263904185","1","1","6","401","2","left","in","Female","Right-handed","0","3","no","left","d","905.909304034","622.879374587","2","red","1"
"98","85","20","709.578982087","1","1","6","402","3","left","out","Female","Right-handed","0","3","no","left","d","825.519408507","991.447903925","2","green","0"
"98","85","20","706.91131525","1","1","6","403","1","left","out","Female","Right-handed","0","3","no","left","d","433.181337405","655.185938977","2","red","1"
"98","85","20","706.647116901","1","1","6","404","2","right","in","Female","Right-handed","0","3","no","right","d","693.73740004","686.796238439","2","green","0"
"98","85","20","709.189894774","1","1","6","405","0","left","out","Female","Right-handed","0","3","no","left","d","1075.39513275","663.374668784","2","red","2"
"100","100","20","699.125034556","1","1","7","406","2","right","out","Female","Right-handed","0","3","no","right","s","806.638153266","591.611915846","2","red","1"
"100","100","20","609.410528834","1","1","7","407","1","left","in","Female","Right-handed","0","3","no","left","s","648.191859953","391.20018627","2","red","0"
"100","100","20","614.534618574","1","1","7","408","1","right","out","Female","Right-handed","0","3","no","right","s","873.820823548","375.744772562","2","green","2"
"100","100","20","668.377529533","1","1","7","409","1","right","in","Female","Right-handed","0","3","no","right","d","956.478150238","703.334374579","2","red","2"
"100","100","20","651.319888674","1","1","7","410","3","right","out","Female","Right-handed","0","3","no","right","d","478.107583352","688.071067128","2","red","3"
"100","100","20","662.060846905","1","1","7","411","1","left","out","Female","Right-handed","0","3","no","left","d","535.720539588","895.810736525","2","red","1"
"100","100","20","686.451129825","1","1","7","412","2","left","in","Female","Right-handed","0","3","no","left","d","1026.2380591","639.347595592","2","green","0"
"100","87","20","690.580615516","1","0","7","413","1","left","out","Female","Right-handed","0","3","no","left","s","510.968337425","928.005693273","2","red","1"
"100","88","20","689.183277212","1","1","7","414","2","left","in","Female","Right-handed","0","3","no","left","s","916.504974557","439.504167003","2","green","0"
"100","90","20","673.374681613","1","1","7","415","0","left","in","Female","Right-handed","0","3","no","left","s","511.193156272","551.001486179","2","green","0"
"100","90","20","654.224809982","1","1","7","416","0","left","out","Female","Right-handed","0","3","no","left","s","597.788500949","327.663686399","2","red","1"
"100","91","20","648.698103247","1","1","7","417","0","right","out","Female","Right-handed","0","3","no","right","d","552.414541577","623.394116737","2","green","0"
"100","92","20","646.876350226","1","1","7","418","3","right","in","Female","Right-handed","0","3","no","right","d","530.994853863","719.035774098","2","red","3"
"100","92","20","635.823604852","1","1","7","419","2","left","in","Female","Right-handed","0","3","no","left","s","616.732936378","367.542893578","2","red","2"
"100","93","20","639.840850065","1","1","7","420","2","left","out","Female","Right-handed","0","3","no","left","s","1025.05270895","367.111857158","2","green","0"
"100","93","20","639.183501487","1","1","7","421","1","right","out","Female","Right-handed","0","3","no","right","s","810.777898863","447.868646781","2","red","3"
"100","94","20","645.728879602","1","1","7","422","2","left","in","Female","Right-handed","0","3","no","left","d","701.420688336","799.489170531","2","red","1"
"100","94","20","660.85829414","1","1","7","423","0","right","out","Female","Right-handed","0","3","no","right","d","1125.0903605","711.026322085","2","green","2"
"100","94","20","647.524965458","1","1","7","424","0","right","in","Female","Right-handed","0","3","no","right","s","431.466813083","383.583285278","2","green","0"
"100","95","20","659.456767432","1","1","7","425","3","right","in","Female","Right-handed","0","3","no","right","d","965.204713437","807.117296426","2","red","1"
"100","95","20","651.475664417","1","1","7","426","1","left","out","Female","Right-handed","0","3","no","left","s","599.895255582","383.811952666","2","red","1"
"100","95","20","657.749408826","1","1","7","427","1","right","in","Female","Right-handed","0","3","no","right","s","1179.50774615","399.48833668","2","green","0"
"100","95","20","659.680691423","1","1","7","428","3","right","out","Female","Right-handed","0","3","no","right","d","749.119165536","655.218651562","2","green","0"
"100","95","20","657.913704895","1","1","7","429","2","right","out","Female","Right-handed","0","3","no","right","d","498.766222394","735.779807099","2","green","3"
"100","96","20","657.607504138","1","1","7","430","2","left","in","Female","Right-handed","0","3","no","left","d","701.193303797","599.324068185","2","red","3"
"100","96","20","661.041405399","1","1","7","431","1","right","in","Female","Right-handed","0","3","no","right","d","782.904851916","710.87302193","2","red","3"
"100","96","20","672.70488252","1","1","7","432","0","left","out","Female","Right-handed","0","3","no","left","d","1424.42334447","527.487230865","2","red","2"
"100","92","20","670.86108596","1","0","7","433","0","right","out","Female","Right-handed","0","3","no","right","s","667.001596503","575.155561171","2","green","3"
"100","93","20","667.457565484","1","1","7","434","3","left","in","Female","Right-handed","0","3","no","left","s","768.627411992","375.690572299","2","red","0"
"100","93","20","671.049639958","1","1","7","435","3","right","in","Female","Right-handed","0","3","no","right","d","919.296448505","631.143150913","2","green","2"
"100","93","20","694.171369419","1","1","7","436","0","right","out","Female","Right-handed","0","3","no","right","d","752.922484644","2022.72402188","2","red","1"
"100","90","20","696.647938177","1","0","7","437","0","left","out","Female","Right-handed","0","3","no","left","d","555.43853145","991.404607856","2","green","0"
"100","90","20","697.068077689","1","1","7","438","1","left","in","Female","Right-handed","0","3","no","left","s","998.063222523","422.961861616","2","red","2"
"100","88","20","690.466504671","1","0","7","439","0","right","in","Female","Right-handed","0","3","no","right","s","585.693503602","359.535686544","2","red","3"
"100","88","20","693.061202498","1","1","7","440","2","right","in","Female","Right-handed","0","3","no","right","s","1131.29869605","431.263161205","2","green","1"
"100","88","20","690.554292664","1","1","7","441","1","left","out","Female","Right-handed","0","3","no","left","d","598.767633528","606.857263447","2","red","0"
"100","89","20","684.738136621","1","1","7","442","3","right","in","Female","Right-handed","0","3","no","right","s","575.328745446","375.384292696","2","green","2"
"100","89","20","679.797825588","1","1","7","443","2","right","out","Female","Right-handed","0","3","no","right","s","667.010897137","327.001737616","2","green","1"
"100","89","20","683.613590883","1","1","7","444","2","left","in","Female","Right-handed","0","3","no","left","s","1186.53133064","470.694013533","2","green","0"
"100","90","20","682.828735023","1","1","7","445","1","right","in","Female","Right-handed","0","3","no","right","d","713.190804814","591.247908156","2","green","0"
"100","90","20","687.463932654","1","1","7","446","3","left","in","Female","Right-handed","0","3","no","left","s","1202.86453205","542.879143675","2","red","0"
"100","90","20","687.523177141","1","1","7","447","3","right","in","Female","Right-handed","0","3","no","right","s","836.496405143","543.407997138","2","red","2"
"100","90","20","691.570109223","1","1","7","448","3","right","out","Female","Right-handed","0","3","no","right","d","892.136664202","830.945849124","2","green","0"
"100","90","20","690.71932147","1","1","7","449","0","left","out","Female","Right-handed","0","3","no","left","s","757.638549025","550.632347102","2","green","2"
"100","91","20","694.098264758","1","1","7","450","3","right","out","Female","Right-handed","0","3","no","right","d","1070.26823678","615.275302065","2","red","0"
"100","91","20","696.714416118","1","1","7","451","3","left","out","Female","Right-handed","0","3","no","left","d","869.975491219","758.906963485","2","green","1"
"100","91","20","697.22830509","1","1","7","452","1","right","in","Female","Right-handed","0","3","no","right","d","666.325215694","775.409179921","2","green","0"
"100","91","20","696.78909806","1","1","7","453","0","left","out","Female","Right-handed","0","3","no","left","d","545.098147377","807.194587928","2","green","0"
"100","91","20","703.529357425","1","1","7","454","3","right","out","Female","Right-handed","0","3","no","right","s","1615.56907391","438.554539898","2","red","1"
"100","90","20","703.403529624","1","0","7","455","2","left","in","Female","Right-handed","0","3","no","left","s","787.258832879","607.217101886","2","red","0"
"100","90","20","701.989743944","1","1","7","456","2","left","out","Female","Right-handed","0","3","no","left","d","527.90992878","734.690991146","2","green","2"
"100","90","20","703.238515724","1","1","7","457","2","right","in","Female","Right-handed","0","3","no","right","s","1142.39499741","391.456755566","2","green","0"
"100","90","20","699.187537016","1","1","7","458","2","right","out","Female","Right-handed","0","3","no","right","s","537.962313822","439.110974559","2","red","2"
"100","90","20","699.639666834","1","1","7","459","3","left","out","Female","Right-handed","0","3","no","left","s","984.643365471","462.561728968","2","red","2"
"100","90","20","702.759574802","1","1","7","460","0","left","in","Female","Right-handed","0","3","no","left","d","935.27782927","807.191380809","2","green","2"
"100","91","20","702.519039733","1","1","7","461","0","right","in","Female","Right-handed","0","3","no","right","d","499.807573029","878.771648837","2","red","0"
"100","91","20","701.912727481","1","1","7","462","1","left","out","Female","Right-handed","0","3","no","left","d","753.430491848","582.487990952","2","green","2"
"100","89","20","708.215597148","1","0","7","463","3","left","in","Female","Right-handed","0","3","no","left","s","863.985560278","1270.97277607","2","green","0"
"100","89","20","706.171501006","1","1","7","464","0","left","in","Female","Right-handed","0","3","no","left","s","736.578379034","438.649470536","2","green","1"
"100","90","20","703.631265342","1","1","7","465","0","left","out","Female","Right-handed","0","3","no","left","s","684.260692364","423.254029902","2","green","1"
"100","90","20","703.093496491","1","1","7","466","3","right","out","Female","Right-handed","0","3","no","right","s","862.816245714","478.838485138","2","red","1"
"100","90","20","701.954518002","1","1","7","467","1","left","out","Female","Right-handed","0","3","no","left","s","826.494692541","438.458967838","2","red","0"
"100","90","20","698.09174244","1","1","7","468","1","right","in","Female","Right-handed","0","3","no","right","s","534.086193169","383.113122043","2","red","1"
"100","90","20","694.233693758","1","1","7","469","2","left","in","Female","Right-handed","0","3","no","left","s","479.697030147","422.65622344","2","green","2"
"100","0","20","721.109816148","1","0","8","470","0","left","out","Female","Right-handed","0","3","no","left","s","987.083980904","455.135651391","2","green","2"
"100","50","20","731.391028926","1","1","8","471","2","right","in","Female","Right-handed","0","3","no","right","s","1003.65611248","479.688370931","2","red","0"
"100","66","20","618.848991651","1","1","8","472","0","right","out","Female","Right-handed","0","3","no","right","s","428.292730176","359.237104028","2","green","0"
"100","75","20","608.758562198","1","1","8","473","2","right","in","Female","Right-handed","0","3","no","right","d","453.974033902","703.000513779","2","red","2"
"100","80","20","597.510219476","1","1","8","474","3","left","in","Female","Right-handed","0","3","no","left","d","505.581023623","599.452673549","2","red","3"
"100","83","20","599.538303551","1","1","8","475","2","left","out","Female","Right-handed","0","3","no","left","s","828.117172634","391.240275221","2","red","0"
"100","85","20","582.298015134","1","1","8","476","2","left","in","Female","Right-handed","0","3","no","left","s","518.862333254","438.850236013","2","green","2"
"100","87","20","612.437365021","1","1","8","477","0","right","in","Female","Right-handed","0","3","no","right","d","655.381573066","991.444055387","2","green","1"
"100","88","20","600.161321509","1","1","8","478","1","left","in","Female","Right-handed","0","3","no","left","s","532.931310627","470.974636202","2","red","0"
"100","90","20","606.312550793","1","1","8","479","2","left","out","Female","Right-handed","0","3","no","left","d","595.665069308","727.682159392","2","red","0"
"100","90","20","639.35384947","1","1","8","480","0","left","out","Female","Right-handed","0","3","no","left","d","500.266511357","1439.26716112","2","green","0"
"100","91","20","649.692990784","1","1","8","481","1","left","in","Female","Right-handed","0","3","no","left","s","735.895583996","790.951506479","2","red","3"
"100","92","20","640.016612369","1","1","8","482","2","left","out","Female","Right-handed","0","3","no","left","s","616.356100221","431.444042555","2","green","1"
"100","92","20","643.763084462","1","1","8","483","3","right","in","Female","Right-handed","0","3","no","right","d","658.058232253","726.876211087","2","red","0"
"100","93","20","627.560652448","1","1","8","484","0","left","in","Female","Right-handed","0","3","no","left","s","465.683535884","335.769672612","2","red","1"
"100","93","20","652.729839186","1","1","8","485","0","right","out","Female","Right-handed","0","3","no","right","d","629.239406735","1431.29587379","2","red","1"
"100","94","20","650.000333918","1","1","8","486","1","right","in","Female","Right-handed","0","3","no","right","s","805.871973203","406.784526051","2","green","2"
"100","94","20","644.336656833","1","1","8","487","2","right","out","Female","Right-handed","0","3","no","right","s","520.565632673","575.542660095","2","red","2"
"100","94","20","649.405128895","1","1","8","488","3","left","out","Female","Right-handed","0","3","no","left","d","554.156326391","927.118925643","2","green","3"
"100","95","20","650.779441488","1","1","8","489","0","right","out","Female","Right-handed","0","3","no","right","s","506.875095012","846.907666484","2","green","3"
"100","95","20","637.880416289","1","1","8","490","0","left","out","Female","Right-handed","0","3","no","left","s","448.322133016","311.477691623","2","red","0"
"100","95","20","632.795938252","1","1","8","491","0","left","in","Female","Right-handed","0","3","no","left","d","508.999809496","543.043989448","2","green","0"
"100","95","20","633.241950508","1","1","8","492","0","right","out","Female","Right-handed","0","3","no","right","d","735.530614169","550.577826125","2","green","3"
"100","95","20","649.759398134","1","1","8","493","3","left","in","Female","Right-handed","0","3","no","left","d","1324.15991195","735.161475095","2","red","0"
"100","96","20","652.882812616","1","1","8","494","0","right","out","Female","Right-handed","0","3","no","right","d","488.863930397","966.825589967","2","green","0"
"100","96","20","648.344432341","1","1","8","495","1","left","out","Female","Right-handed","0","3","no","left","s","622.398948577","447.370902348","2","green","0"
"100","96","20","650.611195577","1","1","8","496","3","right","in","Female","Right-handed","0","3","no","right","s","1084.01201257","335.082066897","2","red","1"
"100","92","20","667.288587587","1","0","8","497","2","left","out","Female","Right-handed","0","3","no","left","s","588.581191034","1646.57515268","2","red","2"
"100","93","20","670.383920785","1","1","8","498","2","left","in","Female","Right-handed","0","3","no","left","s","1131.02993971","383.07656092","2","green","0"
"100","93","20","672.245258226","1","1","8","499","1","right","out","Female","Right-handed","0","3","no","right","d","693.699235358","758.748852652","2","green","2"
"100","93","20","670.698408317","1","1","8","500","2","right","in","Female","Right-handed","0","3","no","right","s","809.388255409","439.197566699","2","green","0"
"100","93","20","662.614988145","1","1","8","501","1","left","out","Female","Right-handed","0","3","no","left","s","465.016776423","359.041149226","2","red","1"
"100","93","20","659.129268145","1","1","8","502","1","right","in","Female","Right-handed","0","3","no","right","d","488.602871137","606.569585121","2","red","1"
"100","94","20","661.440452285","1","1","8","503","3","right","out","Female","Right-handed","0","3","no","right","d","796.284299304","679.134758532","2","red","2"
"100","94","20","657.995427752","1","1","8","504","3","right","out","Female","Right-handed","0","3","no","right","s","538.810275342","542.918911917","2","green","2"
"100","94","20","653.550403252","1","1","8","505","3","right","out","Female","Right-handed","0","3","no","right","s","661.457454721","334.491636801","2","red","0"
"100","94","20","654.268517382","1","1","8","506","1","right","out","Female","Right-handed","0","3","no","right","d","441.112535784","919.128716327","2","red","0"
"100","94","20","654.64844318","1","1","8","507","2","left","in","Female","Right-handed","0","3","no","left","s","1018.65611568","318.755279713","2","green","3"
"100","94","20","652.165859321","1","1","8","508","1","left","out","Female","Right-handed","0","3","no","left","d","469.318802105","646.336543228","2","red","1"
"100","95","20","657.73545204","1","1","8","509","3","right","in","Female","Right-handed","0","3","no","right","d","550.8972549","1199.00188129","2","green","0"
"100","95","20","652.166353024","1","1","8","510","2","right","out","Female","Right-handed","0","3","no","right","s","516.39381591","342.410968849","2","green","1"
"100","95","20","655.938614788","1","1","8","511","3","left","in","Female","Right-handed","0","3","no","left","s","1230.09423149","391.108462747","2","green","2"
"100","95","20","655.561891309","1","1","8","512","1","right","in","Female","Right-handed","0","3","no","right","d","720.727848609","558.751161778","2","red","0"
"100","95","20","656.624476373","1","1","8","513","0","left","in","Female","Right-handed","0","3","no","left","s","1030.34829924","374.282968991","2","red","2"
"100","95","20","657.020480715","1","1","8","514","0","left","out","Female","Right-handed","0","3","no","left","d","405.978577746","942.91076584","2","green","0"
"100","95","20","662.454672641","1","1","8","515","3","left","out","Female","Right-handed","0","3","no","left","d","1039.4603578","774.52626083","2","green","1"
"100","93","20","663.04398781","1","0","8","516","3","left","out","Female","Right-handed","0","3","no","left","s","949.208259222","431.096711873","2","red","2"
"100","93","20","666.24593645","1","1","8","517","3","right","out","Female","Right-handed","0","3","no","right","d","810.781747405","822.693297705","2","red","1"
"100","93","20","669.01181694","1","1","8","518","1","left","in","Female","Right-handed","0","3","no","left","d","693.255049762","910.293111181","2","green","0"
"100","92","20","675.919249304","1","0","8","519","1","right","in","Female","Right-handed","0","3","no","right","d","1165.81271853","862.954151708","2","green","0"
"100","92","20","674.94914174","1","1","8","520","2","right","in","Female","Right-handed","0","3","no","right","s","822.531017624","430.356509452","2","green","3"
"100","92","20","672.902261678","1","1","8","521","3","right","in","Female","Right-handed","0","3","no","right","s","690.024842322","446.997914736","2","red","0"
"100","90","20","675.804325683","1","0","8","522","1","left","out","Female","Right-handed","0","3","no","left","d","958.698436789","694.724871122","2","green","1"
"100","90","20","672.878390477","1","1","8","523","2","right","out","Female","Right-handed","0","3","no","right","s","605.294435718","430.313213383","2","green","1"
"100","90","20","674.777086473","1","1","8","524","1","left","out","Female","Right-handed","0","3","no","left","d","955.828709204","598.784631242","2","red","3"
"100","91","20","682.941173082","1","1","8","525","0","right","in","Female","Right-handed","0","3","no","right","d","1049.51081856","1214.42105459","2","green","2"
"100","91","20","685.179058531","1","1","8","526","1","right","in","Female","Right-handed","0","3","no","right","d","1005.92386434","615.077422993","2","green","2"
"100","89","20","684.92699564","1","0","8","527","3","left","in","Female","Right-handed","0","3","no","left","s","950.504575591","390.614246138","2","green","1"
"100","89","20","681.89645522","1","1","8","528","2","left","in","Female","Right-handed","0","3","no","left","s","686.277327033","325.972894738","2","red","1"
"100","90","20","684.403336876","1","1","8","529","0","left","in","Female","Right-handed","0","3","no","left","d","817.761715112","846.856994049","2","red","2"
"100","90","20","683.986594338","1","1","8","530","3","left","in","Female","Right-handed","0","3","no","left","s","823.416502408","494.547581741","2","green","0"
"100","90","20","681.002303682","1","1","8","531","1","right","out","Female","Right-handed","0","3","no","right","s","647.947477701","349.973669574","2","red","2"
"100","90","20","680.115316496","1","1","8","532","2","right","in","Female","Right-handed","0","3","no","right","s","891.55874186","358.685480038","2","red","0"
"100","90","20","679.211315905","1","1","8","533","0","right","out","Female","Right-handed","0","3","no","right","d","598.450770445","646.067786892","2","red","1"
dis_reply=Yes
dis_loc=2
tar_loc=1
