"acc_1","acc_2","age","avg_rt","correct_1","correct_2","count_block_loop","count_trial_sequence","cue_position","detection","dis_shape","gender","hand","high_loc","low_loc","practice","response_keyboard_response_1","response_keyboard_response_2","response_time_keyboard_response_1","response_time_keyboard_response_2","subject_nr","tar_color","tar_position"
"100","100","20","1090.42845927","1","1","0","0","0","right","out","Female","Right-handed","3","0","yes","right","s","1565.1813181","615.675600438","9","red","1"
"100","100","20","832.626322299","1","1","0","1","1","left","in","Female","Right-handed","3","0","yes","left","s","811.797478942","337.85089171","9","red","3"
"100","100","20","893.549912724","1","1","0","2","1","right","in","Female","Right-handed","3","0","yes","right","s","1117.37217035","913.422016796","9","green","2"
"100","75","20","839.896156451","1","0","0","3","0","left","out","Female","Right-handed","3","0","yes","left","s","539.970096752","817.899678517","9","red","2"
"100","80","20","800.445117086","1","1","0","4","3","left","out","Female","Right-handed","3","0","yes","left","s","755.653843291","529.628075956","9","green","0"
"100","83","20","738.81372988","1","1","0","5","3","left","in","Female","Right-handed","3","0","yes","left","s","500.119625818","361.193961879","9","green","0"
"100","85","20","685.04460105","1","1","0","6","2","right","in","Female","Right-handed","3","0","yes","right","s","370.849978321","354.009677825","9","red","0"
"100","87","20","659.952848025","1","1","0","7","1","left","out","Female","Right-handed","3","0","yes","left","d","559.343706464","409.27744723","9","red","1"
"100","88","20","665.851807095","1","1","0","8","2","left","in","Female","Right-handed","3","0","yes","left","d","689.048561026","737.038398285","9","green","3"
"100","90","20","660.634318306","1","1","0","9","2","right","out","Female","Right-handed","3","0","yes","right","d","457.613654149","769.740184269","9","green","3"
"100","81","20","644.112418414","1","0","0","10","0","left","in","Female","Right-handed","3","0","yes","left","s","436.365158292","521.421680687","9","red","2"
"100","75","20","638.350666248","1","0","0","11","3","left","out","Female","Right-handed","3","0","yes","left","s","539.941874038","610.000910823","9","red","3"
"100","69","20","635.740382913","1","0","0","12","2","right","out","Female","Right-handed","3","0","yes","right","s","863.419386951","345.414578827","9","red","1"
"100","71","20","631.97601555","1","1","0","13","2","left","out","Female","Right-handed","3","0","yes","left","s","533.024743621","633.053736046","9","red","0"
"100","73","20","628.354536716","1","1","0","14","2","right","in","Female","Right-handed","3","0","yes","right","s","713.689555287","441.618110772","9","red","2"
"100","75","20","635.290726818","1","1","0","15","2","left","out","Female","Right-handed","3","0","yes","left","d","821.337076692","657.330080025","9","green","1"
"100","76","20","625.243892537","1","1","0","16","0","left","out","Female","Right-handed","3","0","yes","left","s","486.894398304","442.094689768","9","red","3"
"100","77","20","628.764979419","1","1","0","17","1","right","out","Female","Right-handed","3","0","yes","right","d","695.601361875","681.645550945","9","green","1"
"100","78","20","619.923692671","1","1","0","18","0","left","out","Female","Right-handed","3","0","yes","left","d","512.236149703","409.324912704","9","red","0"
"100","80","20","615.845177252","1","1","0","19","0","right","in","Female","Right-handed","3","0","yes","right","s","562.812855191","513.893913387","9","red","3"
"100","80","20","619.754904979","1","1","0","20","3","left","in","Female","Right-handed","3","0","yes","left","s","938.506235938","457.392683134","9","green","1"
"100","81","20","610.863117626","1","1","0","21","1","right","in","Female","Right-handed","3","0","yes","right","s","575.164461447","273.106704948","9","green","0"
"100","0","20","1737.12114215","1","0","1","22","3","left","in","Female","Right-handed","3","0","no","left","None","474.198988086","3000.04329621","9","red","3"
"100","0","20","1180.31138632","1","0","1","23","3","right","in","Female","Right-handed","3","0","no","right","d","542.0858381","704.917422907","9","green","2"
"100","33","20","917.467860316","1","1","1","24","0","right","in","Female","Right-handed","3","0","no","right","s","429.778682615","353.782933982","9","red","3"
"100","50","20","795.423695084","1","1","1","25","1","right","out","Female","Right-handed","3","0","no","right","s","553.257863234","305.324535542","9","green","1"
"100","60","20","768.231423682","1","1","1","26","3","left","out","Female","Right-handed","3","0","no","left","d","636.957771125","681.96690502","9","red","3"
"83","66","20","818.288596057","0","1","1","27","0","right","out","Female","Right-handed","3","0","no","left","s","676.611645205","1460.53727066","9","green","1"
"85","71","20","773.982044307","1","1","1","28","1","right","in","Female","Right-handed","3","0","no","right","d","607.038488084","409.246979529","9","green","1"
"87","62","20","747.900053752","1","0","1","29","0","right","out","Female","Right-handed","3","0","no","right","d","512.868915761","617.783323969","9","red","1"
"88","55","20","760.738350363","1","0","1","30","0","right","in","Female","Right-handed","3","0","no","right","s","861.522371631","865.36707487","9","red","2"
"90","50","20","748.803196607","1","0","1","31","1","right","in","Female","Right-handed","3","0","no","right","d","496.927572822","785.846052797","9","green","3"
"90","54","20","747.099795514","1","1","1","32","3","right","in","Female","Right-handed","3","0","no","right","s","530.467380959","929.664188199","9","green","1"
"91","58","20","723.476930284","1","1","1","33","1","right","in","Female","Right-handed","3","0","no","right","s","534.093999595","393.15682592","9","green","0"
"92","61","20","714.386414533","1","1","1","34","3","left","out","Female","Right-handed","3","0","no","left","d","800.635395901","409.965055151","9","green","2"
"92","64","20","693.673878853","1","1","1","35","2","left","out","Female","Right-handed","3","0","no","left","s","559.391492649","289.430337363","9","red","1"
"93","66","20","680.326096346","1","1","1","36","2","right","out","Female","Right-handed","3","0","no","right","s","505.860382238","481.053900252","9","red","2"
"93","62","20","680.909645706","1","0","1","37","1","right","out","Female","Right-handed","3","0","no","right","d","713.598472894","665.727299318","9","green","3"
"94","64","20","671.340119689","1","1","1","38","2","left","out","Female","Right-handed","3","0","no","left","s","643.139828149","393.315578682","9","red","2"
"94","66","20","666.509570921","1","1","1","39","2","left","in","Female","Right-handed","3","0","no","left","s","519.886429236","648.894054502","9","green","2"
"89","68","20","669.716112253","0","1","1","40","3","left","in","Female","Right-handed","3","0","no","right","d","962.420495334","492.447217111","9","red","0"
"90","70","20","661.680515039","1","1","1","41","0","right","out","Female","Right-handed","3","0","no","right","d","544.940180676","473.068155286","9","green","3"
"90","71","20","662.562697796","1","1","1","42","1","left","out","Female","Right-handed","3","0","no","left","d","566.636712105","793.775993761","9","green","0"
"90","72","20","661.366219558","1","1","1","43","3","right","in","Female","Right-handed","3","0","no","right","d","655.114276331","617.366076813","9","red","2"
"91","73","20","648.867344715","1","1","1","44","0","left","in","Female","Right-handed","3","0","no","left","s","466.89315394","280.891042368","9","red","3"
"91","75","20","637.748902415","1","1","1","45","1","left","in","Female","Right-handed","3","0","no","left","d","426.551351226","337.498107796","9","green","2"
"92","72","20","633.551411521","1","0","1","46","3","right","out","Female","Right-handed","3","0","no","right","s","424.353186729","641.270073404","9","green","3"
"92","69","20","625.887535251","1","0","1","47","2","left","out","Female","Right-handed","3","0","no","left","s","403.802240882","464.779016156","9","green","3"
"92","66","20","621.446052474","1","0","1","48","1","left","in","Female","Right-handed","3","0","no","left","d","418.410060627","593.524939899","9","green","3"
"92","67","20","612.325831269","1","1","1","49","2","right","in","Female","Right-handed","3","0","no","right","s","323.086564193","409.073153272","9","green","3"
"93","68","20","607.945126154","1","1","1","50","2","right","out","Female","Right-handed","3","0","no","right","d","432.68113209","537.889633797","9","green","3"
"93","66","20","602.492151092","1","0","1","51","2","left","out","Female","Right-handed","3","0","no","left","s","407.299612321","481.41213628","9","red","3"
"93","67","20","602.327017529","1","1","1","52","2","left","in","Female","Right-handed","3","0","no","left","d","801.742816677","393.003204561","9","green","3"
"93","68","20","602.210670286","1","1","1","53","0","left","out","Female","Right-handed","3","0","no","left","d","715.540067271","481.667744261","9","green","0"
"93","69","20","601.104934769","1","1","1","54","2","right","out","Female","Right-handed","3","0","no","right","d","410.221304555","721.221491853","9","red","3"
"94","70","20","597.772807235","1","1","1","55","0","right","in","Female","Right-handed","3","0","no","right","s","334.681609311","640.943587929","9","green","3"
"94","68","20","598.491853349","1","0","1","56","0","right","out","Female","Right-handed","3","0","no","right","s","596.433482913","649.445359544","9","red","3"
"94","69","20","602.742760411","1","1","1","57","1","left","out","Female","Right-handed","3","0","no","left","s","981.971138428","521.077876729","9","red","3"
"94","70","20","603.618867792","1","1","1","58","0","right","in","Female","Right-handed","3","0","no","right","s","709.633823126","560.683643911","9","red","2"
"94","71","20","603.28172341","1","1","1","59","0","left","out","Female","Right-handed","3","0","no","left","d","476.290355273","705.324407259","9","red","2"
"94","71","20","606.093434252","1","1","1","60","3","left","in","Female","Right-handed","3","0","no","left","d","680.920419647","744.95647288","9","red","0"
"95","72","20","602.75479738","1","1","1","61","0","left","in","Female","Right-handed","3","0","no","left","d","343.59774167","601.498177069","9","red","3"
"95","73","20","602.761256905","1","1","1","62","2","right","in","Female","Right-handed","3","0","no","right","s","884.925415066","321.113860687","9","red","1"
"95","73","20","601.391444663","1","1","1","63","0","left","in","Female","Right-handed","3","0","no","left","d","673.75537835","416.702907196","9","red","1"
"95","72","20","597.043388871","1","0","1","64","0","right","out","Female","Right-handed","3","0","no","right","s","507.424497828","321.425593382","9","red","0"
"95","72","20","595.180396638","1","1","1","65","2","right","in","Female","Right-handed","3","0","no","right","d","597.064324695","433.079136488","9","green","1"
"95","73","20","594.546338417","1","1","1","66","2","right","out","Female","Right-handed","3","0","no","right","d","484.650371898","648.645181485","9","red","0"
"95","73","20","595.245469139","1","1","1","67","1","left","in","Female","Right-handed","3","0","no","left","d","788.211308585","465.201394714","9","green","2"
"95","74","20","594.437449269","1","1","1","68","1","right","out","Female","Right-handed","3","0","no","right","d","425.747645328","688.789425205","9","red","3"
"95","75","20","591.938501372","1","1","1","69","1","left","out","Female","Right-handed","3","0","no","left","s","524.47262012","424.503280248","9","green","3"
"95","75","20","593.819818816","1","1","1","70","1","right","out","Female","Right-handed","3","0","no","right","d","543.10281791","825.143294413","9","red","2"
"96","74","20","592.628355616","1","0","1","71","2","right","out","Female","Right-handed","3","0","no","right","d","611.606077633","456.887239998","9","green","2"
"96","72","20","590.798838361","1","0","1","72","3","right","in","Female","Right-handed","3","0","no","right","s","597.202231133","401.44372006","9","red","1"
"96","73","20","590.407316906","1","1","1","73","2","left","out","Female","Right-handed","3","0","no","left","s","587.948067641","552.931377757","9","green","1"
"96","73","20","589.626850107","1","1","1","74","0","right","in","Female","Right-handed","3","0","no","right","d","585.530535693","512.554617364","9","red","2"
"96","74","20","590.229483798","1","1","1","75","1","left","out","Female","Right-handed","3","0","no","left","s","627.107082106","617.231056785","9","green","1"
"96","74","20","590.221827026","1","1","1","76","2","left","in","Female","Right-handed","3","0","no","left","s","690.791954987","488.824767739","9","green","0"
"96","73","20","590.627263888","1","0","1","77","0","left","in","Female","Right-handed","3","0","no","left","s","761.340399274","464.512183231","9","green","1"
"96","73","20","593.185192672","1","1","1","78","3","left","out","Female","Right-handed","3","0","no","left","d","887.949093922","584.909315292","9","red","3"
"96","74","20","591.737329063","1","1","1","79","3","left","out","Female","Right-handed","3","0","no","left","s","497.614539314","520.803667412","9","red","2"
"96","74","20","590.509422907","1","1","1","80","3","left","out","Female","Right-handed","3","0","no","left","s","677.268143996","361.313587699","9","green","1"
"96","75","20","589.274112887","1","1","1","81","3","left","in","Female","Right-handed","3","0","no","left","d","551.854103967","480.927539467","9","green","1"
"96","75","20","589.081445114","1","1","1","82","1","right","out","Female","Right-handed","3","0","no","right","s","546.464207184","608.578550224","9","green","1"
"96","75","20","603.212264619","1","1","1","83","1","left","in","Female","Right-handed","3","0","no","left","s","617.215983291","2313.16852552","9","red","2"
"96","76","20","599.752670477","1","1","1","84","3","right","in","Female","Right-handed","3","0","no","right","s","417.601223327","352.914444129","9","red","3"
"96","76","20","597.839770297","1","1","1","85","3","left","in","Female","Right-handed","3","0","no","left","s","418.264136371","536.389981449","9","red","3"
"100","100","20","528.311710886","1","1","2","86","1","right","in","Female","Right-handed","3","0","no","right","d","671.330790723","385.292631048","9","green","3"
"100","100","20","592.850320841","1","1","2","87","0","left","out","Female","Right-handed","3","0","no","left","s","889.939115912","424.838745681","9","red","1"
"100","100","20","499.953175953","1","1","2","88","0","right","in","Female","Right-handed","3","0","no","right","s","362.721836938","265.595935416","9","red","3"
"100","100","20","511.807236624","1","1","2","89","3","left","out","Female","Right-handed","3","0","no","left","d","645.352104004","449.386733273","9","red","3"
"100","100","20","491.311766049","1","1","2","90","2","left","in","Female","Right-handed","3","0","no","left","d","457.792611807","360.86715569","9","red","1"
"100","100","20","470.018899597","1","1","2","91","0","left","in","Female","Right-handed","3","0","no","left","s","357.596848806","369.512285859","9","red","3"
"100","100","20","486.964038766","1","1","2","92","3","left","in","Female","Right-handed","3","0","no","left","s","776.187149943","401.082597618","9","green","2"
"100","87","20","484.314204909","1","0","2","93","3","left","in","Female","Right-handed","3","0","no","left","s","418.769579508","512.761156311","9","red","2"
"100","88","20","490.600375505","1","1","2","94","0","right","out","Female","Right-handed","3","0","no","right","d","424.387182271","657.392298279","9","red","3"
"100","90","20","496.136567143","1","1","2","95","3","right","out","Female","Right-handed","3","0","no","right","d","442.906734197","649.017849582","9","red","3"
"100","90","20","490.59661766","1","1","2","96","3","left","out","Female","Right-handed","3","0","no","left","d","476.698943186","393.695302459","9","green","3"
"100","91","20","497.981875566","1","1","2","97","3","left","in","Female","Right-handed","3","0","no","left","s","645.223818943","513.215606134","9","red","0"
"100","92","20","520.469558844","1","1","2","98","2","left","in","Female","Right-handed","3","0","no","left","d","1019.8652622","560.778254143","9","green","1"
"100","92","20","534.00271103","1","1","2","99","0","right","out","Female","Right-handed","3","0","no","right","s","858.388046912","561.479331995","9","green","2"
"100","93","20","539.971219247","1","1","2","100","3","left","in","Female","Right-handed","3","0","no","left","d","566.061674324","680.998994245","9","green","1"
"100","87","20","538.482861998","1","0","2","101","1","left","out","Female","Right-handed","3","0","no","left","d","511.740007236","520.574999293","9","red","3"
"100","82","20","533.944698424","1","0","2","102","3","right","in","Female","Right-handed","3","0","no","right","s","449.282822374","473.385340096","9","red","0"
"100","83","20","532.634676863","1","1","2","103","1","right","out","Female","Right-handed","3","0","no","right","s","667.855869171","352.872751484","9","green","1"
"100","84","20","525.577804349","1","1","2","104","0","left","in","Female","Right-handed","3","0","no","left","s","435.556962415","361.55123577","9","green","2"
"95","85","20","521.085501672","0","1","2","105","0","right","out","Female","Right-handed","3","0","no","left","s","563.251590094","308.211911524","9","red","3"
"95","85","20","525.265421788","1","1","2","106","1","left","out","Female","Right-handed","3","0","no","left","s","616.792963307","600.934684944","9","green","0"
"95","81","20","526.88330777","1","0","2","107","1","right","in","Female","Right-handed","3","0","no","right","d","616.328892103","505.388934644","9","green","2"
"95","82","20","529.801686078","1","1","2","108","0","right","out","Female","Right-handed","3","0","no","right","s","603.082818268","584.929199476","9","green","2"
"95","83","20","529.212031471","1","1","2","109","3","right","out","Female","Right-handed","3","0","no","right","s","566.612658657","464.687292339","9","red","1"
"96","80","20","530.754245594","1","0","2","110","1","left","in","Female","Right-handed","3","0","no","left","s","542.266720033","593.268049066","9","red","1"
"92","80","20","527.932283152","0","1","2","111","1","left","out","Female","Right-handed","3","0","no","right","s","447.011535392","467.754908828","9","red","0"
"92","81","20","530.655259179","1","1","2","112","2","left","in","Female","Right-handed","3","0","no","left","s","538.369740634","664.535531114","9","green","3"
"92","82","20","530.064686138","1","1","2","113","1","left","out","Female","Right-handed","3","0","no","left","d","531.106881981","497.131546066","9","red","2"
"93","82","20","525.950922958","1","1","2","114","2","left","in","Female","Right-handed","3","0","no","left","s","452.739463306","368.791644538","9","green","3"
"93","83","20","521.155339524","1","1","2","115","1","left","out","Female","Right-handed","3","0","no","left","s","339.594927094","424.571912756","9","green","3"
"93","83","20","517.636873124","1","1","2","116","2","right","in","Female","Right-handed","3","0","no","right","d","399.021698135","425.144064124","9","green","3"
"93","84","20","518.93413817","1","1","2","117","2","right","in","Female","Right-handed","3","0","no","right","d","589.709742224","528.588966972","9","red","2"
"93","84","20","517.157329808","1","1","2","118","2","right","in","Female","Right-handed","3","0","no","right","s","423.212091124","497.386833335","9","red","3"
"94","82","20","515.224375663","1","0","2","119","1","left","in","Female","Right-handed","3","0","no","left","s","437.919973214","464.953804549","9","green","2"
"94","82","20","525.072265723","1","1","2","120","0","right","out","Female","Right-handed","3","0","no","right","d","967.382561443","752.418494087","9","green","1"
"94","80","20","522.795662675","1","0","2","121","1","right","in","Female","Right-handed","3","0","no","right","d","405.023835363","481.205276621","9","green","3"
"94","78","20","525.615887037","1","0","2","122","0","right","out","Female","Right-handed","3","0","no","right","s","565.681950549","688.605977572","9","green","3"
"94","78","20","526.596375063","1","1","2","123","0","left","out","Female","Right-handed","3","0","no","left","s","685.357799861","440.391064176","9","green","1"
"94","76","20","527.385908038","1","0","2","124","0","right","out","Female","Right-handed","3","0","no","right","s","569.863402068","544.912920102","9","red","3"
"95","77","20","527.79121831","1","1","2","125","0","left","out","Female","Right-handed","3","0","no","left","d","566.733246613","520.463391293","9","green","2"
"95","78","20","526.997305294","1","1","2","126","2","left","out","Female","Right-handed","3","0","no","left","s","502.204899461","488.276669821","9","red","2"
"95","78","20","527.921128696","1","1","2","127","1","right","out","Female","Right-handed","3","0","no","right","s","418.800688634","712.795087709","9","green","3"
"95","76","20","527.412917416","1","0","2","128","1","right","in","Female","Right-handed","3","0","no","right","s","563.537665776","448.598421581","9","green","2"
"95","77","20","534.802158635","1","1","2","129","1","right","out","Female","Right-handed","3","0","no","right","s","392.147222499","1312.93183958","9","red","3"
"95","75","20","532.766947668","1","0","2","130","3","left","out","Female","Right-handed","3","0","no","left","s","533.665206782","352.770123436","9","red","3"
"95","73","20","534.135765445","1","0","2","131","0","left","out","Female","Right-handed","3","0","no","left","s","663.176350905","528.288779931","9","red","0"
"95","74","20","534.767455216","1","1","2","132","2","right","out","Female","Right-handed","3","0","no","right","d","606.759788792","520.890580541","9","red","2"
"95","75","20","533.65716224","1","1","2","133","2","right","in","Female","Right-handed","3","0","no","right","s","666.479049767","296.467735025","9","red","1"
"95","75","20","531.167081054","1","1","2","134","3","right","out","Female","Right-handed","3","0","no","right","s","511.2066621","312.079706075","9","red","2"
"96","74","20","529.059808419","1","0","2","135","2","right","in","Female","Right-handed","3","0","no","right","s","410.819754359","440.787144296","9","red","3"
"96","74","20","529.436167165","1","1","2","136","1","right","in","Female","Right-handed","3","0","no","right","s","664.236947636","432.271261325","9","green","1"
"96","75","20","529.591826174","1","1","2","137","3","right","in","Female","Right-handed","3","0","no","right","s","610.007966503","465.052904757","9","red","1"
"96","75","20","528.478209161","1","1","2","138","2","left","in","Female","Right-handed","3","0","no","left","s","612.419725625","328.720523301","9","red","0"
"96","75","20","529.935612659","1","1","2","139","2","left","in","Female","Right-handed","3","0","no","left","d","518.184086493","696.171909676","9","green","2"
"96","74","20","529.898410478","1","0","2","140","2","right","in","Female","Right-handed","3","0","no","right","s","542.903013929","512.875971437","9","red","1"
"96","75","20","529.516708488","1","1","2","141","2","left","out","Female","Right-handed","3","0","no","left","d","480.447111919","536.599086097","9","green","0"
"96","75","20","529.386289563","1","1","2","142","3","left","out","Female","Right-handed","3","0","no","left","s","540.062782708","504.102876921","9","green","3"
"96","75","20","530.005341856","1","1","2","143","1","left","in","Female","Right-handed","3","0","no","left","s","665.792403986","464.790241098","9","red","1"
"96","76","20","534.323249345","1","1","2","144","3","right","in","Female","Right-handed","3","0","no","right","d","1009.2923283","560.231439076","9","green","2"
"96","76","20","532.267252416","1","1","2","145","2","right","in","Female","Right-handed","3","0","no","right","d","388.901289778","433.025577475","9","green","3"
"96","77","20","529.45111355","1","1","2","146","3","right","out","Female","Right-handed","3","0","no","right","s","392.464728022","328.500835136","9","green","3"
"96","75","20","530.586569676","1","0","2","147","3","right","out","Female","Right-handed","3","0","no","right","s","647.338277438","552.36050924","9","green","1"
"96","74","20","528.781073849","1","0","2","148","0","left","in","Female","Right-handed","3","0","no","left","s","417.836305698","415.844359435","9","red","1"
"96","75","20","530.9881732","1","1","2","149","0","left","out","Female","Right-handed","3","0","no","left","d","595.531959656","744.53890501","9","green","0"
"100","100","20","450.218661885","1","1","3","150","0","left","out","Female","Right-handed","3","0","no","left","d","555.152312852","345.285010917","9","red","1"
"100","100","20","410.041144226","1","1","3","151","1","left","out","Female","Right-handed","3","0","no","left","s","410.933286637","328.793966497","9","red","3"
"100","100","20","401.337777983","1","1","3","152","2","right","out","Female","Right-handed","3","0","no","right","s","399.393724807","368.468366188","9","green","3"
"100","100","20","398.679738273","1","1","3","153","1","right","in","Female","Right-handed","3","0","no","right","d","348.19323322","433.218005064","9","green","3"
"100","80","20","418.90071891","1","0","3","154","0","left","out","Female","Right-handed","3","0","no","left","s","502.718360414","496.850922498","9","green","2"
"100","83","20","451.81220286","1","1","3","155","2","right","out","Female","Right-handed","3","0","no","right","s","456.31476792","776.424477302","9","red","3"
"100","85","20","462.34022554","1","1","3","156","3","left","out","Female","Right-handed","3","0","no","left","s","441.922787788","609.093935453","9","red","3"
"100","87","20","461.252419777","1","1","3","157","3","right","in","Female","Right-handed","3","0","no","right","d","394.556095209","512.719463666","9","green","3"
"100","88","20","465.51658398","1","1","3","158","1","right","in","Female","Right-handed","3","0","no","right","s","566.032489474","433.227305732","9","red","1"
"100","90","20","461.464595248","1","1","3","159","3","left","out","Female","Right-handed","3","0","no","left","d","425.016099774","424.977293545","9","green","3"
"100","90","20","477.83518437","1","1","3","160","2","left","out","Female","Right-handed","3","0","no","left","d","666.572056434","616.510094751","9","green","1"
"100","91","20","483.779249528","1","1","3","161","3","right","in","Female","Right-handed","3","0","no","right","s","601.269829664","497.05810287","9","green","2"
"100","92","20","492.046116604","1","1","3","162","0","right","in","Female","Right-handed","3","0","no","right","d","557.747840321","624.749202709","9","red","1"
"100","92","20","493.062057623","1","1","3","163","3","right","out","Female","Right-handed","3","0","no","right","s","564.137398431","448.401183303","9","red","2"
"100","93","20","498.056374442","1","1","3","164","3","right","in","Female","Right-handed","3","0","no","right","s","446.989085507","688.964534313","9","red","3"
"100","93","20","499.061695011","1","1","3","165","1","right","in","Female","Right-handed","3","0","no","right","s","523.662499967","504.620507136","9","green","2"
"100","94","20","500.516630347","1","1","3","166","1","right","in","Female","Right-handed","3","0","no","right","s","479.246043047","568.345148387","9","red","3"
"100","94","20","509.815749158","1","1","3","167","0","left","in","Female","Right-handed","3","0","no","left","d","766.884238128","568.917299754","9","green","0"
"100","94","20","509.724648948","1","1","3","168","1","right","in","Female","Right-handed","3","0","no","right","s","463.590134366","552.579555981","9","red","0"
"100","95","20","522.5385224","1","1","3","169","0","left","in","Female","Right-handed","3","0","no","left","s","1108.00639886","423.997837113","9","red","2"
"100","95","20","527.928665443","1","1","3","170","2","left","out","Female","Right-handed","3","0","no","left","d","726.762765005","544.700287615","9","red","3"
"100","95","20","523.766294244","1","1","3","171","1","right","in","Female","Right-handed","3","0","no","right","s","424.268518589","448.444479509","9","green","3"
"100","95","20","519.079314023","1","1","3","172","2","left","out","Female","Right-handed","3","0","no","left","s","446.945789301","384.985709044","9","red","2"
"100","95","20","524.205092318","1","1","3","173","0","left","out","Female","Right-handed","3","0","no","left","d","507.459455506","776.73653071","9","green","2"
"100","96","20","519.068201469","1","1","3","174","1","left","in","Female","Right-handed","3","0","no","left","s","423.314398458","368.251243724","9","red","2"
"100","96","20","517.16175325","1","1","3","175","0","left","in","Female","Right-handed","3","0","no","left","d","513.902572629","425.098522926","9","green","0"
"100","96","20","516.579050347","1","1","3","176","2","right","out","Female","Right-handed","3","0","no","right","s","450.422635129","552.434914574","9","green","3"
"100","96","20","514.600901514","1","1","3","177","1","left","out","Female","Right-handed","3","0","no","left","s","498.109078222","424.272687855","9","red","3"
"100","96","20","516.60654521","1","1","3","178","1","left","in","Female","Right-handed","3","0","no","left","s","672.785222589","472.743914797","9","green","1"
"100","96","20","515.96887612","1","1","3","179","3","left","in","Female","Right-handed","3","0","no","left","d","402.357430399","592.595514641","9","red","0"
"100","93","20","518.905793411","1","0","3","180","0","left","out","Female","Right-handed","3","0","no","left","d","438.010734895","776.015889387","9","red","3"
"100","90","20","515.978259972","1","0","3","181","0","right","out","Female","Right-handed","3","0","no","right","s","393.725449447","456.723997258","9","green","3"
"100","90","20","516.852852022","1","1","3","182","3","right","out","Female","Right-handed","3","0","no","right","d","657.341304966","432.338290268","9","green","1"
"100","88","20","525.574763288","1","0","3","183","0","left","in","Female","Right-handed","3","0","no","left","d","1057.88478462","568.9108855","9","green","3"
"100","88","20","524.470256009","1","1","3","184","3","right","out","Female","Right-handed","3","0","no","right","s","485.500901845","488.333115249","9","red","1"
"100","88","20","520.559168562","1","1","3","185","2","right","in","Female","Right-handed","3","0","no","right","d","367.153444326","400.188771464","9","green","1"
"100","89","20","518.200954247","1","1","3","186","0","left","out","Female","Right-handed","3","0","no","left","s","505.816444604","360.794033204","9","green","3"
"100","89","20","517.958899796","1","1","3","187","3","right","out","Female","Right-handed","3","0","no","right","d","409.454801324","608.550968936","9","red","0"
"100","89","20","518.266308172","1","1","3","188","3","right","out","Female","Right-handed","3","0","no","right","d","667.993775609","391.901877323","9","green","2"
"100","90","20","518.836604442","1","1","3","189","1","left","in","Female","Right-handed","3","0","no","left","s","481.610015984","600.546301926","9","green","1"
"100","90","20","518.894860037","1","1","3","190","0","left","in","Female","Right-handed","3","0","no","left","d","586.198259429","456.251908241","9","green","2"
"100","90","20","518.441832561","1","1","3","191","3","left","in","Female","Right-handed","3","0","no","left","s","423.855119985","575.880292079","9","green","3"
"100","90","20","517.608142515","1","1","3","192","3","left","out","Female","Right-handed","3","0","no","left","d","564.572926209","400.613395013","9","green","1"
"100","88","20","522.047416578","1","0","3","193","0","left","out","Female","Right-handed","3","0","no","left","s","977.864092241","448.008310306","9","green","3"
"100","86","20","524.596379568","1","0","3","194","3","right","out","Female","Right-handed","3","0","no","right","s","457.708585092","815.792917125","9","red","1"
"100","86","20","521.448888973","1","1","3","195","0","right","out","Female","Right-handed","3","0","no","right","s","439.247082157","320.376542306","9","green","1"
"97","87","20","518.713777553","0","1","3","196","0","left","out","Female","Right-handed","3","0","no","right","s","358.933579128","426.863725346","9","green","3"
"97","87","20","517.325725816","1","1","3","197","2","right","in","Female","Right-handed","3","0","no","right","d","447.579196782","456.595391488","9","red","1"
"97","85","20","516.200616208","1","0","3","198","3","right","out","Female","Right-handed","3","0","no","right","d","428.241186175","496.149523933","9","red","2"
"98","86","20","514.563433113","1","1","3","199","2","left","in","Female","Right-handed","3","0","no","left","d","492.773061163","375.909861787","9","red","3"
"98","84","20","518.591998398","1","0","3","200","1","right","in","Female","Right-handed","3","0","no","right","s","463.592058641","976.44846661","9","red","2"
"98","84","20","520.659130857","1","1","3","201","1","right","out","Female","Right-handed","3","0","no","right","d","460.031506811","792.13426571","9","green","3"
"96","84","20","522.176837953","0","1","3","202","2","left","in","Female","Right-handed","3","0","no","right","s","575.533280993","626.661932949","9","red","0"
"96","85","20","522.178072563","1","1","3","203","2","left","in","Female","Right-handed","3","0","no","left","s","524.273457564","520.213556139","9","red","0"
"96","85","20","521.690729445","1","1","3","204","0","left","in","Female","Right-handed","3","0","no","left","d","550.913453768","439.834948442","9","red","1"
"96","85","20","519.667915109","1","1","3","205","3","right","in","Female","Right-handed","3","0","no","right","s","449.358189846","367.468063434","9","green","3"
"96","85","20","518.228764018","1","1","3","206","2","right","out","Female","Right-handed","3","0","no","right","d","466.978784216","408.293821536","9","red","3"
"96","86","20","517.584616494","1","1","3","207","1","right","in","Female","Right-handed","3","0","no","right","d","505.894057065","455.842358188","9","green","0"
"96","86","20","518.572855455","1","1","3","208","2","left","out","Female","Right-handed","3","0","no","left","s","623.517986849","528.263443632","9","red","2"
"96","86","20","517.714549814","1","1","3","209","1","left","in","Female","Right-handed","3","0","no","left","d","494.082210198","440.066823689","9","green","1"
"96","85","20","518.861825929","1","0","3","210","2","right","out","Female","Right-handed","3","0","no","right","d","623.620294184","551.776491508","9","green","2"
"96","85","20","516.730947827","1","1","3","211","1","left","in","Female","Right-handed","3","0","no","left","d","365.272464638","408.222302614","9","red","2"
"96","85","20","517.684856531","1","1","3","212","2","right","out","Female","Right-handed","3","0","no","right","d","633.869629026","519.784763326","9","red","1"
"96","85","20","518.519451703","1","1","3","213","2","right","in","Female","Right-handed","3","0","no","right","d","606.518933593","535.678961507","9","red","2"
"100","100","20","573.902617528","1","1","4","214","3","left","in","Female","Right-handed","3","0","no","left","s","851.421847459","296.383387597","9","red","2"
"100","100","20","523.302339663","1","1","4","215","1","left","in","Female","Right-handed","3","0","no","left","d","498.138583786","447.265539811","9","red","1"
"100","100","20","513.93581984","1","1","4","216","2","left","out","Female","Right-handed","3","0","no","left","s","581.563961648","408.841598739","9","red","0"
"100","75","20","523.310437658","1","0","4","217","1","right","out","Female","Right-handed","3","0","no","right","s","590.418837892","512.449744329","9","red","1"
"100","60","20","503.860738871","1","0","4","218","1","right","out","Female","Right-handed","3","0","no","right","d","435.997621595","416.126265853","9","red","1"
"100","66","20","488.98589912","1","1","4","219","2","left","in","Female","Right-handed","3","0","no","left","s","420.697703954","408.525696781","9","red","1"
"100","71","20","496.892134073","1","1","4","220","2","right","in","Female","Right-handed","3","0","no","right","d","576.301387788","512.357699797","9","red","3"
"100","75","20","498.715225128","1","1","4","221","2","right","in","Female","Right-handed","3","0","no","right","s","653.916414587","369.037310427","9","red","1"
"100","77","20","505.413415709","1","1","4","222","3","right","in","Female","Right-handed","3","0","no","right","d","541.458844869","576.539035859","9","red","0"
"100","80","20","510.230589188","1","1","4","223","3","right","in","Female","Right-handed","3","0","no","right","s","539.131753889","568.038547093","9","green","1"
"100","72","20","502.734352313","1","0","4","224","0","right","in","Female","Right-handed","3","0","no","right","d","342.764850921","512.779116218","9","green","2"
"100","75","20","498.669470123","1","1","4","225","1","left","out","Female","Right-handed","3","0","no","left","s","491.41195668","416.499575376","9","green","0"
"100","76","20","493.317779263","1","1","4","226","0","right","out","Female","Right-handed","3","0","no","right","d","378.129514031","480.065463868","9","green","1"
"100","78","20","488.097139463","1","1","4","227","2","left","in","Female","Right-handed","3","0","no","left","s","479.708831399","360.748812722","9","green","1"
"100","80","20","489.982529713","1","1","4","228","0","left","out","Female","Right-handed","3","0","no","left","d","456.2737167","576.482269722","9","red","1"
"100","81","20","489.889633958","1","1","4","229","3","right","out","Female","Right-handed","3","0","no","right","s","464.945145308","512.047249953","9","green","3"
"100","82","20","484.69236639","1","1","4","230","0","right","in","Female","Right-handed","3","0","no","right","d","354.668742319","448.403428291","9","red","3"
"100","83","20","481.865044901","1","1","4","231","0","right","out","Female","Right-handed","3","0","no","right","s","443.237388938","424.363770248","9","red","1"
"100","78","20","497.96642861","1","0","4","232","3","right","in","Female","Right-handed","3","0","no","right","d","430.822602288","1144.76006845","9","green","3"
"100","80","20","491.990105373","1","1","4","233","0","right","in","Female","Right-handed","3","0","no","right","s","404.484075976","352.395851774","9","red","3"
"100","76","20","488.256945995","1","0","4","234","3","right","out","Female","Right-handed","3","0","no","right","s","370.969604139","456.2179127","9","green","0"
"100","77","20","491.997680023","1","1","4","235","1","right","out","Female","Right-handed","3","0","no","right","d","428.53720395","712.568985291","9","green","2"
"100","73","20","499.185201627","1","0","4","236","3","right","out","Female","Right-handed","3","0","no","right","s","466.267122849","848.354230969","9","green","3"
"100","75","20","496.153886963","1","1","4","237","0","right","in","Female","Right-handed","3","0","no","right","s","364.999217462","487.868081908","9","red","3"
"100","76","20","495.552915022","1","1","4","238","3","right","in","Female","Right-handed","3","0","no","right","s","529.725893313","432.53328356","9","green","2"
"96","76","20","493.578543317","0","1","4","239","1","left","out","Female","Right-handed","3","0","no","right","d","453.210269476","435.22823195","9","green","3"
"96","77","20","492.030605442","1","1","4","240","3","left","out","Female","Right-handed","3","0","no","left","s","527.669163093","375.899278268","9","green","1"
"96","78","20","490.132381935","1","1","4","241","1","left","out","Female","Right-handed","3","0","no","left","s","469.4174832","408.343211284","9","red","3"
"96","75","20","491.80419378","1","0","4","242","3","left","out","Female","Right-handed","3","0","no","left","s","501.185995377","576.043855532","9","red","2"
"96","73","20","487.752315332","1","0","4","243","2","right","in","Female","Right-handed","3","0","no","right","s","372.69856603","367.797114612","9","green","3"
"96","74","20","484.880410805","1","1","4","244","2","right","out","Female","Right-handed","3","0","no","right","s","317.235482622","480.211067408","9","red","3"
"96","75","20","486.870084277","1","1","4","245","3","left","out","Female","Right-handed","3","0","no","left","d","361.091654542","736.008269256","9","green","3"
"96","75","20","483.257409959","1","1","4","246","0","right","out","Female","Right-handed","3","0","no","right","s","398.599319577","336.704343989","9","red","0"
"97","76","20","487.079510816","1","1","4","247","3","right","in","Female","Right-handed","3","0","no","right","s","802.179627306","424.238050889","9","red","1"
"97","77","20","489.170926647","1","1","4","248","2","left","in","Female","Right-handed","3","0","no","left","d","640.819472134","479.738657678","9","red","2"
"97","75","20","494.55113218","1","0","4","249","2","left","in","Female","Right-handed","3","0","no","left","s","1045.40489331","320.311758353","9","green","3"
"97","75","20","492.79411985","1","1","4","250","3","left","in","Female","Right-handed","3","0","no","left","d","348.080342368","511.003009568","9","green","3"
"97","76","20","493.659093156","1","1","4","251","0","left","in","Female","Right-handed","3","0","no","left","s","675.485943806","375.840267141","9","green","1"
"97","74","20","493.021732706","1","0","4","252","3","left","out","Female","Right-handed","3","0","no","left","s","449.272880282","488.331190973","9","green","2"
"97","75","20","496.058730183","1","1","4","253","2","left","out","Female","Right-handed","3","0","no","left","d","452.982884208","776.020379364","9","green","3"
"97","75","20","494.705335319","1","1","4","254","1","left","out","Female","Right-handed","3","0","no","left","d","408.609402783","472.529678747","9","red","2"
"97","76","20","493.681277388","1","1","4","255","0","left","out","Female","Right-handed","3","0","no","left","s","583.136736479","320.253067937","9","red","0"
"97","76","20","496.091959743","1","1","4","256","2","right","in","Female","Right-handed","3","0","no","right","s","746.874334522","447.806902761","9","green","2"
"97","77","20","493.647793981","1","1","4","257","1","right","in","Female","Right-handed","3","0","no","right","d","360.556064419","416.541268021","9","green","2"
"97","77","20","494.014436488","1","1","4","258","0","right","out","Female","Right-handed","3","0","no","right","d","380.128515973","640.164897617","9","red","2"
"97","76","20","492.039535559","1","0","4","259","2","left","in","Female","Right-handed","3","0","no","left","d","414.655477643","391.682509873","9","red","2"
"97","76","20","490.694027768","1","1","4","260","3","left","out","Female","Right-handed","3","0","no","left","s","481.322336738","376.279002046","9","red","3"
"97","77","20","492.989889641","1","1","4","261","0","left","out","Female","Right-handed","3","0","no","left","s","505.863910077","695.926885213","9","green","2"
"97","77","20","493.921346624","1","1","4","262","2","right","in","Female","Right-handed","3","0","no","right","d","453.551187022","623.711376575","9","green","3"
"98","78","20","507.086069012","1","1","4","263","1","right","in","Female","Right-handed","3","0","no","right","d","1736.19877257","568.116159555","9","red","3"
"98","78","20","505.865111178","1","1","4","264","0","right","out","Female","Right-handed","3","0","no","right","s","433.79849496","455.835943934","9","green","3"
"98","78","20","507.077684104","1","1","4","265","2","left","in","Female","Right-handed","3","0","no","left","s","746.412508306","391.425298327","9","green","1"
"98","79","20","505.934267171","1","1","4","266","1","right","out","Female","Right-handed","3","0","no","right","d","317.017077307","575.93609608","9","green","3"
"98","77","20","504.883155948","1","0","4","267","0","left","in","Female","Right-handed","3","0","no","left","s","394.610616358","503.737905927","9","green","3"
"98","78","20","504.753349232","1","1","4","268","0","left","in","Female","Right-handed","3","0","no","left","s","443.202751972","552.284821057","9","green","3"
"98","78","20","504.294548545","1","1","4","269","2","left","in","Female","Right-handed","3","0","no","left","d","550.038870373","408.082151187","9","red","0"
"98","78","20","507.659082252","1","1","4","270","1","right","out","Female","Right-handed","3","0","no","right","d","440.604338088","951.541601562","9","red","3"
"98","79","20","508.399024684","1","1","4","271","1","left","in","Female","Right-handed","3","0","no","left","d","525.050865026","576.100621671","9","green","2"
"98","79","20","507.152914008","1","1","4","272","2","right","out","Female","Right-handed","3","0","no","right","d","397.918125909","471.838863703","9","green","2"
"98","78","20","513.931816277","1","0","4","273","1","left","in","Female","Right-handed","3","0","no","left","d","1108.35533422","719.418766052","9","red","3"
"98","78","20","515.309470672","1","1","4","274","3","left","in","Female","Right-handed","3","0","no","left","s","579.926402861","616.011065869","9","red","1"
"98","79","20","515.507540286","1","1","4","275","1","right","out","Female","Right-handed","3","0","no","right","s","455.621387173","599.558186254","9","red","1"
"96","79","20","516.351730409","0","1","4","276","0","left","out","Female","Right-handed","3","0","no","right","d","527.263782305","610.11925379","9","red","2"
"96","79","20","519.530623608","1","1","4","277","1","left","out","Female","Right-handed","3","0","no","left","d","847.877651973","591.724138372","9","green","0"
"100","0","20","726.59150445","1","0","5","278","0","left","out","Female","Right-handed","3","0","no","left","s","549.038888333","904.144120567","9","green","1"
"100","50","20","603.693615509","1","1","5","279","1","right","in","Female","Right-handed","3","0","no","right","d","424.73355193","536.857901204","9","red","0"
"100","66","20","564.725906141","1","1","5","280","0","left","out","Female","Right-handed","3","0","no","left","d","485.315529931","488.265444879","9","red","3"
"100","75","20","529.046022585","1","1","5","281","1","right","out","Female","Right-handed","3","0","no","right","d","380.034226455","463.978517384","9","green","3"
"100","80","20","535.151966481","1","1","5","282","0","right","out","Female","Right-handed","3","0","no","right","s","639.652078091","479.49940604","9","red","1"
"100","83","20","518.099899424","1","1","5","283","0","right","in","Female","Right-handed","3","0","no","right","d","433.427109711","432.252018567","9","green","3"
"100","85","20","523.708751313","1","1","5","284","3","right","out","Female","Right-handed","3","0","no","right","d","562.887581236","551.836144059","9","green","1"
"100","75","20","516.814743706","1","0","5","285","1","right","out","Female","Right-handed","3","0","no","right","d","632.67657797","304.436802932","9","red","1"
"100","66","20","563.780979773","1","0","5","286","2","right","in","Female","Right-handed","3","0","no","right","d","1342.98004911","536.041687512","9","green","3"
"100","70","20","566.11643601","1","1","5","287","3","left","in","Female","Right-handed","3","0","no","left","s","438.636765984","735.634318308","9","green","3"
"100","72","20","551.579180338","1","1","5","288","0","left","out","Female","Right-handed","3","0","no","left","d","388.075454706","424.337792521","9","red","3"
"100","75","20","545.06901362","1","1","5","289","1","right","out","Female","Right-handed","3","0","no","right","d","410.896404683","536.017954777","9","green","3"
"100","76","20","547.075806207","1","1","5","290","2","left","out","Female","Right-handed","3","0","no","left","d","750.677024402","391.6376101","9","green","2"
"100","78","20","538.620721189","1","1","5","291","2","left","in","Female","Right-handed","3","0","no","left","d","481.151396896","376.257835011","9","red","0"
"100","80","20","532.97144118","1","1","5","292","1","left","in","Female","Right-handed","3","0","no","left","d","483.757828595","424.005213505","9","red","2"
"100","81","20","529.005201879","1","1","5","293","3","left","out","Female","Right-handed","3","0","no","left","s","530.455193877","408.568030851","9","red","3"
"94","76","20","526.981885319","0","0","5","294","1","right","out","Female","Right-handed","3","0","no","left","d","530.142819756","459.074820978","9","green","2"
"94","77","20","532.107060011","1","1","5","295","3","left","in","Female","Right-handed","3","0","no","left","s","830.806438371","407.663621179","9","green","2"
"94","78","20","527.489454293","1","1","5","296","3","left","out","Female","Right-handed","3","0","no","left","s","408.292538685","480.452564034","9","green","3"
"95","80","20","521.188386289","1","1","5","297","3","right","out","Female","Right-handed","3","0","no","right","d","411.089152985","391.847035462","9","red","3"
"95","80","20","521.012840785","1","1","5","298","3","right","in","Female","Right-handed","3","0","no","right","s","491.441141532","543.562719849","9","green","0"
"95","81","20","526.046306067","1","1","5","299","2","left","in","Female","Right-handed","3","0","no","left","d","479.184786931","784.313367047","9","green","2"
"95","82","20","525.468906992","1","1","5","300","0","right","in","Female","Right-handed","3","0","no","right","s","601.654043416","423.878211295","9","red","1"
"95","79","20","524.718680218","1","0","5","301","2","right","in","Female","Right-handed","3","0","no","right","s","607.405383355","407.521545476","9","red","1"
"96","80","20","524.334373725","1","1","5","302","1","left","in","Female","Right-handed","3","0","no","left","s","446.063829515","584.158206267","9","green","3"
"96","80","20","519.812375452","1","1","5","303","1","right","out","Female","Right-handed","3","0","no","right","d","429.684393097","383.840444174","9","green","0"
"96","81","20","522.257279678","1","1","5","304","1","right","out","Female","Right-handed","3","0","no","right","s","507.361638149","664.287940948","9","red","1"
"96","82","20","522.960345439","1","1","5","305","3","right","in","Female","Right-handed","3","0","no","right","s","628.035865937","455.850376003","9","red","2"
"96","82","20","522.260875101","1","1","5","306","0","left","in","Female","Right-handed","3","0","no","left","d","493.70120357","511.650207695","9","red","2"
"96","83","20","519.146192371","1","1","5","307","2","left","in","Female","Right-handed","3","0","no","left","s","385.325023028","472.315763413","9","red","1"
"96","83","20","515.588900429","1","1","5","308","3","right","in","Female","Right-handed","3","0","no","right","s","433.887332363","383.852951967","9","green","3"
"96","84","20","512.601902435","1","1","5","309","0","right","in","Female","Right-handed","3","0","no","right","s","464.48171553","375.528213734","9","green","2"
"96","84","20","508.560165615","1","1","5","310","0","right","in","Female","Right-handed","3","0","no","right","s","390.20177957","368.247395172","9","red","0"
"97","85","20","508.801520035","1","1","5","311","3","left","in","Female","Right-handed","3","0","no","left","s","657.815959688","375.716472059","9","green","2"
"97","85","20","505.120461504","1","1","5","312","2","left","out","Female","Right-handed","3","0","no","left","d","416.376742433","343.552200473","9","green","3"
"97","86","20","502.412422819","1","1","5","313","2","right","in","Female","Right-handed","3","0","no","right","s","455.156674543","360.105463147","9","red","3"
"97","86","20","501.733239505","1","1","5","314","1","right","out","Female","Right-handed","3","0","no","right","d","578.779213716","375.786066703","9","red","1"
"97","84","20","503.278012427","1","0","5","315","0","right","in","Female","Right-handed","3","0","no","right","s","385.317005211","735.552215869","9","green","3"
"97","82","20","506.654421529","1","0","5","316","3","right","out","Female","Right-handed","3","0","no","right","s","750.048748323","519.867186478","9","green","2"
"97","80","20","517.87727273","1","0","5","317","0","left","out","Female","Right-handed","3","0","no","left","d","503.518859186","1407.61807998","9","red","1"
"97","80","20","515.446827501","1","1","5","318","2","left","in","Female","Right-handed","3","0","no","left","s","484.376162583","352.081874091","9","green","1"
"97","80","20","514.940391125","1","1","5","319","2","right","out","Female","Right-handed","3","0","no","right","d","556.632081014","431.720918419","9","green","3"
"97","81","20","517.914482763","1","1","5","320","2","left","out","Female","Right-handed","3","0","no","left","s","702.342421047","583.310242022","9","red","0"
"97","81","20","515.221630954","1","1","5","321","1","left","out","Female","Right-handed","3","0","no","left","s","462.826196835","336.031809562","9","red","2"
"97","82","20","512.641352318","1","1","5","322","2","left","out","Female","Right-handed","3","0","no","left","s","438.635483135","359.582701529","9","red","2"
"97","82","20","509.829797379","1","1","5","323","0","left","out","Female","Right-handed","3","0","no","left","s","423.271422964","343.348227229","9","red","2"
"95","82","20","509.013997483","0","1","5","324","3","left","in","Female","Right-handed","3","0","no","right","d","524.035168066","418.939236499","9","green","1"
"95","83","20","509.420135628","1","1","5","325","3","left","out","Female","Right-handed","3","0","no","left","d","433.496704358","623.52055255","9","green","1"
"95","81","20","509.446790708","1","0","5","326","1","right","in","Female","Right-handed","3","0","no","right","s","398.202598029","623.249871074","9","red","3"
"96","82","20","507.66276167","1","1","5","327","0","right","out","Female","Right-handed","3","0","no","right","s","464.733154247","375.757523277","9","green","2"
"96","82","20","506.15875505","1","1","5","328","2","left","out","Female","Right-handed","3","0","no","left","s","470.437028713","391.479819478","9","green","3"
"96","82","20","507.368487214","1","1","5","329","3","left","out","Female","Right-handed","3","0","no","left","s","570.998083421","567.131571723","9","green","1"
"96","83","20","508.723571644","1","1","5","330","1","left","in","Female","Right-handed","3","0","no","left","d","550.699538431","607.676385543","9","red","3"
"96","83","20","509.225584431","1","1","5","331","0","right","in","Female","Right-handed","3","0","no","right","s","432.41718558","639.247338726","9","green","0"
"96","83","20","507.647605956","1","1","5","332","2","left","in","Female","Right-handed","3","0","no","left","d","484.864287234","360.009249352","9","red","1"
"96","83","20","506.306968875","1","1","5","333","2","right","out","Female","Right-handed","3","0","no","right","s","433.576241094","431.567617772","9","red","3"
"96","84","20","504.208506726","1","1","5","334","0","right","in","Female","Right-handed","3","0","no","right","d","358.153926678","415.235326114","9","green","3"
"96","84","20","503.900056583","1","1","5","335","2","right","in","Female","Right-handed","3","0","no","right","d","580.812211197","391.824585575","9","red","2"
"96","83","20","502.715240261","1","0","5","336","1","right","out","Female","Right-handed","3","0","no","right","d","348.425108465","519.566678726","9","red","3"
"96","83","20","505.122256731","1","1","5","337","3","left","in","Female","Right-handed","3","0","no","left","s","863.034531773","431.237925168","9","red","0"
"96","83","20","504.681739593","1","1","5","338","1","left","out","Female","Right-handed","3","0","no","left","d","572.704274715","383.797147966","9","green","1"
"96","83","20","502.836845633","1","1","5","339","1","left","in","Female","Right-handed","3","0","no","left","d","389.260167232","391.336460921","9","green","2"
"96","84","20","502.950141482","1","1","5","340","3","left","in","Female","Right-handed","3","0","no","left","d","476.87822156","543.070746644","9","red","3"
"96","84","20","503.695970242","1","1","5","341","0","right","out","Female","Right-handed","3","0","no","right","d","405.727799629","695.638564541","9","red","3"
"100","0","20","408.833099855","1","0","6","342","3","left","in","Female","Right-handed","3","0","no","left","s","457.845208683","359.820991027","9","green","3"
"100","0","20","396.655319853","1","0","6","343","1","right","in","Female","Right-handed","3","0","no","right","s","385.445610984","383.50946872","9","red","2"
"100","33","20","452.420995646","1","1","6","344","3","right","in","Female","Right-handed","3","0","no","right","d","727.943628979","399.961065485","9","red","1"
"75","50","20","461.612339548","0","1","6","345","0","left","in","Female","Right-handed","3","0","no","right","d","407.60204435","570.770698154","9","green","3"
"80","40","20","463.016956719","1","0","6","346","3","right","in","Female","Right-handed","3","0","no","right","d","409.052627664","528.21822315","9","green","3"
"83","33","20","476.676065685","1","0","6","347","2","left","out","Female","Right-handed","3","0","no","left","s","482.013793209","607.929427823","9","green","3"
"85","28","20","500.000572701","1","0","6","348","1","left","in","Female","Right-handed","3","0","no","left","d","448.430047439","831.465182153","9","red","2"
"87","37","20","489.951010341","1","1","6","349","1","left","in","Female","Right-handed","3","0","no","left","s","423.12325372","416.084893921","9","red","2"
"88","44","20","487.030469555","1","1","6","350","1","left","out","Female","Right-handed","3","0","no","left","s","447.582403909","479.749882619","9","red","3"
"90","50","20","481.354440074","1","1","6","351","3","right","out","Female","Right-handed","3","0","no","right","s","405.211772975","455.328576523","9","green","2"
"90","54","20","471.140745154","1","1","6","352","2","right","out","Female","Right-handed","3","0","no","right","s","394.029485038","343.978106872","9","green","2"
"91","58","20","476.437148125","1","1","6","353","1","left","in","Female","Right-handed","3","0","no","left","d","661.663549339","407.73161226","9","green","3"
"92","61","20","480.881788574","1","1","6","354","1","right","out","Female","Right-handed","3","0","no","right","s","556.312330503","512.122617427","9","red","1"
"92","64","20","479.098114338","1","1","6","355","3","right","in","Female","Right-handed","3","0","no","right","d","495.85350616","415.967192379","9","green","3"
"93","66","20","473.797616207","1","1","6","356","1","right","in","Female","Right-handed","3","0","no","right","d","327.625289603","471.555995146","9","red","3"
"93","68","20","474.535616102","1","1","6","357","0","right","out","Female","Right-handed","3","0","no","right","d","547.091521129","424.119707921","9","red","2"
"94","70","20","482.842118521","1","1","6","358","0","left","out","Female","Right-handed","3","0","no","left","d","399.768958607","831.723355834","9","green","3"
"94","72","20","482.368492491","1","1","6","359","1","left","out","Female","Right-handed","3","0","no","left","d","533.288369421","415.345330552","9","green","0"
"94","73","20","481.851166577","1","1","6","360","0","right","out","Female","Right-handed","3","0","no","right","d","449.036835773","496.041764485","9","red","3"
"95","75","20","484.415971041","1","1","6","361","2","right","out","Female","Right-handed","3","0","no","right","d","538.65132634","527.643185369","9","green","2"
"95","76","20","482.007661489","1","1","6","362","1","left","out","Female","Right-handed","3","0","no","left","d","388.40867515","479.274265759","9","red","3"
"95","77","20","482.095757158","1","1","6","363","1","left","in","Female","Right-handed","3","0","no","left","d","575.877405665","392.01412675","9","green","1"
"95","73","20","479.812289118","1","0","6","364","1","left","out","Female","Right-handed","3","0","no","left","d","403.571969202","455.580015239","9","red","1"
"95","75","20","476.64174275","1","1","6","365","2","left","in","Female","Right-handed","3","0","no","left","d","376.227688021","431.210664594","9","green","3"
"96","72","20","475.370365382","1","0","6","366","0","right","in","Female","Right-handed","3","0","no","right","d","393.764897102","495.949719954","9","green","0"
"96","69","20","474.43288629","1","0","6","367","3","left","in","Female","Right-handed","3","0","no","left","d","406.560369666","495.431448313","9","green","2"
"96","70","20","478.860902791","1","1","6","368","0","right","out","Female","Right-handed","3","0","no","right","d","492.955546661","695.023116969","9","red","2"
"96","71","20","476.696944461","1","1","6","369","0","left","out","Female","Right-handed","3","0","no","left","d","444.82844439","391.711694723","9","green","3"
"96","72","20","482.029546836","1","1","6","370","0","left","out","Female","Right-handed","3","0","no","left","s","583.364121747","679.320704952","9","green","0"
"96","73","20","481.311031617","1","1","6","371","3","left","out","Female","Right-handed","3","0","no","left","s","504.967838936","415.980341597","9","red","2"
"96","74","20","487.544757002","1","1","6","372","2","left","out","Female","Right-handed","3","0","no","left","d","461.575738216","887.537298881","9","red","3"
"96","75","20","495.016441134","1","1","6","373","3","right","in","Female","Right-handed","3","0","no","right","d","710.09436649","743.18293193","9","red","1"
"96","72","20","493.179729662","1","0","6","374","0","right","in","Female","Right-handed","3","0","no","right","d","461.020263909","407.789661251","9","green","2"
"97","73","20","498.922693197","1","1","6","375","2","right","out","Female","Right-handed","3","0","no","right","s","801.39805058","575.482929107","9","green","0"
"97","74","20","497.241238955","1","1","6","376","0","left","out","Female","Right-handed","3","0","no","left","s","457.071649773","423.071939696","9","red","2"
"97","75","20","499.005599251","1","1","6","377","3","left","in","Female","Right-handed","3","0","no","left","d","649.685573319","471.830845887","9","green","3"
"97","75","20","505.822325782","1","1","6","378","2","left","in","Female","Right-handed","3","0","no","left","d","1079.24873703","423.200224755","9","red","1"
"97","76","20","505.431838401","1","1","6","379","3","right","in","Female","Right-handed","3","0","no","right","d","567.077691998","414.889918591","9","green","2"
"97","76","20","511.856187448","1","1","6","380","2","left","out","Female","Right-handed","3","0","no","left","s","952.423561346","559.539341178","9","red","1"
"97","75","20","517.162813144","1","0","6","381","1","right","out","Female","Right-handed","3","0","no","right","s","497.065799973","951.176630566","9","green","3"
"97","75","20","517.810683104","1","1","6","382","3","left","in","Female","Right-handed","3","0","no","left","s","455.696754645","631.754208391","9","red","3"
"97","76","20","516.050427238","1","1","6","383","1","left","in","Female","Right-handed","3","0","no","left","s","440.350654382","447.409219077","9","red","0"
"97","76","20","516.28128716","1","1","6","384","0","left","in","Female","Right-handed","3","0","no","left","s","508.94178937","543.013018369","9","red","1"
"97","77","20","514.924778598","1","1","6","385","2","left","out","Female","Right-handed","3","0","no","left","s","449.646189805","463.543631031","9","green","3"
"97","77","20","513.944201131","1","1","6","386","2","left","out","Female","Right-handed","3","0","no","left","s","454.245209194","487.352375967","9","red","1"
"97","78","20","511.748750141","1","1","6","387","0","left","in","Female","Right-handed","3","0","no","left","s","402.893020524","423.013890708","9","green","3"
"97","78","20","509.785867534","1","1","6","388","3","right","out","Female","Right-handed","3","0","no","right","d","407.550409615","431.436125588","9","red","0"
"97","79","20","509.439291528","1","1","6","389","3","right","in","Female","Right-handed","3","0","no","right","d","403.111105124","583.189333355","9","red","0"
"97","79","20","507.784474869","1","1","6","390","3","right","out","Female","Right-handed","3","0","no","right","s","465.814276587","390.892273903","9","red","1"
"98","80","20","507.417903976","1","1","6","391","2","right","out","Female","Right-handed","3","0","no","right","s","331.399115346","647.512745121","9","green","0"
"98","80","20","509.271642331","1","1","6","392","3","left","in","Female","Right-handed","3","0","no","left","s","588.893849244","615.02327091","9","red","3"
"98","78","20","510.107437997","1","0","6","393","0","right","in","Female","Right-handed","3","0","no","right","d","634.720800397","470.745233568","9","green","1"
"98","79","20","510.734101088","1","1","6","394","2","left","out","Female","Right-handed","3","0","no","left","d","463.380709005","623.260454591","9","green","2"
"98","79","20","513.487653608","1","1","6","395","2","right","out","Female","Right-handed","3","0","no","right","s","735.822576631","583.029297741","9","red","1"
"98","80","20","521.140616869","1","1","6","396","2","right","in","Female","Right-handed","3","0","no","right","d","861.325774778","1007.47549114","9","red","3"
"98","80","20","520.658321586","1","1","6","397","2","left","out","Female","Right-handed","3","0","no","left","s","413.109321962","575.154840067","9","green","2"
"98","80","20","520.555807174","1","1","6","398","1","right","in","Female","Right-handed","3","0","no","right","s","382.823143651","646.806856579","9","red","2"
"98","79","20","520.309266747","1","0","6","399","0","right","out","Female","Right-handed","3","0","no","right","s","613.233052901","399.279871818","9","red","1"
"98","79","20","521.2184902","1","1","6","400","0","right","in","Female","Right-handed","3","0","no","right","s","652.847800038","495.059100927","9","green","1"
"98","80","20","520.250868383","1","1","6","401","2","right","in","Female","Right-handed","3","0","no","right","d","358.592661581","567.729700813","9","green","3"
"98","80","20","519.473049033","1","1","6","402","1","right","out","Female","Right-handed","3","0","no","right","s","338.318490751","607.289285374","9","green","3"
"98","80","20","520.641208352","1","1","6","403","3","left","in","Female","Right-handed","3","0","no","left","d","528.906793206","654.891060327","9","red","1"
"98","80","20","520.303358226","1","1","6","404","0","right","out","Female","Right-handed","3","0","no","right","s","456.250946101","542.46235475","9","green","3"
"98","81","20","521.622201261","1","1","6","405","1","right","in","Female","Right-handed","3","0","no","right","d","466.206187444","743.212437494","9","red","1"
"100","0","20","438.219358472","1","0","7","406","2","right","in","Female","Right-handed","3","0","no","right","d","397.175355414","479.263361529","9","green","0"
"100","0","20","450.230127362","1","0","7","407","0","left","out","Female","Right-handed","3","0","no","left","s","436.74391993","487.737872573","9","green","3"
"100","33","20","493.15583171","1","1","7","408","1","left","in","Female","Right-handed","3","0","no","left","s","718.387354171","439.627126645","9","green","3"
"100","50","20","478.876501897","1","1","7","409","0","right","in","Female","Right-handed","3","0","no","right","d","481.067370183","391.009654733","9","red","3"
"100","40","20","490.041038391","1","0","7","410","0","left","in","Female","Right-handed","3","0","no","left","s","565.741923814","503.656444915","9","green","2"
"100","50","20","513.836265289","1","1","7","411","1","left","in","Female","Right-handed","3","0","no","left","s","730.352180975","535.272618581","9","red","3"
"100","57","20","511.143596248","1","1","7","412","3","left","out","Female","Right-handed","3","0","no","left","s","549.959654349","440.015509663","9","red","0"
"100","62","20","498.634325362","1","1","7","413","3","left","out","Female","Right-handed","3","0","no","left","s","494.501060919","327.637797396","9","green","0"
"100","66","20","488.418745526","1","1","7","414","2","left","out","Female","Right-handed","3","0","no","left","d","406.350623592","407.037590088","9","green","1"
"100","70","20","481.220285973","1","1","7","415","0","left","in","Female","Right-handed","3","0","no","left","s","424.985311362","407.882988631","9","red","3"
"100","63","20","486.612171173","1","0","7","416","2","right","out","Female","Right-handed","3","0","no","right","s","577.512719463","503.549326888","9","red","2"
"91","66","20","492.568673665","0","1","7","417","2","left","in","Female","Right-handed","3","0","no","right","d","522.081065896","594.099336253","9","green","0"
"92","69","20","503.081986883","1","1","7","418","2","left","out","Female","Right-handed","3","0","no","left","s","666.643254643","591.840236353","9","red","1"
"92","71","20","495.351728311","1","1","7","419","0","left","out","Female","Right-handed","3","0","no","left","s","374.344142633","415.372591127","9","green","1"
"93","73","20","494.391740666","1","1","7","420","2","right","out","Female","Right-handed","3","0","no","right","d","355.049107522","606.854719736","9","red","3"
"93","75","20","493.468506499","1","1","7","421","1","left","in","Female","Right-handed","3","0","no","left","s","423.637356098","535.602631897","9","red","2"
"94","76","20","488.697869291","1","1","7","422","1","right","in","Female","Right-handed","3","0","no","right","s","393.347329235","431.388018689","9","red","3"
"94","77","20","489.978593856","1","1","7","423","3","right","out","Female","Right-handed","3","0","no","right","d","592.740156046","430.761666885","9","green","1"
"94","78","20","491.852160111","1","1","7","424","2","right","in","Female","Right-handed","3","0","no","right","s","419.617543752","631.535161652","9","green","3"
"95","75","20","504.667619825","1","0","7","425","1","left","out","Female","Right-handed","3","0","no","left","d","1009.16147754","487.161231229","9","red","2"
"95","76","20","501.100067295","1","1","7","426","3","right","in","Female","Right-handed","3","0","no","right","d","427.75274081","431.745292579","9","green","3"
"95","77","20","500.838816645","1","1","7","427","0","left","out","Female","Right-handed","3","0","no","left","s","599.327914573","391.377191429","9","red","0"
"95","73","20","507.929738775","1","0","7","428","3","left","in","Female","Right-handed","3","0","no","left","s","432.910762347","894.949288917","9","red","1"
"95","75","20","504.373344588","1","1","7","429","2","right","out","Female","Right-handed","3","0","no","right","d","445.543633596","399.608922995","9","red","2"
"96","76","20","500.604690872","1","1","7","430","3","right","out","Female","Right-handed","3","0","no","right","s","389.069022494","431.244980848","9","red","3"
"96","76","20","501.848162149","1","1","7","431","1","left","out","Female","Right-handed","3","0","no","left","s","442.905451346","622.964436816","9","red","3"
"96","77","20","505.074790665","1","1","7","432","0","left","out","Female","Right-handed","3","0","no","left","s","682.440597604","495.493666565","9","green","1"
"96","78","20","505.061578661","1","1","7","433","1","right","out","Female","Right-handed","3","0","no","right","s","538.122150469","471.287558659","9","green","3"
"96","79","20","501.947947806","1","1","7","434","2","right","out","Female","Right-handed","3","0","no","right","s","414.816154682","414.716413046","9","red","1"
"96","76","20","500.911887621","1","0","7","435","2","right","in","Female","Right-handed","3","0","no","right","s","542.3545953","399.377689177","9","red","3"
"96","77","20","502.235594767","1","1","7","436","0","right","out","Female","Right-handed","3","0","no","right","s","628.98774108","454.905877252","9","green","1"
"96","78","20","501.683931831","1","1","7","437","3","left","out","Female","Right-handed","3","0","no","left","d","466.631452417","502.533309214","9","red","1"
"96","78","20","498.852572749","1","1","7","438","2","right","in","Female","Right-handed","3","0","no","right","s","449.25459966","367.243564581","9","green","3"
"97","79","20","501.618561279","1","1","7","439","1","left","in","Female","Right-handed","3","0","no","left","s","690.860266782","494.932098718","9","red","2"
"97","80","20","501.156384436","1","1","7","440","3","right","in","Female","Right-handed","3","0","no","right","s","451.486759699","519.397983871","9","red","3"
"97","80","20","502.030280334","1","1","7","441","3","left","in","Female","Right-handed","3","0","no","left","s","474.118489211","591.11478434","9","green","2"
"97","81","20","501.537613457","1","1","7","442","2","left","out","Female","Right-handed","3","0","no","left","d","448.777699952","518.825511794","9","green","2"
"97","81","20","501.401514277","1","1","7","443","2","left","in","Female","Right-handed","3","0","no","left","d","529.4568154","463.274873831","9","red","1"
"97","82","20","499.685771503","1","1","7","444","2","left","out","Female","Right-handed","3","0","no","left","d","453.872861808","415.102230365","9","green","2"
"97","82","20","498.946470974","1","1","7","445","1","right","out","Female","Right-handed","3","0","no","right","s","501.67668573","438.550814996","9","green","0"
"97","82","20","500.612404715","1","1","7","446","0","right","out","Female","Right-handed","3","0","no","right","d","399.23433062","735.265178045","9","green","3"
"97","83","20","503.487482799","1","1","7","447","0","left","out","Female","Right-handed","3","0","no","left","d","419.864813204","822.866555316","9","green","2"
"97","83","20","507.256630861","1","1","7","448","1","right","in","Female","Right-handed","3","0","no","right","d","667.536439372","663.585259532","9","red","1"
"97","84","20","507.162606794","1","1","7","449","0","left","in","Female","Right-handed","3","0","no","left","s","407.054267147","599.18487673","9","red","2"
"97","84","20","505.909515416","1","1","7","450","2","right","in","Female","Right-handed","3","0","no","right","s","358.657445537","542.889543999","9","green","3"
"97","84","20","506.605843931","1","1","7","451","1","left","in","Female","Right-handed","3","0","no","left","d","525.419043148","550.462211071","9","green","3"
"97","85","20","509.656245034","1","1","7","452","1","right","out","Female","Right-handed","3","0","no","right","s","741.022290811","558.927100732","9","red","1"
"97","85","20","509.91642509","1","1","7","453","3","right","out","Female","Right-handed","3","0","no","right","d","413.566337487","630.723437937","9","red","3"
"95","85","20","508.598777375","0","1","7","454","0","right","in","Female","Right-handed","3","0","no","left","d","385.391410544","505.311963608","9","red","1"
"96","86","20","506.652542482","1","1","7","455","3","left","out","Female","Right-handed","3","0","no","left","s","423.71400642","398.86005896","9","red","1"
"94","86","20","508.406243267","0","1","7","456","0","left","in","Female","Right-handed","3","0","no","right","d","470.543505313","721.639059722","9","green","0"
"94","86","20","507.756503263","1","1","7","457","1","left","in","Female","Right-handed","3","0","no","left","s","454.094794963","495.144731205","9","red","0"
"94","86","20","506.333254886","1","1","7","458","3","right","in","Female","Right-handed","3","0","no","right","d","433.806833487","430.841845047","9","green","3"
"94","87","20","504.768144829","1","1","7","459","3","right","out","Female","Right-handed","3","0","no","right","d","373.318824293","470.315799332","9","green","3"
"92","87","20","505.253054526","0","1","7","460","3","right","in","Female","Right-handed","3","0","no","left","s","517.893200122","544.983156173","9","red","2"
"92","87","20","502.993614909","1","1","7","461","2","right","out","Female","Right-handed","3","0","no","right","d","358.694327491","398.754544498","9","red","3"
"92","85","20","502.261609337","1","0","7","462","0","right","in","Female","Right-handed","3","0","no","right","s","340.222882464","582.315712098","9","green","3"
"93","86","20","504.11015931","1","1","7","463","1","left","in","Female","Right-handed","3","0","no","left","d","843.952449859","375.002565701","9","green","2"
"93","86","20","502.220636126","1","1","7","464","3","left","out","Female","Right-handed","3","0","no","left","d","386.638341326","398.618241623","9","red","2"
"93","85","20","502.129954262","1","0","7","465","0","right","out","Female","Right-handed","3","0","no","right","s","395.257173059","598.302275521","9","green","2"
"93","85","20","501.567982543","1","1","7","466","0","right","in","Female","Right-handed","3","0","no","right","s","568.81146458","366.887894252","9","red","3"
"93","83","20","500.881776151","1","0","7","467","3","right","out","Female","Right-handed","3","0","no","right","s","471.463629903","446.582742579","9","green","2"
"93","84","20","499.860400911","1","1","7","468","1","right","in","Female","Right-handed","3","0","no","right","d","417.921615263","455.148656727","9","green","1"
"93","84","20","499.989659523","1","1","7","469","1","left","in","Female","Right-handed","3","0","no","left","s","553.555163859","462.710740283","9","green","1"
"0","100","20","604.837918241","0","1","8","470","0","left","in","Female","Right-handed","3","0","no","right","d","751.832552078","457.843284404","9","red","0"
"50","100","20","565.132249068","1","1","8","471","1","left","in","Female","Right-handed","3","0","no","left","s","451.454047008","599.39911278","9","red","1"
"66","100","20","519.261039571","1","1","8","472","0","right","out","Female","Right-handed","3","0","no","right","s","471.947264579","383.089976574","9","green","1"
"75","100","20","526.252535233","1","1","8","473","1","right","in","Female","Right-handed","3","0","no","right","d","655.633830823","438.82021362","9","green","2"
"80","100","20","494.785084039","1","1","8","474","0","right","out","Female","Right-handed","3","0","no","right","s","394.3530841","343.477474427","9","red","3"
"83","100","20","478.062159029","1","1","8","475","2","left","in","Female","Right-handed","3","0","no","left","d","437.901051167","350.994016784","9","red","2"
"85","100","20","478.709238797","1","1","8","476","2","right","out","Female","Right-handed","3","0","no","right","d","557.633345905","407.550088901","9","red","1"
"87","100","20","479.161414997","1","1","8","477","0","left","out","Female","Right-handed","3","0","no","left","d","509.219205813","455.434090985","9","red","1"
"88","100","20","475.799700554","1","1","8","478","2","left","out","Female","Right-handed","3","0","no","left","s","394.835115212","502.97685481","9","red","3"
"90","100","20","471.520893146","1","1","8","479","0","right","out","Female","Right-handed","3","0","no","right","d","498.550699538","367.472553413","9","green","2"
"90","100","20","460.03117152","1","1","8","480","2","right","out","Female","Right-handed","3","0","no","right","d","347.082284603","343.185625915","9","red","2"
"91","100","20","470.923843788","1","1","8","481","0","left","in","Female","Right-handed","3","0","no","left","s","702.662812984","478.823664489","9","red","2"
"92","92","20","473.465222216","1","0","8","482","0","left","out","Female","Right-handed","3","0","no","left","d","425.452589691","582.470937021","9","red","3"
"92","92","20","466.258727049","1","1","8","483","3","left","in","Female","Right-handed","3","0","no","left","d","370.019011845","375.12956791","9","red","2"
"93","93","20","469.087630241","1","1","8","484","1","right","in","Female","Right-handed","3","0","no","right","d","658.713955107","358.670594755","9","red","1"
"93","93","20","469.789229251","1","1","8","485","2","left","out","Female","Right-handed","3","0","no","left","d","401.413252359","559.213176415","9","green","2"
"94","94","20","469.214953163","1","1","8","486","2","left","out","Female","Right-handed","3","0","no","left","s","505.055393489","414.997678039","9","green","1"
"94","94","20","465.734730942","1","1","8","487","2","left","in","Female","Right-handed","3","0","no","left","d","430.520170261","382.621736107","9","green","1"
"94","94","20","465.920753187","1","1","8","488","0","right","in","Female","Right-handed","3","0","no","right","d","611.236937375","327.301369829","9","red","2"
"95","95","20","463.543406533","1","1","8","489","2","left","out","Female","Right-handed","3","0","no","left","s","421.807690432","414.939949764","9","green","0"
"95","95","20","459.688275552","1","1","8","490","0","left","in","Female","Right-handed","3","0","no","left","s","374.521817439","390.649494428","9","red","3"
"95","95","20","465.756664934","1","1","8","491","1","right","out","Female","Right-handed","3","0","no","right","s","779.162080474","407.223603425","9","green","1"
"95","95","20","465.673253658","1","1","8","492","3","right","in","Female","Right-handed","3","0","no","right","d","480.813686476","446.862724723","9","green","3"
"95","95","20","463.789838123","1","1","8","493","2","right","out","Female","Right-handed","3","0","no","right","s","386.408390357","454.534171291","9","green","3"
"96","96","20","465.827675962","1","1","8","494","1","left","out","Female","Right-handed","3","0","no","left","s","550.216865893","479.25470229","9","red","2"
"96","96","20","463.151602991","1","1","8","495","1","left","out","Female","Right-handed","3","0","no","left","s","465.764566128","326.734991289","9","red","3"
"96","96","20","462.898184947","1","1","8","496","2","left","out","Female","Right-handed","3","0","no","left","d","378.302698862","534.315932748","9","red","3"
"96","92","20","460.757628883","1","0","8","497","2","right","out","Female","Right-handed","3","0","no","right","d","414.949250431","390.975979907","9","red","3"
"96","93","20","458.784841448","1","1","8","498","3","left","out","Female","Right-handed","3","0","no","left","s","392.561583243","414.532003273","9","red","2"
"96","93","20","456.585641823","1","1","8","499","2","right","in","Female","Right-handed","3","0","no","right","s","395.25236237","390.365343021","9","green","2"
"96","90","20","455.273253591","1","0","8","500","1","right","in","Female","Right-handed","3","0","no","right","d","312.909068985","518.894144301","9","red","3"
"96","90","20","454.640367267","1","1","8","501","0","right","out","Female","Right-handed","3","0","no","right","s","335.632843027","534.408939417","9","red","3"
"96","87","20","455.401606681","1","0","8","502","1","right","out","Female","Right-handed","3","0","no","right","s","520.285395773","439.237140063","9","green","0"
"97","88","20","457.928061021","1","1","8","503","3","right","in","Female","Right-handed","3","0","no","right","d","699.84182452","382.760283972","9","red","1"
"97","88","20","458.640108727","1","1","8","504","2","right","out","Female","Right-handed","3","0","no","right","s","455.336915053","510.362546407","9","red","1"
"97","88","20","459.566687278","1","1","8","505","1","right","in","Female","Right-handed","3","0","no","right","d","432.964642072","551.029231034","9","green","0"
"97","89","20","460.094799885","1","1","8","506","1","left","in","Female","Right-handed","3","0","no","left","d","495.495911555","462.717795959","9","green","3"
"97","89","20","461.245859937","1","1","8","507","2","right","in","Female","Right-handed","3","0","no","right","s","425.359583023","582.310580696","9","red","3"
"97","89","20","461.37601647","1","1","8","508","0","right","in","Female","Right-handed","3","0","no","right","d","429.753346316","502.890583108","9","red","0"
"97","90","20","464.4425044","1","1","8","509","1","left","out","Female","Right-handed","3","0","no","left","s","609.507334056","558.5637333","9","green","1"
"97","87","20","463.130349761","1","0","8","510","0","left","in","Female","Right-handed","3","0","no","left","s","407.062605674","414.225722694","9","green","1"
"97","88","20","464.620064859","1","1","8","511","3","left","in","Female","Right-handed","3","0","no","left","d","476.720430935","574.676336795","9","green","3"
"97","88","20","466.616315527","1","1","8","512","0","right","out","Female","Right-handed","3","0","no","right","d","694.38554022","406.532146954","9","red","3"
"97","88","20","468.535548927","1","1","8","513","1","left","in","Female","Right-handed","3","0","no","left","s","439.031242542","663.093927755","9","green","3"
"97","88","20","467.693923536","1","1","8","514","3","left","out","Female","Right-handed","3","0","no","left","s","422.544046674","438.780765964","9","green","3"
"97","89","20","467.826466095","1","1","8","515","0","right","in","Female","Right-handed","3","0","no","right","s","445.303099112","502.278663373","9","red","1"
"97","87","20","471.180716992","1","0","8","516","1","left","out","Female","Right-handed","3","0","no","left","d","635.969014027","614.983502541","9","green","2"
"97","87","20","472.761146422","1","1","8","517","0","right","in","Female","Right-handed","3","0","no","right","d","439.548552046","654.534107149","9","green","3"
"97","87","20","474.859859045","1","1","8","518","1","right","in","Female","Right-handed","3","0","no","right","d","417.154791317","734.041338579","9","green","3"
"98","88","20","473.539108983","1","1","8","519","3","right","in","Female","Right-handed","3","0","no","right","d","426.791244288","390.853467674","9","red","1"
"98","88","20","474.920101046","1","1","8","520","3","left","out","Female","Right-handed","3","0","no","left","d","505.491241978","582.448166422","9","red","0"
"98","88","20","472.932062107","1","1","8","521","0","left","out","Female","Right-handed","3","0","no","left","d","360.974594427","382.109558006","9","green","2"
"98","86","20","472.815491205","1","0","8","522","1","right","out","Female","Right-handed","3","0","no","right","s","383.673994309","549.833614277","9","green","2"
"98","87","20","472.167923789","1","1","8","523","3","left","in","Female","Right-handed","3","0","no","left","s","525.252593283","350.441108177","9","red","3"
"98","87","20","470.646748545","1","1","8","524","3","left","in","Female","Right-handed","3","0","no","left","s","393.938723356","383.067847402","9","green","2"
"98","87","20","469.520598045","1","1","8","525","3","right","in","Female","Right-handed","3","0","no","right","d","400.630713497","414.533927551","9","green","2"
"98","87","20","467.910257534","1","1","8","526","3","right","in","Female","Right-handed","3","0","no","right","d","357.268759766","398.193618075","9","green","3"
"96","87","20","468.374050127","0","1","8","527","3","left","in","Female","Right-handed","3","0","no","right","s","444.737361999","544.883093824","9","green","1"
"96","86","20","469.901870735","1","0","8","528","2","left","out","Female","Right-handed","3","0","no","left","d","678.544901053","438.48603104","9","green","0"
"96","86","20","470.037712066","1","1","8","529","1","left","in","Female","Right-handed","3","0","no","left","d","597.917741055","358.18696008","9","green","3"
"96","86","20","468.337709431","1","1","8","530","2","right","out","Female","Right-handed","3","0","no","right","s","397.814215012","334.860887682","9","green","3"
"96","87","20","468.831171337","1","1","8","531","3","right","out","Female","Right-handed","3","0","no","right","s","591.389314368","406.475380815","9","green","1"
"96","87","20","467.928681632","1","1","8","532","3","left","in","Female","Right-handed","3","0","no","left","s","425.90030455","398.048335244","9","red","3"
"96","87","20","467.151352678","1","1","8","533","3","right","out","Female","Right-handed","3","0","no","right","d","438.661781572","397.697475606","9","red","0"
dis_reply=No
dis_loc=0
tar_loc=2
