"acc_1","acc_2","age","avg_rt","correct_1","correct_2","count_block_loop","count_trial_sequence","cue_position","detection","dis_shape","gender","hand","high_loc","low_loc","practice","response_keyboard_response_1","response_keyboard_response_2","response_time_keyboard_response_1","response_time_keyboard_response_2","subject_nr","tar_color","tar_position"
"100","0","19","1154.49420905","1","0","0","0","0","right","out","Female","Right-handed","3","2","yes","right","s","1109.22883109","1199.75958701","35","red","3"
"50","50","19","1402.90366995","0","1","0","1","3","left","out","Female","Right-handed","3","2","yes","right","d","1456.80680494","1845.81945677","35","red","2"
"66","33","19","1509.04884207","1","0","0","2","2","right","in","Female","Right-handed","3","2","yes","right","s","2385.42602105","1057.25235153","35","green","2"
"75","25","19","1423.36551401","1","0","0","3","2","right","out","Female","Right-handed","3","2","yes","right","s","1266.86226414","1065.76879558","35","green","1"
"80","40","19","1334.94028803","1","1","0","4","1","left","in","Female","Right-handed","3","2","yes","left","d","1017.22628327","945.252484951","35","green","3"
"83","50","19","1245.51532173","1","1","0","5","2","right","in","Female","Right-handed","3","2","yes","right","d","722.937182163","873.843798272","35","green","3"
"85","57","19","1206.0139809","1","1","0","6","2","left","out","Female","Right-handed","3","2","yes","left","s","784.557763262","1153.45410857","35","green","0"
"87","62","19","1211.5304142","1","1","0","7","0","left","in","Female","Right-handed","3","2","yes","left","s","1434.16000421","1066.13089038","35","green","2"
"88","66","19","1172.48193909","1","1","0","8","0","right","out","Female","Right-handed","3","2","yes","right","s","854.608514266","865.579762201","35","green","1"
"90","60","19","1160.69335862","1","0","0","9","1","right","in","Female","Right-handed","3","2","yes","right","d","1188.09141082","921.100857995","35","green","1"
"90","63","19","1120.70129415","1","1","0","10","1","left","in","Female","Right-handed","3","2","yes","left","s","727.748007677","713.813291219","35","red","1"
"91","66","19","1095.17619595","1","1","0","11","0","right","in","Female","Right-handed","3","2","yes","right","d","827.436009608","801.364221825","35","red","0"
"92","69","19","1090.6922393","1","1","0","12","3","left","out","Female","Right-handed","3","2","yes","left","s","1119.96402786","953.805491266","35","red","0"
"85","71","19","1076.28556941","0","1","0","13","2","left","in","Female","Right-handed","3","2","yes","right","d","893.399483255","884.598238339","35","red","2"
"86","73","19","1057.1033763","1","1","0","14","0","right","in","Female","Right-handed","3","2","yes","right","d","696.075456835","881.029888697","35","red","3"
"87","75","19","1038.67108923","1","1","0","15","1","right","out","Female","Right-handed","3","2","yes","right","d","778.684707475","745.6888589","35","green","0"
"88","70","19","1025.72860613","1","0","0","16","3","left","out","Female","Right-handed","3","2","yes","left","d","876.159729669","761.138023223","35","red","2"
"88","72","19","1022.75471468","1","1","0","17","3","right","out","Female","Right-handed","3","2","yes","right","s","950.715979125","993.681141052","35","red","1"
"89","68","19","1005.55187832","1","0","0","18","2","left","out","Female","Right-handed","3","2","yes","left","d","646.330238156","745.471409584","35","red","3"
"90","70","19","989.503388104","1","1","0","19","1","left","in","Female","Right-handed","3","2","yes","left","d","640.041527047","729.122620884","35","red","3"
"90","71","19","996.935443059","1","1","0","20","2","right","in","Female","Right-handed","3","2","yes","right","s","1065.60137885","1225.55170547","35","red","1"
"90","72","19","989.443102629","1","1","0","21","1","left","in","Female","Right-handed","3","2","yes","left","s","927.013362547","737.194544654","35","green","2"
"100","100","19","678.630601724","1","1","1","22","1","left","in","Female","Right-handed","3","2","no","left","s","635.480864461","721.780338987","35","green","3"
"100","100","19","749.056757478","1","1","1","23","0","left","out","Female","Right-handed","3","2","no","left","s","909.499391913","729.46643455","35","red","1"
"100","66","19","695.263710211","1","0","1","24","3","right","in","Female","Right-handed","3","2","no","right","d","485.147698757","690.2075326","35","red","3"
"100","75","19","719.870521442","1","1","1","25","0","right","in","Female","Right-handed","3","2","no","right","s","809.733454607","777.648455663","35","green","3"
"100","80","19","702.15524983","1","1","1","26","2","right","out","Female","Right-handed","3","2","no","right","s","605.224941373","657.363385388","35","green","3"
"100","66","19","716.100090401","1","0","1","27","2","right","in","Female","Right-handed","3","2","no","right","d","857.865763854","713.782822659","35","green","0"
"100","71","19","758.58345197","1","1","1","28","0","left","out","Female","Right-handed","3","2","no","left","s","1225.49525845","801.47198432","35","green","2"
"100","75","19","821.963835903","1","1","1","29","3","right","in","Female","Right-handed","3","2","no","right","s","1842.16515372","689.087893141","35","red","2"
"100","77","19","810.204220613","1","1","1","30","3","left","in","Female","Right-handed","3","2","no","left","d","670.601815029","761.652781555","35","red","3"
"100","80","19","825.064192449","1","1","1","31","1","right","in","Female","Right-handed","3","2","no","right","d","1116.36424748","801.243630467","35","red","0"
"100","81","19","837.628093332","1","1","1","32","0","right","out","Female","Right-handed","3","2","no","right","s","892.777924597","1033.75627973","35","red","2"
"100","83","19","834.570878106","1","1","1","33","2","left","out","Female","Right-handed","3","2","no","left","s","808.405987489","793.47703376","35","red","0"
"100","84","19","908.212385068","1","1","1","34","1","right","in","Female","Right-handed","3","2","no","right","d","2533.99810389","1049.82283333","35","red","1"
"100","85","19","951.040858754","1","1","1","35","2","left","in","Female","Right-handed","3","2","no","left","d","2366.34981501","649.272218317","35","red","2"
"100","86","19","949.564246116","1","1","1","36","0","left","out","Female","Right-handed","3","2","no","left","d","1152.80817507","704.975163313","35","green","3"
"100","87","19","933.092482027","1","1","1","37","3","right","in","Female","Right-handed","3","2","no","right","s","666.390097653","705.641943729","35","green","3"
"100","88","19","931.621906998","1","1","1","38","2","right","in","Female","Right-handed","3","2","no","right","s","1079.04507038","737.140342684","35","green","1"
"100","88","19","930.00802125","1","1","1","39","1","left","out","Female","Right-handed","3","2","no","left","d","1011.62616166","793.517765418","35","red","2"
"100","89","19","930.442696215","1","1","1","40","3","left","in","Female","Right-handed","3","2","no","left","d","1019.30905","857.224641179","35","green","1"
"100","90","19","928.216974966","1","1","1","41","1","left","in","Female","Right-handed","3","2","no","left","d","1153.92428658","617.932255882","35","green","1"
"100","90","19","916.701907873","1","1","1","42","2","left","out","Female","Right-handed","3","2","no","left","d","723.439111629","649.362020391","35","red","1"
"100","90","19","916.465117375","1","1","1","43","2","right","in","Female","Right-handed","3","2","no","right","s","910.076370248","912.908663591","35","green","3"
"100","86","19","919.604105595","1","0","1","44","2","right","out","Female","Right-handed","3","2","no","right","s","839.700407443","1137.62328542","35","red","2"
"100","87","19","919.480124289","1","1","1","45","1","left","in","Female","Right-handed","3","2","no","left","d","1144.08967635","689.167432123","35","red","0"
"100","88","19","910.97058084","1","1","1","46","3","right","out","Female","Right-handed","3","2","no","right","s","611.684917869","801.798158289","35","red","3"
"100","88","19","910.755553963","1","1","1","47","0","right","out","Female","Right-handed","3","2","no","right","d","817.468299869","993.291464183","35","green","3"
"100","88","19","904.63195308","1","1","1","48","3","left","out","Female","Right-handed","3","2","no","left","d","585.958226638","904.878433648","35","green","3"
"100","89","19","901.538896029","1","1","1","49","1","right","out","Female","Right-handed","3","2","no","right","s","970.570897458","665.481813798","35","green","0"
"100","89","19","898.385793303","1","1","1","50","1","left","in","Female","Right-handed","3","2","no","left","d","603.075464533","1017.12236944","35","green","3"
"100","90","19","905.278218592","1","1","1","51","0","left","out","Female","Right-handed","3","2","no","left","s","1513.66402734","696.653076622","35","red","1"
"100","87","19","901.420463998","1","0","1","52","0","right","in","Female","Right-handed","3","2","no","right","d","810.217102935","761.158549416","35","red","3"
"100","87","19","897.761729354","1","1","1","53","0","right","out","Female","Right-handed","3","2","no","right","d","807.817142446","760.864768334","35","green","3"
"100","87","19","889.783997239","1","1","1","54","0","right","out","Female","Right-handed","3","2","no","right","d","547.467132437","721.526006684","35","green","0"
"100","85","19","882.967415657","1","0","1","55","0","left","out","Female","Right-handed","3","2","no","left","d","610.987348173","705.053098685","35","green","0"
"100","85","19","878.156497162","1","1","1","56","0","right","out","Female","Right-handed","3","2","no","right","s","755.627062241","673.543474466","35","green","0"
"100","86","19","877.298091257","1","1","1","57","3","left","in","Female","Right-handed","3","2","no","left","s","1173.33596753","521.171801636","35","red","1"
"100","86","19","883.527703976","1","1","1","58","1","right","out","Female","Right-handed","3","2","no","right","d","1462.78217095","752.805352717","35","red","3"
"100","84","19","885.588415951","1","0","1","59","0","right","out","Female","Right-handed","3","2","no","right","s","1138.43503205","785.234486048","35","red","1"
"100","84","19","891.16170104","1","1","1","60","3","left","out","Female","Right-handed","3","2","no","left","s","1556.95985334","648.933215478","35","green","1"
"100","85","19","887.634033608","1","1","1","61","2","right","out","Female","Right-handed","3","2","no","right","d","778.621846024","721.488161518","35","red","0"
"100","85","19","885.606986314","1","1","1","62","1","right","out","Female","Right-handed","3","2","no","right","s","815.971812412","793.078376686","35","green","3"
"100","85","19","883.977893845","1","1","1","63","3","left","in","Female","Right-handed","3","2","no","left","d","913.811495182","720.558710032","35","green","0"
"100","83","19","889.590021748","1","0","1","64","2","left","out","Female","Right-handed","3","2","no","left","d","865.372575983","1385.22621143","35","red","3"
"100","84","19","891.683352456","1","1","1","65","3","right","out","Female","Right-handed","3","2","no","right","d","738.659922103","1224.73322369","35","red","2"
"100","84","19","887.998405087","1","1","1","66","3","left","out","Female","Right-handed","3","2","no","left","d","610.381504877","841.339936778","35","red","3"
"100","84","19","886.541072793","1","1","1","67","1","right","in","Female","Right-handed","3","2","no","right","s","753.026971412","888.895267686","35","green","0"
"100","85","19","893.252821314","1","1","1","68","1","right","in","Female","Right-handed","3","2","no","right","d","1459.62498653","944.361520065","35","green","1"
"100","83","19","891.583516893","1","0","1","69","2","left","in","Female","Right-handed","3","2","no","left","s","833.167947843","793.084470399","35","red","1"
"100","83","19","896.655626684","1","1","1","70","1","right","in","Female","Right-handed","3","2","no","right","d","1119.62662862","1160.60716467","35","red","1"
"100","84","19","899.017193249","1","1","1","71","3","right","in","Female","Right-handed","3","2","no","right","d","1180.28376173","849.184148137","35","red","1"
"100","84","19","893.394068716","1","1","1","72","3","right","out","Female","Right-handed","3","2","no","right","s","679.710632056","544.765052109","35","green","0"
"100","84","19","891.683640657","1","1","1","73","1","left","out","Female","Right-handed","3","2","no","left","d","712.366515629","896.537103654","35","green","3"
"100","84","19","888.744616233","1","1","1","74","2","left","out","Female","Right-handed","3","2","no","left","s","622.861427699","848.9692646","35","green","0"
"100","85","19","887.195038801","1","1","1","75","1","right","in","Female","Right-handed","3","2","no","right","d","865.69586346","744.43900643","35","green","2"
"100","85","19","883.829932012","1","1","1","76","2","left","in","Female","Right-handed","3","2","no","left","s","643.035464123","761.192866634","35","green","3"
"100","85","19","879.782077966","1","1","1","77","2","right","in","Female","Right-handed","3","2","no","right","d","657.618359135","656.681851768","35","red","3"
"100","85","19","879.119574593","1","1","1","78","0","left","in","Female","Right-handed","3","2","no","left","d","731.509111061","952.529660342","35","red","3"
"100","86","19","877.97942442","1","1","1","79","1","left","out","Female","Right-handed","3","2","no","left","d","673.084521713","952.897207411","35","red","3"
"100","86","19","876.438828217","1","1","1","80","0","left","in","Female","Right-handed","3","2","no","left","s","965.680212241","608.488284677","35","green","0"
"100","86","19","878.883629766","1","1","1","81","3","left","in","Female","Right-handed","3","2","no","left","s","1101.15498299","945.098859258","35","green","0"
"100","86","19","876.856019111","1","1","1","82","0","left","in","Female","Right-handed","3","2","no","left","s","773.820962881","736.577796823","35","red","1"
"100","87","19","873.833426543","1","1","1","83","2","right","out","Female","Right-handed","3","2","no","right","s","626.504826221","752.405733478","35","red","3"
"100","87","19","877.476584974","1","1","1","84","2","left","in","Female","Right-handed","3","2","no","left","s","1405.98716857","800.717646878","35","red","1"
"100","87","19","875.695452435","1","1","1","85","3","left","out","Female","Right-handed","3","2","no","left","d","750.427522027","776.540682906","35","green","0"
"100","100","19","644.418897178","1","1","2","86","2","left","out","Female","Right-handed","3","2","no","left","d","647.910433974","640.927360382","35","green","3"
"100","100","19","653.466295998","1","1","2","87","2","right","out","Female","Right-handed","3","2","no","right","d","707.475509691","617.551879943","35","red","3"
"100","100","19","688.730181537","1","1","2","88","0","right","in","Female","Right-handed","3","2","no","right","d","757.225218476","761.290686754","35","red","3"
"100","100","19","706.235359055","1","1","2","89","3","right","out","Female","Right-handed","3","2","no","right","s","667.828855203","849.672928012","35","red","2"
"100","100","19","847.943211733","1","1","2","90","1","right","in","Female","Right-handed","3","2","no","right","d","2036.27683158","793.272413313","35","green","0"
"100","100","19","886.66991344","1","1","2","91","1","left","in","Female","Right-handed","3","2","no","left","s","1359.81190314","800.794940809","35","green","1"
"100","100","19","873.981387879","1","1","2","92","1","left","in","Female","Right-handed","3","2","no","left","d","794.396222158","801.30424687","35","green","1"
"100","100","19","873.925301672","1","1","2","93","3","right","out","Female","Right-handed","3","2","no","right","s","1026.01534076","721.050055679","35","green","1"
"100","100","19","879.27247632","1","1","2","94","0","right","in","Female","Right-handed","3","2","no","right","d","1010.69510656","833.40464046","35","green","3"
"100","100","19","882.861321861","1","1","2","95","2","left","in","Female","Right-handed","3","2","no","left","s","1013.19160427","817.130259191","35","red","0"
"100","100","19","889.252916119","1","1","2","96","1","right","out","Female","Right-handed","3","2","no","right","d","753.687658118","1152.65005927","35","green","3"
"100","100","19","872.710554866","1","1","2","97","0","right","in","Female","Right-handed","3","2","no","right","s","764.236194856","617.252967317","35","red","0"
"100","100","19","878.150103875","1","1","2","98","1","left","out","Female","Right-handed","3","2","no","left","d","1221.93428541","664.915098554","35","red","2"
"100","100","19","890.632823319","1","1","2","99","0","right","in","Female","Right-handed","3","2","no","right","s","1224.41250199","881.403850199","35","green","1"
"100","100","19","891.522876438","1","1","2","100","0","left","out","Female","Right-handed","3","2","no","left","s","1038.97634613","768.99089407","35","green","2"
"100","100","19","890.721156375","1","1","2","101","0","right","in","Female","Right-handed","3","2","no","right","s","1196.68611095","560.70459992","35","green","1"
"100","100","19","883.509831517","1","1","2","102","2","left","in","Female","Right-handed","3","2","no","left","d","839.090074049","697.167193503","35","green","0"
"100","100","19","885.827912068","1","1","2","103","0","right","out","Female","Right-handed","3","2","no","right","d","1041.77271864","808.697844237","35","red","1"
"100","100","19","883.56477174","1","1","2","104","1","left","in","Female","Right-handed","3","2","no","left","s","996.406954786","689.249536877","35","green","3"
"100","100","19","893.185674132","1","1","2","105","2","left","out","Female","Right-handed","3","2","no","left","d","662.922775344","1489.04286381","35","green","2"
"100","100","19","885.180905672","1","1","2","106","2","right","in","Female","Right-handed","3","2","no","right","d","785.645009826","664.52606313","35","green","0"
"100","95","19","893.721524287","1","0","2","107","2","right","in","Female","Right-handed","3","2","no","right","d","921.031582107","1225.11744829","35","red","1"
"100","95","19","882.952127239","1","1","2","108","3","right","out","Female","Right-handed","3","2","no","right","s","643.530979152","648.519805207","35","red","3"
"100","95","19","883.130148118","1","1","2","109","3","left","out","Female","Right-handed","3","2","no","left","s","1157.22643722","617.222819477","35","green","1"
"100","96","19","870.814658778","1","1","2","110","3","right","out","Female","Right-handed","3","2","no","right","s","661.726162682","488.75966655","35","red","3"
"100","96","19","867.497418931","1","1","2","111","3","left","out","Female","Right-handed","3","2","no","left","d","936.543928612","632.588916884","35","red","1"
"100","96","19","871.552936614","1","1","2","112","1","left","in","Female","Right-handed","3","2","no","left","d","792.962275431","1161.03051731","35","red","2"
"100","96","19","866.285876846","1","1","2","113","0","left","in","Female","Right-handed","3","2","no","left","d","679.539045945","768.611480296","35","green","3"
"100","96","19","869.231283832","1","1","2","114","0","right","in","Female","Right-handed","3","2","no","right","s","638.237467479","1265.1678914","35","green","3"
"100","96","19","869.118717704","1","1","2","115","3","left","out","Female","Right-handed","3","2","no","left","s","834.815495222","896.893104738","35","green","0"
"100","96","19","869.450505855","1","1","2","116","1","right","out","Female","Right-handed","3","2","no","right","s","806.43002109","952.3782797","35","green","0"
"100","96","19","867.047339606","1","1","2","117","2","right","out","Female","Right-handed","3","2","no","right","s","712.067603006","873.030768758","35","red","0"
"100","96","19","867.604930228","1","1","2","118","3","left","in","Female","Right-handed","3","2","no","left","s","994.457608289","776.438051962","35","red","0"
"100","97","19","865.321486905","1","1","2","119","0","left","out","Female","Right-handed","3","2","no","left","d","738.845299246","841.090415295","35","red","3"
"100","97","19","863.619291246","1","1","2","120","2","left","in","Female","Right-handed","3","2","no","left","d","898.739499571","712.74977806","35","red","3"
"100","97","19","867.956105102","1","1","2","121","2","right","in","Female","Right-handed","3","2","no","right","d","758.332349789","1281.15683035","35","red","3"
"100","97","19","865.777621489","1","1","2","122","0","left","out","Female","Right-handed","3","2","no","left","d","637.844904115","936.859518762","35","red","0"
"100","97","19","862.741556613","1","1","2","123","1","left","out","Female","Right-handed","3","2","no","left","d","548.342702685","952.471609718","35","green","3"
"100","97","19","856.618329137","1","1","2","124","3","right","in","Female","Right-handed","3","2","no","right","s","534.852827226","713.018542847","35","green","3"
"100","97","19","851.881742372","1","1","2","125","3","left","out","Female","Right-handed","3","2","no","left","d","541.782981734","792.52673536","35","red","3"
"100","97","19","850.136468649","1","1","2","126","2","left","in","Female","Right-handed","3","2","no","left","s","864.233372507","696.417666892","35","red","1"
"100","97","19","850.795442508","1","1","2","127","1","left","out","Female","Right-handed","3","2","no","left","d","586.898261943","1168.72847957","35","green","0"
"100","97","19","845.796420752","1","1","2","128","3","right","out","Female","Right-handed","3","2","no","right","s","583.183342485","688.491671499","35","green","0"
"100","97","19","842.209606473","1","1","2","129","0","right","out","Female","Right-handed","3","2","no","right","s","655.089789248","720.863395647","35","green","3"
"100","97","19","837.707692247","1","1","2","130","1","left","in","Female","Right-handed","3","2","no","left","s","622.63147024","656.61546238","35","green","1"
"100","97","19","833.482021541","1","1","2","131","0","left","in","Female","Right-handed","3","2","no","left","s","670.331446632","616.322232941","35","red","0"
"100","95","19","836.340533731","1","0","2","132","3","left","out","Female","Right-handed","3","2","no","left","d","1078.7705326","856.893656382","35","red","1"
"100","95","19","831.946980373","1","1","2","133","2","right","in","Female","Right-handed","3","2","no","right","s","658.436199472","592.463745619","35","red","3"
"100","95","19","831.152879578","1","1","2","134","1","right","out","Female","Right-handed","3","2","no","right","s","929.068226484","657.003856355","35","red","1"
"100","96","19","825.975266584","1","1","2","135","0","right","in","Female","Right-handed","3","2","no","right","s","543.750930094","600.793529633","35","red","0"
"100","94","19","824.951787353","1","0","2","136","1","left","out","Female","Right-handed","3","2","no","left","s","635.337822583","912.217829049","35","red","0"
"100","94","19","826.265282883","1","1","2","137","3","right","in","Female","Right-handed","3","2","no","right","d","561.67414162","1224.83296814","35","red","3"
"100","94","19","824.125741085","1","1","2","138","1","left","in","Female","Right-handed","3","2","no","left","d","673.30998907","752.429146163","35","red","3"
"100","94","19","821.122840498","1","1","2","139","3","right","in","Female","Right-handed","3","2","no","right","s","651.04163994","672.896578795","35","red","0"
"100","94","19","819.887529897","1","1","2","140","1","left","in","Female","Right-handed","3","2","no","left","s","625.727076094","880.63443884","35","red","3"
"100","94","19","819.376029861","1","1","2","141","0","left","out","Female","Right-handed","3","2","no","left","d","726.328493431","856.158562245","35","red","1"
"100","94","19","819.455187684","1","1","2","142","3","left","in","Female","Right-handed","3","2","no","left","d","774.778317162","872.997734423","35","green","2"
"100","94","19","818.276001528","1","1","2","143","2","right","out","Female","Right-handed","3","2","no","right","d","574.586718016","927.538063254","35","green","2"
"100","94","19","817.729552154","1","1","2","144","2","right","in","Female","Right-handed","3","2","no","right","s","572.026075959","1000.04490104","35","green","3"
"100","95","19","815.109667044","1","1","2","145","3","right","out","Female","Right-handed","3","2","no","right","d","528.479445587","792.593445476","35","red","3"
"100","95","19","813.429414685","1","1","2","146","0","left","out","Female","Right-handed","3","2","no","left","d","801.151583339","624.076962944","35","green","2"
"100","93","19","810.354684784","1","0","2","147","2","left","in","Female","Right-handed","3","2","no","left","d","676.897261292","568.695060374","35","green","1"
"100","92","19","808.252903967","1","0","2","148","1","right","out","Female","Right-handed","3","2","no","right","s","763.424448232","592.460538402","35","green","3"
"100","92","19","809.015699488","1","1","2","149","2","right","out","Female","Right-handed","3","2","no","right","d","978.005226483","736.138408094","35","green","1"
"100","100","19","653.01969103","1","1","3","150","2","left","in","Female","Right-handed","3","2","no","left","s","537.425977433","768.613404627","35","red","3"
"100","50","19","616.088988085","1","0","3","151","0","right","in","Female","Right-handed","3","2","no","right","d","541.145066272","617.171504007","35","red","3"
"66","66","19","907.088152712","0","1","3","152","2","right","in","Female","Right-handed","3","2","no","left","d","1766.67335906","1211.49960487","35","red","3"
"75","75","19","882.008009704","1","1","3","153","0","left","out","Female","Right-handed","3","2","no","left","s","812.182485515","801.352675844","35","red","1"
"80","80","19","917.866924869","1","1","3","154","2","right","in","Female","Right-handed","3","2","no","right","d","1169.83047934","952.774691723","35","green","1"
"83","83","19","903.550458718","1","1","3","155","0","left","out","Female","Right-handed","3","2","no","left","d","791.53442242","872.401833501","35","red","2"
"85","85","19","861.890615024","1","1","3","156","3","left","in","Female","Right-handed","3","2","no","left","s","598.91666624","624.946439475","35","green","3"
"87","87","19","838.410965892","1","1","3","157","1","right","in","Female","Right-handed","3","2","no","right","s","659.654941937","688.451902006","35","green","1"
"88","88","19","823.071414887","1","1","3","158","0","left","in","Female","Right-handed","3","2","no","left","s","727.314712658","673.395301041","35","red","3"
"90","90","19","801.697948792","1","1","3","159","3","left","in","Female","Right-handed","3","2","no","left","s","633.783284498","584.890223377","35","red","2"
"90","90","19","797.671330116","1","1","3","160","1","right","out","Female","Right-handed","3","2","no","right","d","626.406685377","888.403601322","35","red","1"
"91","91","19","790.77965735","1","1","3","161","2","left","in","Female","Right-handed","3","2","no","left","s","844.967299214","584.975214628","35","red","3"
"92","92","19","782.152646556","1","1","3","162","1","left","out","Female","Right-handed","3","2","no","left","s","636.670421249","720.586612821","35","red","3"
"92","92","19","769.798528584","1","1","3","163","1","right","out","Female","Right-handed","3","2","no","right","s","569.169728489","649.220261403","35","green","1"
"93","93","19","765.434165243","1","1","3","164","1","left","out","Female","Right-handed","3","2","no","left","d","751.847356998","656.818799936","35","red","3"
"93","87","19","806.178916044","1","0","3","165","1","right","in","Female","Right-handed","3","2","no","right","s","1450.4023133","1384.29804283","35","red","3"
"94","88","19","798.927048189","1","1","3","166","2","right","out","Female","Right-handed","3","2","no","right","d","684.879703705","680.914621316","35","red","1"
"94","88","19","803.102978892","1","1","3","167","3","left","out","Female","Right-handed","3","2","no","left","s","899.65932941","848.528272258","35","green","1"
"94","89","19","808.312100431","1","1","3","168","0","right","out","Female","Right-handed","3","2","no","right","s","1051.09353271","753.059043582","35","green","2"
"95","85","19","819.610063349","1","0","3","169","2","right","in","Female","Right-handed","3","2","no","right","d","1059.85949824","1008.68321933","35","red","2"
"95","85","19","822.164314646","1","1","3","170","3","right","in","Female","Right-handed","3","2","no","right","d","562.187937787","1184.31074341","35","green","3"
"95","86","19","811.103759943","1","1","3","171","0","left","out","Female","Right-handed","3","2","no","left","s","612.807123103","544.857099237","35","green","3"
"95","86","19","811.122549101","1","1","3","172","3","right","out","Female","Right-handed","3","2","no","right","s","806.52591688","816.545904254","35","red","0"
"95","87","19","800.477225873","1","1","3","173","3","right","out","Female","Right-handed","3","2","no","right","s","510.169122969","601.100460299","35","green","3"
"96","88","19","802.588076593","1","1","3","174","3","left","in","Female","Right-handed","3","2","no","left","d","833.782129899","872.71485788","35","green","1"
"96","84","19","800.243916255","1","0","3","175","1","left","in","Female","Right-handed","3","2","no","left","d","691.111326349","792.168489221","35","green","0"
"96","85","19","802.522852728","1","1","3","176","2","right","in","Female","Right-handed","3","2","no","right","d","866.668612376","856.881789678","35","red","0"
"96","85","19","796.235131571","1","1","3","177","3","right","out","Female","Right-handed","3","2","no","right","s","596.573794213","656.35952646","35","red","0"
"96","86","19","795.552340941","1","1","3","178","3","right","out","Female","Right-handed","3","2","no","right","d","655.966963099","896.901443502","35","green","0"
"96","86","19","794.990866915","1","1","3","179","0","right","out","Female","Right-handed","3","2","no","right","d","692.738347541","864.67789278","35","green","3"
"96","83","19","800.724423417","1","0","3","180","2","left","out","Female","Right-handed","3","2","no","left","s","729.234873481","1216.22736346","35","green","3"
"96","84","19","799.945333988","1","1","3","181","2","left","in","Female","Right-handed","3","2","no","left","d","710.82288208","840.764241326","35","red","1"
"96","84","19","801.150771816","1","1","3","182","0","right","out","Female","Right-handed","3","2","no","right","s","551.241064692","1128.2084999","35","red","3"
"97","85","19","797.789613394","1","1","3","183","3","left","in","Female","Right-handed","3","2","no","left","s","724.732902967","649.009867968","35","red","1"
"97","85","19","796.296218746","1","1","3","184","1","right","out","Female","Right-handed","3","2","no","right","d","778.620883859","712.420717595","35","red","3"
"97","86","19","791.960750648","1","1","3","185","1","right","in","Female","Right-handed","3","2","no","right","s","648.237249388","632.20148507","35","green","0"
"97","86","19","791.696837621","1","1","3","186","0","left","out","Female","Right-handed","3","2","no","left","d","539.619713865","1024.77222345","35","green","0"
"97","86","19","798.320593986","1","1","3","187","0","left","in","Female","Right-handed","3","2","no","left","s","1358.47834231","728.320816634","35","green","0"
"97","87","19","797.517502194","1","1","3","188","2","right","in","Female","Right-handed","3","2","no","right","d","637.028667388","896.971360835","35","red","3"
"97","87","19","799.619616045","1","1","3","189","0","right","in","Female","Right-handed","3","2","no","right","d","602.558140428","1160.64597199","35","green","3"
"97","87","19","797.581747424","1","1","3","190","3","left","in","Female","Right-handed","3","2","no","left","s","600.130277155","832.003728068","35","red","1"
"97","88","19","793.239558431","1","1","3","191","3","right","out","Female","Right-handed","3","2","no","right","s","637.620078203","592.799541238","35","green","3"
"97","86","19","796.636746663","1","0","3","192","2","left","out","Female","Right-handed","3","2","no","left","s","1006.30570936","872.331595452","35","green","1"
"97","86","19","801.005017166","1","1","3","193","1","right","out","Female","Right-handed","3","2","no","right","s","1089.84922231","887.832075248","35","green","3"
"97","86","19","798.391366856","1","1","3","194","2","left","in","Female","Right-handed","3","2","no","left","d","702.340434538","664.441071876","35","green","0"
"97","86","19","796.592730042","1","1","3","195","1","right","out","Female","Right-handed","3","2","no","right","s","791.15019782","640.157949023","35","red","3"
"97","87","19","795.192447896","1","1","3","196","0","right","out","Female","Right-handed","3","2","no","right","d","556.794681666","904.76425672","35","red","0"
"97","87","19","790.975518083","1","1","3","197","1","left","out","Female","Right-handed","3","2","no","left","s","593.372350195","592.187283513","35","green","0"
"97","87","19","787.401969121","1","1","3","198","3","left","in","Female","Right-handed","3","2","no","left","d","503.845132469","727.898105433","35","green","3"
"98","88","19","786.555901151","1","1","3","199","0","left","out","Female","Right-handed","3","2","no","left","d","673.721795734","816.47534548","35","green","1"
"98","88","19","784.156100207","1","1","3","200","1","right","in","Female","Right-handed","3","2","no","right","d","632.201164346","696.130941691","35","green","1"
"98","88","19","781.936930373","1","1","3","201","3","left","in","Female","Right-handed","3","2","no","left","d","560.73314415","776.785393566","35","green","3"
"98","88","19","778.0857597","1","1","3","202","0","left","out","Female","Right-handed","3","2","no","left","d","475.349650798","680.300118536","35","red","0"
"98","88","19","778.509302402","1","1","3","203","0","right","in","Female","Right-handed","3","2","no","right","d","818.048164703","783.865966554","35","green","1"
"98","89","19","778.482501191","1","1","3","204","3","right","out","Female","Right-handed","3","2","no","right","s","609.571682584","944.498788955","35","green","0"
"98","89","19","778.458346681","1","1","3","205","2","left","out","Female","Right-handed","3","2","no","left","d","890.188417587","664.07127976","35","red","0"
"98","89","19","775.146722301","1","1","3","206","1","left","in","Female","Right-handed","3","2","no","left","d","595.640173346","583.751340615","35","green","0"
"98","89","19","776.977284675","1","1","3","207","3","left","out","Female","Right-handed","3","2","no","left","d","1130.27362693","632.365053138","35","red","2"
"96","89","19","777.677997391","0","1","3","208","1","right","in","Female","Right-handed","3","2","no","left","s","649.872609341","986.766060458","35","green","2"
"96","90","19","780.907736492","1","1","3","209","0","right","in","Female","Right-handed","3","2","no","right","d","598.550402057","1344.37428479","35","red","1"
"96","90","19","781.229752471","1","1","3","210","1","right","in","Female","Right-handed","3","2","no","right","d","752.987843363","848.113579101","35","red","2"
"96","90","19","782.913128244","1","1","3","211","2","left","out","Female","Right-handed","3","2","no","left","s","587.558627925","1183.63947289","35","red","3"
"96","90","19","786.649235289","1","1","3","212","2","left","in","Female","Right-handed","3","2","no","left","s","580.410061939","1456.16568227","35","red","0"
"96","90","19","784.566573085","1","1","3","213","2","left","out","Female","Right-handed","3","2","no","left","s","594.890646731","711.827061728","35","green","2"
"100","0","19","743.557983918","1","0","4","214","2","left","out","Female","Right-handed","3","2","no","left","s","606.112699039","881.003268798","35","red","3"
"100","50","19","768.326037984","1","1","4","215","2","left","out","Female","Right-handed","3","2","no","left","s","561.626033366","1024.56215073","35","green","2"
"100","66","19","732.953427788","1","1","4","216","2","left","in","Female","Right-handed","3","2","no","left","d","628.233195464","696.183219327","35","red","1"
"100","75","19","719.157757553","1","1","4","217","1","right","out","Female","Right-handed","3","2","no","right","s","602.731330149","752.810163544","35","green","0"
"100","80","19","766.282046512","1","1","4","218","2","left","in","Female","Right-handed","3","2","no","left","d","1277.41176304","632.146641659","35","green","1"
"100","83","19","745.324225051","1","1","4","219","3","left","out","Female","Right-handed","3","2","no","left","d","568.123534304","712.946701187","35","red","3"
"100","85","19","748.856764589","1","1","4","220","2","right","in","Female","Right-handed","3","2","no","right","d","739.641651227","800.462352407","35","red","0"
"100","87","19","748.332507742","1","1","4","221","1","right","in","Female","Right-handed","3","2","no","right","d","633.176479038","856.148940591","35","green","1"
"100","88","19","739.428246573","1","1","4","222","1","right","out","Female","Right-handed","3","2","no","right","d","615.76930873","720.619005711","35","red","0"
"100","90","19","740.873607427","1","1","4","223","1","left","in","Female","Right-handed","3","2","no","left","s","787.478255068","720.285455143","35","green","3"
"100","90","19","738.153079768","1","1","4","224","0","right","out","Female","Right-handed","3","2","no","right","s","660.902228632","760.993377738","35","red","1"
"100","91","19","734.634076317","1","1","4","225","3","left","in","Female","Right-handed","3","2","no","left","s","655.526612205","736.323464513","35","red","3"
"100","92","19","728.750608385","1","1","4","226","1","right","in","Female","Right-handed","3","2","no","right","s","604.141543467","712.156442915","35","green","1"
"100","92","19","737.857946036","1","1","4","227","0","left","in","Female","Right-handed","3","2","no","left","s","615.702598614","1096.8040724","35","red","2"
"100","93","19","737.018254624","1","1","4","228","1","left","in","Female","Right-handed","3","2","no","left","d","538.257929522","912.267220192","35","green","0"
"100","93","19","729.922991914","1","1","4","229","0","right","out","Female","Right-handed","3","2","no","right","s","518.992176956","727.995925554","35","green","0"
"94","94","19","741.107896516","0","1","4","230","3","left","in","Female","Right-handed","3","2","no","right","s","596.648201652","1243.48453865","35","red","1"
"94","94","19","760.414564158","1","1","4","231","3","left","out","Female","Right-handed","3","2","no","left","s","713.134323378","1464.12150478","35","green","1"
"94","94","19","759.374762835","1","1","4","232","3","right","out","Female","Right-handed","3","2","no","right","d","624.638867364","856.677810676","35","green","0"
"95","95","19","767.015344609","1","1","4","233","3","right","in","Female","Right-handed","3","2","no","right","s","1152.13818743","672.234609207","35","red","0"
"95","95","19","767.674270398","1","1","4","234","1","left","out","Female","Right-handed","3","2","no","left","d","840.821009068","720.884563281","35","green","3"
"95","95","19","764.935885691","1","1","4","235","1","right","in","Female","Right-handed","3","2","no","right","d","702.427029399","712.432584296","35","green","3"
"95","95","19","762.4863512","1","1","4","236","0","right","out","Female","Right-handed","3","2","no","right","s","649.118592621","768.074592172","35","green","3"
"95","95","19","783.745662507","1","1","4","237","1","right","out","Female","Right-handed","3","2","no","right","d","1880.69248947","664.727155636","35","green","1"
"96","92","19","783.202374111","1","0","4","238","0","left","out","Female","Right-handed","3","2","no","left","s","916.173610505","624.15329471","35","red","3"
"96","92","19","785.62556299","1","1","4","239","0","right","in","Female","Right-handed","3","2","no","right","d","595.666793244","1096.74377671","35","red","3"
"96","92","19","782.64939787","1","1","4","240","1","right","in","Female","Right-handed","3","2","no","right","s","666.294843308","744.243366193","35","green","3"
"96","92","19","777.911121007","1","1","4","241","2","right","in","Female","Right-handed","3","2","no","right","d","692.123844761","607.831446636","35","red","0"
"96","93","19","775.504115899","1","1","4","242","0","right","in","Female","Right-handed","3","2","no","right","d","719.665179375","696.550766395","35","green","0"
"96","93","19","777.607991273","1","1","4","243","1","right","out","Female","Right-handed","3","2","no","right","s","1053.14583088","624.094923358","35","green","3"
"96","93","19","775.885070848","1","1","4","244","2","left","in","Female","Right-handed","3","2","no","left","s","616.748792803","831.646123373","35","green","2"
"96","93","19","772.478607261","1","1","4","245","2","left","in","Female","Right-handed","3","2","no","left","s","709.418441755","624.338030408","35","red","0"
"96","93","19","774.582842143","1","1","4","246","1","right","in","Female","Right-handed","3","2","no","right","s","971.94807644","711.888640293","35","green","2"
"97","94","19","771.244360203","1","1","4","247","2","left","out","Female","Right-handed","3","2","no","left","s","649.576903932","672.572008436","35","green","3"
"97","91","19","770.872737813","1","0","4","248","0","right","in","Female","Right-handed","3","2","no","right","s","796.252559361","720.222593689","35","green","2"
"97","91","19","774.618441847","1","1","4","249","0","left","in","Female","Right-handed","3","2","no","left","s","635.846487199","1175.58967892","35","green","0"
"97","91","19","772.381108812","1","1","4","250","3","left","out","Female","Right-handed","3","2","no","left","d","607.425412964","776.248826161","35","red","3"
"97","92","19","783.19601268","1","1","4","251","3","left","out","Female","Right-handed","3","2","no","left","d","1006.82752357","1359.86738799","35","green","1"
"97","92","19","787.024014457","1","1","4","252","3","left","in","Female","Right-handed","3","2","no","left","d","1144.48576765","720.49039631","35","red","2"
"97","90","19","785.786660575","1","0","4","253","1","left","out","Female","Right-handed","3","2","no","left","s","602.978606581","872.081111804","35","green","2"
"97","90","19","784.381350681","1","1","4","254","0","right","out","Female","Right-handed","3","2","no","right","s","760.678429025","695.659480792","35","red","1"
"97","90","19","784.02047805","1","1","4","255","0","left","out","Female","Right-handed","3","2","no","left","s","578.13999374","960.30940664","35","green","0"
"97","90","19","779.585998854","1","1","4","256","1","left","out","Female","Right-handed","3","2","no","left","s","554.901782187","631.773963043","35","green","0"
"97","90","19","784.970535735","1","1","4","257","3","left","out","Female","Right-handed","3","2","no","left","s","688.527271606","1344.48397161","35","red","0"
"97","91","19","789.970822165","1","1","4","258","2","left","in","Female","Right-handed","3","2","no","left","d","996.008297713","1023.95855249","35","green","1"
"97","91","19","785.104443859","1","1","4","259","2","right","out","Female","Right-handed","3","2","no","right","s","508.630300247","623.60453988","35","red","3"
"97","91","19","784.266902798","1","1","4","260","3","right","out","Female","Right-handed","3","2","no","right","d","699.302879312","792.177148709","35","green","1"
"97","91","19","782.372342206","1","1","4","261","3","left","out","Female","Right-handed","3","2","no","left","d","522.722170339","863.933818437","35","red","2"
"97","91","19","779.954029061","1","1","4","262","2","left","in","Female","Right-handed","3","2","no","left","s","551.386993069","776.363003086","35","red","3"
"98","92","19","785.492554767","1","1","4","263","0","right","in","Female","Right-handed","3","2","no","right","d","1161.89742807","951.863200648","35","green","3"
"98","92","19","787.238534464","1","1","4","264","1","left","out","Female","Right-handed","3","2","no","left","s","557.519191989","1191.55584663","35","red","3"
"98","92","19","784.851969912","1","1","4","265","3","left","in","Female","Right-handed","3","2","no","left","d","574.133538252","752.140817353","35","green","3"
"98","92","19","783.274846202","1","1","4","266","0","right","out","Female","Right-handed","3","2","no","right","s","794.758637679","607.770188792","35","red","1"
"98","92","19","779.758382763","1","1","4","267","2","left","out","Female","Right-handed","3","2","no","left","s","466.456358758","720.315282259","35","red","3"
"98","92","19","783.043519486","1","1","4","268","0","left","in","Female","Right-handed","3","2","no","left","s","592.976579617","1327.90522545","35","red","1"
"98","92","19","783.991606416","1","1","4","269","1","right","in","Female","Right-handed","3","2","no","right","s","1096.75468126","575.518093836","35","red","1"
"98","92","19","784.933190519","1","1","4","270","0","right","out","Female","Right-handed","3","2","no","right","d","691.206901418","984.11689921","35","red","3"
"98","93","19","785.851828322","1","1","4","271","2","left","in","Female","Right-handed","3","2","no","left","s","684.70747615","991.720890015","35","green","1"
"98","93","19","783.901091015","1","1","4","272","2","right","in","Female","Right-handed","3","2","no","right","d","653.287654012","688.229000425","35","red","3"
"98","93","19","782.885031213","1","1","4","273","2","right","out","Female","Right-handed","3","2","no","right","d","533.945505536","911.929500239","35","red","0"
"98","93","19","783.96253796","1","1","4","274","3","right","in","Female","Right-handed","3","2","no","right","d","593.701410664","1103.52447491","35","red","3"
"98","93","19","786.335063258","1","1","4","275","0","right","out","Female","Right-handed","3","2","no","right","s","614.016564632","1248.10164825","35","green","3"
"98","93","19","786.666920801","1","1","4","276","3","right","in","Female","Right-handed","3","2","no","right","d","838.670890785","775.813286091","35","red","3"
"98","93","19","786.660665296","1","1","4","277","3","right","out","Female","Right-handed","3","2","no","right","d","869.351770129","703.18136684","35","red","0"
"100","100","19","659.439256593","1","1","5","278","3","left","out","Female","Right-handed","3","2","no","left","s","758.500407959","560.378105227","35","red","2"
"100","100","19","571.308781873","1","1","5","279","1","left","out","Female","Right-handed","3","2","no","left","s","502.17641746","464.180196846","35","green","1"
"100","100","19","543.311541363","1","1","5","280","1","left","in","Female","Right-handed","3","2","no","left","s","525.882561975","448.75155871","35","red","0"
"100","100","19","585.830619493","1","1","5","281","1","right","in","Female","Right-handed","3","2","no","right","s","866.489970391","560.285737378","35","red","2"
"100","100","19","583.882387504","1","1","5","282","2","right","in","Female","Right-handed","3","2","no","right","s","544.149266447","608.029652645","35","red","0"
"100","100","19","575.181576591","1","1","5","283","0","left","in","Female","Right-handed","3","2","no","left","d","566.760787795","496.59425626","35","red","0"
"100","85","19","632.283887638","1","0","5","284","2","left","in","Female","Right-handed","3","2","no","left","d","533.475968965","1416.31953888","35","red","2"
"100","87","19","638.93249145","1","1","5","285","3","left","out","Female","Right-handed","3","2","no","left","s","778.980733605","591.964702653","35","red","0"
"100","77","19","761.099536621","1","0","5","286","0","right","out","Female","Right-handed","3","2","no","right","s","716.406646894","2760.4651491","35","red","1"
"100","80","19","762.722917618","1","1","5","287","1","right","in","Female","Right-handed","3","2","no","right","d","674.763179097","879.903514084","35","red","3"
"100","81","19","742.757127253","1","1","5","288","0","right","out","Female","Right-handed","3","2","no","right","d","453.577458138","632.620989058","35","green","0"
"100","83","19","729.412847299","1","1","5","289","2","left","out","Female","Right-handed","3","2","no","left","s","533.152360768","632.099174847","35","red","3"
"100","84","19","738.443348607","1","1","5","290","1","left","in","Female","Right-handed","3","2","no","left","s","573.797421912","1119.8213067","35","green","1"
"100","78","19","746.790560849","1","0","5","291","3","right","in","Female","Right-handed","3","2","no","right","d","822.308631774","888.30000821","35","green","1"
"100","73","19","746.231006861","1","0","5","292","2","right","out","Female","Right-handed","3","2","no","right","s","636.858043443","839.936458618","35","red","3"
"100","75","19","754.154157852","1","1","5","293","0","left","out","Female","Right-handed","3","2","no","left","s","721.565776173","1024.43706927","35","green","3"
"100","76","19","756.296549925","1","1","5","294","1","right","out","Female","Right-handed","3","2","no","right","s","821.126451589","760.023194594","35","red","3"
"100","77","19","758.152968358","1","1","5","295","1","left","out","Female","Right-handed","3","2","no","left","s","915.652758464","663.771404965","35","red","2"
"100","78","19","751.339443543","1","1","5","296","2","left","out","Female","Right-handed","3","2","no","left","d","673.155080487","584.236913273","35","green","1"
"100","80","19","748.140407471","1","1","5","297","3","left","out","Female","Right-handed","3","2","no","left","s","510.866371944","863.851072238","35","green","3"
"100","80","19","765.512025781","1","1","5","298","2","right","out","Female","Right-handed","3","2","no","right","d","785.533719398","1440.35506458","35","green","0"
"100","81","19","765.465368063","1","1","5","299","0","left","in","Female","Right-handed","3","2","no","left","d","736.985434105","791.985677854","35","green","1"
"100","82","19","761.822359669","1","1","5","300","1","right","out","Female","Right-handed","3","2","no","right","s","787.764018103","575.588331889","35","red","3"
"100","83","19","758.363426384","1","1","5","301","0","right","out","Female","Right-handed","3","2","no","right","d","485.318643423","872.297278231","35","red","0"
"100","84","19","767.241363606","1","1","5","302","0","left","in","Female","Right-handed","3","2","no","left","s","1208.73305948","751.890654424","35","red","3"
"100","84","19","764.938896102","1","1","5","303","3","right","in","Female","Right-handed","3","2","no","right","d","607.468068949","807.28634803","35","green","3"
"100","85","19","765.290157636","1","1","5","304","0","right","in","Female","Right-handed","3","2","no","right","d","612.919375697","935.926539336","35","red","0"
"100","82","19","767.086460065","1","0","5","305","1","left","in","Female","Right-handed","3","2","no","left","d","559.590092005","1071.58315929","35","green","1"
"100","82","19","765.605322618","1","1","5","306","1","right","out","Female","Right-handed","3","2","no","right","d","656.003204655","792.263743566","35","green","3"
"100","83","19","762.760458093","1","1","5","307","3","left","out","Female","Right-handed","3","2","no","left","d","576.640619787","783.878153976","35","green","2"
"100","83","19","758.6998503","1","1","5","308","1","left","out","Female","Right-handed","3","2","no","left","s","530.383570324","743.379662654","35","green","0"
"100","84","19","758.990721281","1","1","5","309","2","right","in","Female","Right-handed","3","2","no","right","d","832.056967873","703.958475522","35","red","1"
"100","84","19","759.131782642","1","1","5","310","2","right","out","Female","Right-handed","3","2","no","right","s","671.699645409","855.591846998","35","green","0"
"100","85","19","757.029243367","1","1","5","311","1","right","in","Female","Right-handed","3","2","no","right","d","615.076549853","760.214344725","35","green","1"
"100","85","19","749.822842496","1","1","5","312","2","right","in","Female","Right-handed","3","2","no","right","s","609.881179022","399.729246743","35","green","3"
"100","86","19","748.631141963","1","1","5","313","3","right","in","Female","Right-handed","3","2","no","right","s","686.385812809","727.457433815","35","red","0"
"100","86","19","745.410702168","1","1","5","314","3","left","in","Female","Right-handed","3","2","no","left","d","507.05106659","751.898672472","35","green","3"
"100","86","19","745.034637269","1","1","5","315","3","right","in","Female","Right-handed","3","2","no","right","d","734.557891548","727.682580451","35","green","0"
"100","87","19","745.7564695","1","1","5","316","2","right","in","Female","Right-handed","3","2","no","right","s","803.124021801","743.248166753","35","green","1"
"100","87","19","743.50910994","1","1","5","317","1","right","out","Female","Right-handed","3","2","no","right","s","663.81566456","647.908509647","35","green","3"
"100","87","19","740.008271335","1","1","5","318","0","left","in","Female","Right-handed","3","2","no","left","s","784.451925101","415.497529161","35","red","2"
"100","88","19","739.963598545","1","1","5","319","0","left","in","Female","Right-handed","3","2","no","left","s","764.214706501","712.049321864","35","red","2"
"100","88","19","739.167206871","1","1","5","320","0","left","out","Female","Right-handed","3","2","no","left","d","699.717893192","711.719619958","35","red","3"
"100","88","19","737.431393984","1","1","5","321","3","left","out","Female","Right-handed","3","2","no","left","d","622.322615243","703.260264378","35","red","3"
"100","88","19","739.421796503","1","1","5","322","3","right","in","Female","Right-handed","3","2","no","right","d","685.990042232","968.008972512","35","green","0"
"100","89","19","737.663289876","1","1","5","323","2","left","in","Female","Right-handed","3","2","no","left","d","573.488566911","743.572416392","35","green","3"
"100","89","19","733.95049924","1","1","5","324","1","right","out","Female","Right-handed","3","2","no","right","s","606.120075641","520.204184264","35","green","3"
"100","89","19","733.195362199","1","1","5","325","3","left","in","Female","Right-handed","3","2","no","left","s","699.792942069","695.614900473","35","green","1"
"100","89","19","729.328206769","1","1","5","326","2","left","out","Female","Right-handed","3","2","no","left","s","544.186790885","543.22270145","35","red","3"
"100","90","19","728.272012413","1","1","5","327","0","left","out","Female","Right-handed","3","2","no","left","d","713.052539348","639.984438585","35","red","1"
"100","90","19","728.96435416","1","1","5","328","2","right","out","Female","Right-handed","3","2","no","right","d","655.705574911","871.457308094","35","green","3"
"100","90","19","727.573152673","1","1","5","329","3","right","out","Female","Right-handed","3","2","no","right","s","682.010848093","631.232905533","35","red","1"
"100","90","19","722.379492512","1","1","5","330","0","right","out","Female","Right-handed","3","2","no","right","s","512.863505977","391.754822369","35","red","3"
"100","90","19","729.630379762","1","1","5","331","2","left","out","Female","Right-handed","3","2","no","left","d","1260.37310197","967.481706033","35","green","0"
"100","90","19","728.080359913","1","1","5","332","1","left","in","Female","Right-handed","3","2","no","left","d","608.906505775","679.852070323","35","red","0"
"100","91","19","732.990484508","1","1","5","333","2","right","out","Female","Right-handed","3","2","no","right","d","854.544049202","1151.55062528","35","green","2"
"100","91","19","731.661937766","1","1","5","334","3","right","out","Female","Right-handed","3","2","no","right","d","651.302386682","663.224253745","35","red","1"
"100","91","19","731.307628713","1","1","5","335","0","right","in","Female","Right-handed","3","2","no","right","d","574.569399043","847.654626344","35","red","1"
"100","91","19","744.891604545","1","1","5","336","2","right","in","Female","Right-handed","3","2","no","right","s","530.275807836","2535.2485978","35","green","1"
"100","91","19","744.674496339","1","1","5","337","3","left","in","Female","Right-handed","3","2","no","left","d","767.899798844","695.830425458","35","green","3"
"100","91","19","742.474415136","1","1","5","338","1","right","in","Female","Right-handed","3","2","no","right","d","541.470598801","679.468487167","35","red","0"
"100","91","19","742.694045009","1","1","5","339","0","left","in","Female","Right-handed","3","2","no","left","d","929.122749174","583.060185352","35","red","3"
"100","92","19","742.03632999","1","1","5","340","3","left","out","Female","Right-handed","3","2","no","left","d","546.78848532","855.727512276","35","green","3"
"100","92","19","746.983001028","1","1","5","341","0","left","in","Female","Right-handed","3","2","no","left","s","598.06835734","1519.17819554","35","green","3"
"100","0","19","534.661516731","1","0","6","342","0","left","in","Female","Right-handed","3","2","no","left","d","565.638582564","503.684450897","35","green","3"
"100","50","19","542.229265983","1","1","6","343","3","left","out","Female","Right-handed","3","2","no","left","s","547.302281488","552.291748983","35","green","3"
"100","66","19","601.816150775","1","1","6","344","3","left","out","Female","Right-handed","3","2","no","left","d","577.910357002","864.069483716","35","red","2"
"100","75","19","615.010561366","1","1","6","345","2","left","in","Female","Right-handed","3","2","no","left","s","565.526650691","743.660935586","35","red","2"
"100","60","19","608.845408292","1","0","6","346","1","right","in","Female","Right-handed","3","2","no","right","d","544.162095313","624.207496679","35","red","0"
"100","50","19","639.934860354","1","0","6","347","1","left","in","Female","Right-handed","3","2","no","left","s","806.90693426","783.857307066","35","red","2"
"100","57","19","628.99254991","1","1","6","348","3","left","in","Female","Right-handed","3","2","no","left","d","494.359467448","632.317907046","35","green","3"
"100","62","19","634.498273395","1","1","6","349","1","right","out","Female","Right-handed","3","2","no","right","s","674.087097748","671.98957783","35","red","1"
"100","66","19","647.29238544","1","1","6","350","0","left","out","Female","Right-handed","3","2","no","left","s","763.665630948","735.624932648","35","red","2"
"100","70","19","664.771607662","1","1","6","351","2","right","in","Female","Right-handed","3","2","no","right","s","916.349686719","727.819528616","35","red","0"
"100","72","19","670.955469016","1","1","6","352","1","right","out","Female","Right-handed","3","2","no","right","d","745.718686016","719.869479097","35","green","2"
"100","75","19","665.119558636","1","1","6","353","1","right","out","Female","Right-handed","3","2","no","right","s","538.322715307","663.526373588","35","green","3"
"100","76","19","666.039030746","1","1","6","354","2","right","out","Female","Right-handed","3","2","no","right","d","746.089119581","608.056272547","35","green","3"
"100","78","19","727.936534765","1","1","6","355","0","right","in","Female","Right-handed","3","2","no","right","d","569.658508364","2495.54966568","35","green","0"
"100","80","19","724.111119806","1","1","6","356","0","right","out","Female","Right-handed","3","2","no","right","d","661.097548149","680.013072615","35","red","3"
"100","81","19","717.9622173","1","1","6","357","1","right","out","Female","Right-handed","3","2","no","right","d","579.818330399","671.639029006","35","green","3"
"100","82","19","713.100873993","1","1","6","358","3","right","out","Female","Right-handed","3","2","no","right","s","654.339300469","616.2994617","35","green","2"
"100","83","19","708.488562637","1","1","6","359","3","right","in","Female","Right-handed","3","2","no","right","d","652.188861462","607.969677691","35","green","1"
"100","84","19","702.804240319","1","1","6","360","1","right","out","Female","Right-handed","3","2","no","right","s","577.57007128","623.40280593","35","red","0"
"100","85","19","703.498536547","1","1","6","361","0","right","in","Female","Right-handed","3","2","no","right","d","561.186965358","872.193364394","35","red","1"
"100","85","19","707.792802724","1","1","6","362","3","left","out","Female","Right-handed","3","2","no","left","s","907.697256676","679.658995857","35","green","1"
"100","86","19","710.728451409","1","1","6","363","1","right","in","Female","Right-handed","3","2","no","right","d","801.40848142","743.345666153","35","red","1"
"100","82","19","712.325958278","1","0","6","364","0","left","out","Female","Right-handed","3","2","no","left","d","574.939832612","920.00238617","35","red","0"
"100","83","19","714.355337622","1","1","6","365","3","left","in","Female","Right-handed","3","2","no","left","d","842.44321943","679.618905644","35","green","0"
"100","84","19","716.465492911","1","1","6","366","3","right","in","Female","Right-handed","3","2","no","right","s","662.13187563","872.086564068","35","green","0"
"100","84","19","716.325276097","1","1","6","367","0","right","out","Female","Right-handed","3","2","no","right","s","737.810651041","687.829060465","35","green","3"
"100","85","19","714.935858748","1","1","6","368","2","right","in","Female","Right-handed","3","2","no","right","d","478.318571582","879.30344378","35","green","3"
"100","85","19","717.683777887","1","1","6","369","1","left","out","Female","Right-handed","3","2","no","left","d","679.853994654","903.901194626","35","red","3"
"100","86","19","714.294976507","1","1","6","370","1","left","in","Female","Right-handed","3","2","no","left","d","575.431178255","663.385897482","35","green","1"
"100","86","19","709.843830982","1","1","6","371","0","left","in","Female","Right-handed","3","2","no","left","d","514.355503328","647.165718187","35","red","3"
"100","87","19","719.339750306","1","1","6","372","2","right","out","Female","Right-handed","3","2","no","right","s","608.627157173","1399.80750284","35","red","0"
"100","87","19","717.322342428","1","1","6","373","3","left","in","Female","Right-handed","3","2","no","left","s","614.313873651","695.251522786","35","green","3"
"100","84","19","718.115811712","1","0","6","374","1","left","in","Female","Right-handed","3","2","no","left","s","734.962963059","752.050694555","35","green","1"
"100","82","19","713.835930399","1","0","6","375","0","left","in","Female","Right-handed","3","2","no","left","d","489.595788025","655.603906133","35","red","0"
"100","82","19","709.838917068","1","1","6","376","0","left","out","Female","Right-handed","3","2","no","left","s","499.939704321","647.941223254","35","green","0"
"100","83","19","708.739153192","1","1","6","377","2","right","in","Female","Right-handed","3","2","no","right","s","732.762170745","607.73266435","35","red","2"
"100","83","19","708.38941918","1","1","6","378","2","right","out","Female","Right-handed","3","2","no","right","d","816.260782664","575.337206796","35","green","1"
"100","81","19","707.851745786","1","0","6","379","0","right","in","Female","Right-handed","3","2","no","right","s","647.949562022","727.966098435","35","green","1"
"100","82","19","707.162945834","1","1","6","380","2","right","in","Female","Right-handed","3","2","no","right","s","610.486060152","751.491035189","35","red","3"
"100","82","19","704.637904398","1","1","6","381","2","left","in","Female","Right-handed","3","2","no","left","s","669.141889845","543.180686909","35","green","1"
"100","82","19","700.019586709","1","1","6","382","1","left","out","Female","Right-handed","3","2","no","left","s","510.808962761","519.764795532","35","red","0"
"100","83","19","704.965717294","1","1","6","383","0","right","in","Female","Right-handed","3","2","no","right","d","992.244628552","823.269513992","35","red","2"
"100","83","19","716.021605574","1","1","6","384","3","left","out","Female","Right-handed","3","2","no","left","d","721.866933851","1638.87089284","35","red","1"
"100","84","19","740.27870293","1","1","6","385","1","left","in","Female","Right-handed","3","2","no","left","s","2167.35450781","1399.3132707","35","red","3"
"100","82","19","740.296842901","1","0","6","386","1","left","in","Female","Right-handed","3","2","no","left","s","555.115703559","927.07429967","35","red","0"
"100","82","19","740.021291598","1","1","6","387","2","left","in","Female","Right-handed","3","2","no","left","d","735.619801104","719.62316483","35","red","1"
"100","82","19","740.618323871","1","1","6","388","3","right","in","Female","Right-handed","3","2","no","right","d","601.080575554","935.083041262","35","green","3"
"100","83","19","740.621930426","1","1","6","389","1","left","out","Female","Right-handed","3","2","no","left","s","577.796821519","903.786055536","35","red","3"
"100","83","19","746.880942188","1","1","6","390","3","right","in","Female","Right-handed","3","2","no","right","s","663.415083156","1431.21193034","35","green","1"
"100","84","19","746.392551174","1","1","6","391","0","left","in","Female","Right-handed","3","2","no","left","s","757.964161275","686.958621769","35","red","3"
"100","84","19","745.2179514","1","1","6","392","2","right","out","Female","Right-handed","3","2","no","right","s","669.53669826","703.439227083","35","red","0"
"100","84","19","742.946302873","1","1","6","393","2","right","out","Female","Right-handed","3","2","no","right","s","559.053524605","695.130931425","35","green","3"
"100","84","19","739.621436685","1","1","6","394","3","right","out","Female","Right-handed","3","2","no","right","s","565.644355553","567.812434252","35","red","0"
"100","85","19","737.367015716","1","1","6","395","2","left","in","Female","Right-handed","3","2","no","left","s","540.320170057","695.445238692","35","green","3"
"100","85","19","737.605004285","1","1","6","396","3","left","out","Female","Right-handed","3","2","no","left","d","605.944961593","894.967812368","35","red","0"
"100","83","19","743.954206943","1","0","6","397","2","left","out","Female","Right-handed","3","2","no","left","d","1290.6710396","895.649666705","35","green","0"
"100","84","19","742.701488176","1","1","6","398","0","left","out","Female","Right-handed","3","2","no","left","d","578.057888986","767.040585408","35","green","3"
"100","84","19","741.080621672","1","1","6","399","1","right","out","Female","Right-handed","3","2","no","right","d","626.659093355","670.723368552","35","red","3"
"100","84","19","747.753542898","1","1","6","400","3","left","out","Female","Right-handed","3","2","no","left","d","1470.23478111","799.331166964","35","green","3"
"100","85","19","748.748474434","1","1","6","401","2","left","out","Female","Right-handed","3","2","no","left","d","703.939232219","910.959637815","35","green","3"
"100","83","19","748.343940354","1","0","6","402","3","right","in","Female","Right-handed","3","2","no","right","d","528.567964775","919.575826305","35","red","3"
"100","83","19","746.984142629","1","1","6","403","0","right","out","Female","Right-handed","3","2","no","right","d","544.970313997","783.102648904","35","red","1"
"100","84","19","748.059402078","1","1","6","404","2","right","in","Female","Right-handed","3","2","no","right","d","766.743917833","862.707057931","35","green","1"
"100","84","19","745.688545693","1","1","6","405","0","left","out","Female","Right-handed","3","2","no","left","d","545.291997867","647.357189042","35","green","1"
"100","0","19","813.396577514","1","0","7","406","0","right","in","Female","Right-handed","3","2","no","right","d","971.424337902","655.368817126","35","red","1"
"100","0","19","705.952963597","1","0","7","407","3","right","out","Female","Right-handed","3","2","no","right","s","429.064377826","767.954321534","35","green","3"
"100","33","19","676.29954295","1","1","7","408","0","right","out","Female","Right-handed","3","2","no","right","s","594.596544928","639.388858384","35","red","0"
"100","50","19","657.12504907","1","1","7","409","1","left","out","Female","Right-handed","3","2","no","left","d","463.221559683","735.981575177","35","green","1"
"100","60","19","655.253421459","1","1","7","410","1","right","out","Female","Right-handed","3","2","no","right","s","423.756112956","871.777709072","35","red","0"
"100","66","19","668.937135767","1","1","7","411","1","right","out","Female","Right-handed","3","2","no","right","s","907.344783525","567.366631087","35","red","3"
"100","71","19","667.233412457","1","1","7","412","2","right","out","Female","Right-handed","3","2","no","right","s","578.097979196","735.924165994","35","green","2"
"100","62","19","709.64575326","1","0","7","413","3","left","in","Female","Right-handed","3","2","no","left","s","773.561499027","1239.50277874","35","red","2"
"100","66","19","701.854576798","1","1","7","414","3","left","out","Female","Right-handed","3","2","no","left","s","528.023700051","751.026630165","35","red","2"
"100","70","19","701.700257988","1","1","7","415","1","left","out","Female","Right-handed","3","2","no","left","d","576.737477742","823.885299658","35","green","1"
"100","72","19","697.627589507","1","1","7","416","2","left","in","Female","Right-handed","3","2","no","left","d","506.378513186","807.423296199","35","red","3"
"100","75","19","694.992152475","1","1","7","417","0","left","in","Female","Right-handed","3","2","no","left","s","515.981883072","816.022807161","35","green","0"
"100","76","19","686.772911569","1","1","7","418","1","right","in","Female","Right-handed","3","2","no","right","d","552.587454393","623.696587008","35","red","0"
"100","78","19","690.37084867","1","1","7","419","3","right","in","Female","Right-handed","3","2","no","right","s","939.12605902","535.162002947","35","red","1"
"100","80","19","684.100072013","1","1","7","420","0","right","in","Female","Right-handed","3","2","no","right","s","512.836244631","679.782152994","35","red","0"
"100","81","19","681.713388736","1","1","7","421","2","right","out","Female","Right-handed","3","2","no","right","s","572.400358182","719.425920983","35","red","0"
"100","82","19","690.643525451","1","1","7","422","2","left","out","Female","Right-handed","3","2","no","left","d","644.067225832","1022.98419996","35","red","3"
"100","83","19","700.83643685","1","1","7","423","2","left","in","Female","Right-handed","3","2","no","left","s","1292.61878249","455.613078771","35","red","0"
"100","84","19","691.930778736","1","1","7","424","3","left","in","Female","Right-handed","3","2","no","left","s","656.071839094","407.186026284","35","green","1"
"100","80","19","704.873815254","1","0","7","425","1","right","in","Female","Right-handed","3","2","no","right","s","997.794396862","903.788621308","35","red","2"
"100","80","19","699.753119125","1","1","7","426","0","right","in","Female","Right-handed","3","2","no","right","s","571.373086575","623.305306533","35","red","3"
"100","81","19","693.94546384","1","1","7","427","1","left","out","Female","Right-handed","3","2","no","left","d","545.061719683","598.907686031","35","green","0"
"100","82","19","696.603406589","1","1","7","428","0","left","in","Female","Right-handed","3","2","no","left","s","710.690424021","799.465870077","35","red","1"
"100","83","19","706.504337654","1","1","7","429","2","right","in","Female","Right-handed","3","2","no","right","d","1077.25865051","791.192853809","35","green","1"
"100","84","19","701.494768388","1","1","7","430","3","left","in","Female","Right-handed","3","2","no","left","d","498.677022984","663.853189002","35","green","3"
"100","84","19","730.350164693","1","1","7","431","0","right","in","Female","Right-handed","3","2","no","right","s","1752.27295469","1151.19718997","35","red","2"
"100","85","19","728.442263252","1","1","7","432","2","left","out","Female","Right-handed","3","2","no","left","d","590.761996274","766.911655283","35","red","3"
"100","85","19","717.979844107","1","1","7","433","3","right","out","Female","Right-handed","3","2","no","right","s","479.47733909","391.511715323","35","green","3"
"100","86","19","718.968715611","1","1","7","434","2","right","in","Female","Right-handed","3","2","no","right","d","654.066045576","839.248189848","35","green","0"
"100","86","19","719.009554727","1","1","7","435","3","right","in","Female","Right-handed","3","2","no","right","d","768.667927317","671.719850878","35","green","1"
"100","87","19","717.422269061","1","1","7","436","3","left","out","Female","Right-handed","3","2","no","left","d","540.290342942","799.317055211","35","green","0"
"100","87","19","714.269447682","1","1","7","437","3","right","out","Female","Right-handed","3","2","no","right","d","482.072619092","750.991350778","35","green","3"
"100","87","19","708.704296575","1","1","7","438","0","right","out","Female","Right-handed","3","2","no","right","d","597.620309127","463.61861315","35","red","3"
"100","88","19","712.586228859","1","1","7","439","3","left","out","Female","Right-handed","3","2","no","left","d","474.115834418","1207.26415409","35","red","3"
"100","88","19","712.646441529","1","1","7","440","1","right","in","Female","Right-handed","3","2","no","right","s","1038.62868381","390.758660767","35","green","3"
"100","88","19","718.02568122","1","1","7","441","1","right","out","Female","Right-handed","3","2","no","right","s","621.388032207","1191.21010864","35","green","3"
"100","89","19","715.818985054","1","1","7","442","2","left","out","Female","Right-handed","3","2","no","left","s","505.781008658","766.974837461","35","green","3"
"100","89","19","717.575656393","1","1","7","443","3","left","out","Female","Right-handed","3","2","no","left","d","701.56525019","863.579741679","35","red","0"
"100","89","19","714.36098109","1","1","7","444","1","left","in","Female","Right-handed","3","2","no","left","s","721.271353654","463.135285543","35","green","2"
"100","90","19","709.522231306","1","1","7","445","0","right","out","Female","Right-handed","3","2","no","right","s","570.707909767","470.914069676","35","red","3"
"100","90","19","707.690506657","1","1","7","446","0","left","in","Female","Right-handed","3","2","no","left","d","589.487127512","679.35591385","35","red","2"
"100","90","19","708.8407647","1","1","7","447","0","right","in","Female","Right-handed","3","2","no","right","d","528.940643395","983.06204554","35","green","0"
"100","90","19","711.439223417","1","1","7","448","0","right","in","Female","Right-handed","3","2","no","right","s","641.561427183","999.587551895","35","green","3"
"100","90","19","714.604661084","1","1","7","449","0","left","in","Female","Right-handed","3","2","no","left","d","574.165610422","1127.27135109","35","green","3"
"100","91","19","714.563986688","1","1","7","450","2","left","out","Female","Right-handed","3","2","no","left","d","770.741072389","654.80755415","35","green","0"
"100","91","19","714.757192617","1","1","7","451","2","left","in","Female","Right-handed","3","2","no","left","s","527.548069767","919.354849054","35","green","3"
"100","91","19","712.476646001","1","1","7","452","3","left","out","Female","Right-handed","3","2","no","left","d","496.053198749","719.089804639","35","red","3"
"100","91","19","713.78086158","1","1","7","453","1","right","out","Female","Right-handed","3","2","no","right","d","879.699214362","670.458773151","35","green","3"
"100","91","19","711.428954462","1","1","7","454","1","right","out","Female","Right-handed","3","2","no","right","d","470.027915617","727.04691004","35","red","3"
"100","92","19","710.199447204","1","1","7","455","2","right","in","Female","Right-handed","3","2","no","right","s","444.998152645","854.909030498","35","red","3"
"100","92","19","708.957769052","1","1","7","456","2","right","out","Female","Right-handed","3","2","no","right","s","686.413715597","607.334007276","35","green","1"
"100","92","19","709.768019157","1","1","7","457","3","left","out","Female","Right-handed","3","2","no","left","d","751.07056904","751.110979971","35","red","1"
"100","92","19","710.339342682","1","1","7","458","3","left","out","Female","Right-handed","3","2","no","left","d","681.514370895","798.58196107","35","green","0"
"100","92","19","713.441714343","1","1","7","459","0","right","in","Female","Right-handed","3","2","no","right","s","692.401589756","1063.33323498","35","green","1"
"100","92","19","711.258515453","1","1","7","460","2","left","out","Female","Right-handed","3","2","no","left","s","555.893774406","630.8377764","35","red","2"
"100","92","19","713.48435389","1","1","7","461","1","right","in","Female","Right-handed","3","2","no","right","d","976.326248379","695.484687465","35","green","3"
"100","92","19","716.168885206","1","1","7","462","0","left","in","Female","Right-handed","3","2","no","left","d","670.005593383","1062.99968441","35","green","3"
"100","93","19","717.600608075","1","1","7","463","1","right","out","Female","Right-handed","3","2","no","right","s","567.736102486","1030.68152079","35","red","1"
"100","93","19","718.98244713","1","1","7","464","3","left","in","Female","Right-handed","3","2","no","left","d","839.182441898","759.075782691","35","red","0"
"100","93","19","717.9713866","1","1","7","465","1","right","out","Female","Right-handed","3","2","no","right","s","589.859485408","726.778145254","35","green","1"
"100","93","19","719.035723603","1","1","7","466","2","left","in","Female","Right-handed","3","2","no","left","d","775.420081285","790.371806256","35","green","1"
"100","93","19","717.221378299","1","1","7","467","0","left","out","Female","Right-handed","3","2","no","left","s","718.026932925","495.065696636","35","green","1"
"100","93","19","717.268064655","1","1","7","468","2","left","in","Female","Right-handed","3","2","no","left","s","617.635588307","822.689649158","35","red","1"
"100","93","19","714.344586763","1","1","7","469","1","left","in","Female","Right-handed","3","2","no","left","s","525.131431754","535.199527385","35","red","0"
"100","100","19","725.011289405","1","1","8","470","0","right","out","Female","Right-handed","3","2","no","right","s","578.490542561","871.53203625","35","green","1"
"100","100","19","753.589036194","1","1","8","471","3","left","in","Female","Right-handed","3","2","no","left","d","749.227702145","815.105863821","35","green","0"
"100","100","19","710.983029119","1","1","8","472","0","left","out","Female","Right-handed","3","2","no","left","d","683.839603229","567.70242671","35","green","3"
"100","100","19","687.574086714","1","1","8","473","2","left","out","Female","Right-handed","3","2","no","left","d","459.358146076","775.33637292","35","red","3"
"100","100","19","675.060488113","1","1","8","474","1","left","in","Female","Right-handed","3","2","no","left","d","506.923419354","743.088768067","35","red","3"
"100","100","19","698.573531437","1","1","8","475","0","left","in","Female","Right-handed","3","2","no","left","s","832.679167972","799.598328144","35","red","2"
"100","100","19","699.013450886","1","1","8","476","3","left","in","Female","Right-handed","3","2","no","left","d","540.106248686","863.199686464","35","green","1"
"100","100","19","705.172126527","1","1","8","477","2","right","out","Female","Right-handed","3","2","no","right","s","568.7826174","927.78309463","35","red","3"
"100","88","19","704.530322313","1","0","8","478","1","left","in","Female","Right-handed","3","2","no","left","d","583.409451283","815.382325924","35","green","1"
"100","90","19","699.064454799","1","1","8","479","3","right","in","Female","Right-handed","3","2","no","right","d","508.92504349","790.818250862","35","red","3"
"100","90","19","703.793347579","1","1","8","480","0","left","in","Female","Right-handed","3","2","no","left","d","502.598487219","999.566063539","35","red","3"
"100","91","19","700.120880009","1","1","8","481","3","left","out","Female","Right-handed","3","2","no","left","s","416.304785678","903.142687799","35","green","3"
"100","92","19","708.816323768","1","1","8","482","2","right","in","Female","Right-handed","3","2","no","right","s","827.769239455","798.554058285","35","green","1"
"100","92","19","712.459868552","1","1","8","483","1","right","out","Female","Right-handed","3","2","no","right","d","736.299731106","783.352170387","35","red","1"
"100","93","19","720.495816506","1","1","8","484","1","left","in","Female","Right-handed","3","2","no","left","d","731.013275312","934.984900425","35","green","3"
"100","93","19","726.43943307","1","1","8","485","1","left","in","Female","Right-handed","3","2","no","left","s","839.655185685","791.532177365","35","red","3"
"100","94","19","727.593589611","1","1","8","486","3","left","out","Female","Right-handed","3","2","no","left","d","637.028988109","855.091200421","35","red","0"
"100","94","19","724.210661132","1","1","8","487","3","right","out","Female","Right-handed","3","2","no","right","d","478.587015645","854.814738319","35","green","3"
"100","94","19","729.00641835","1","1","8","488","3","left","out","Female","Right-handed","3","2","no","left","s","767.274070807","863.386025772","35","red","2"
"100","95","19","724.553435122","1","1","8","489","1","left","in","Female","Right-handed","3","2","no","left","d","504.939755636","774.953751931","35","red","1"
"100","95","19","717.986010364","1","1","8","490","0","right","in","Female","Right-handed","3","2","no","right","d","534.669374411","638.605655993","35","red","0"
"100","95","19","712.904693931","1","1","8","491","2","right","in","Female","Right-handed","3","2","no","right","s","461.203578739","751.190518953","35","red","3"
"100","95","19","716.353665063","1","1","8","492","0","right","in","Female","Right-handed","3","2","no","right","d","609.732684876","974.729375029","35","green","0"
"100","95","19","723.145945265","1","1","8","493","0","left","in","Female","Right-handed","3","2","no","left","d","1071.43049576","687.306284093","35","red","2"
"100","96","19","720.022450519","1","1","8","494","1","left","out","Female","Right-handed","3","2","no","left","d","491.131403531","798.98574969","35","green","0"
"100","96","19","719.062228744","1","1","8","495","1","left","in","Female","Right-handed","3","2","no","left","s","599.496210354","790.617158353","35","green","1"
"100","96","19","710.199832664","1","1","8","496","1","left","out","Female","Right-handed","3","2","no","left","s","496.257498474","463.297570725","35","red","3"
"100","96","19","704.668192554","1","1","8","497","1","right","out","Female","Right-handed","3","2","no","right","s","559.815880086","550.811939058","35","red","0"
"100","93","19","701.971505049","1","0","8","498","2","right","out","Female","Right-handed","3","2","no","right","s","566.419219183","686.509290667","35","red","2"
"100","93","19","696.354832164","1","1","8","499","1","right","in","Female","Right-handed","3","2","no","right","d","547.928330244","519.014306756","35","green","0"
"100","93","19","700.510329267","1","1","8","500","3","left","out","Female","Right-handed","3","2","no","left","s","699.738419382","950.612065295","35","green","1"
"100","93","19","701.142869731","1","1","8","501","2","right","in","Female","Right-handed","3","2","no","right","s","578.216966948","863.286281321","35","red","0"
"100","93","19","705.211880224","1","1","8","502","0","right","out","Female","Right-handed","3","2","no","right","d","831.861006911","838.979425061","35","red","1"
"100","94","19","703.099804481","1","1","8","503","2","left","in","Female","Right-handed","3","2","no","left","s","508.300277615","758.502332286","35","green","1"
"100","94","19","701.698817032","1","1","8","504","0","right","out","Female","Right-handed","3","2","no","right","d","533.102007463","775.028480086","35","green","3"
"100","94","19","697.006106577","1","1","8","505","3","right","out","Female","Right-handed","3","2","no","right","s","570.69347729","494.829004016","35","green","1"
"100","94","19","694.582024904","1","1","8","506","2","right","out","Female","Right-handed","3","2","no","right","d","591.337691727","623.292477667","35","green","0"
"100","94","19","708.565566792","1","1","8","507","2","left","in","Female","Right-handed","3","2","no","left","s","829.012677485","1622.90055575","35","red","0"
"100","92","19","707.305407947","1","0","8","508","1","left","out","Female","Right-handed","3","2","no","left","d","688.453505616","630.385238077","35","red","3"
"100","92","19","721.324152461","1","1","8","509","0","left","out","Female","Right-handed","3","2","no","left","d","593.118017889","1942.99235913","35","red","3"
"100","92","19","719.135319745","1","1","8","510","2","left","out","Female","Right-handed","3","2","no","left","s","552.617602236","710.546419974","35","green","3"
"100","92","19","714.637125999","1","1","8","511","0","right","in","Female","Right-handed","3","2","no","right","d","445.193472158","615.228892664","35","green","0"
"100","93","19","711.664750442","1","1","8","512","3","right","in","Female","Right-handed","3","2","no","right","s","470.794119759","702.855834312","35","red","3"
"100","93","19","714.524568128","1","1","8","513","2","right","in","Female","Right-handed","3","2","no","right","s","828.482203797","846.511253483","35","green","1"
"100","93","19","715.283418916","1","1","8","514","2","right","out","Female","Right-handed","3","2","no","right","d","578.167255084","919.178452121","35","green","2"
"100","93","19","715.334034998","1","1","8","515","1","right","in","Female","Right-handed","3","2","no","right","d","612.569789042","822.653728323","35","red","2"
"100","93","19","716.236295903","1","1","8","516","0","right","out","Female","Right-handed","3","2","no","right","s","517.26733565","998.213259405","35","red","3"
"100","93","19","712.571052552","1","1","8","517","3","left","out","Female","Right-handed","3","2","no","left","s","513.868968508","566.740261605","35","red","3"
"100","93","19","712.06970733","1","1","8","518","3","left","out","Female","Right-handed","3","2","no","left","d","465.547112734","910.463160621","35","red","3"
"100","94","19","716.338362036","1","1","8","519","2","right","out","Female","Right-handed","3","2","no","right","d","587.976207582","1263.02867765","35","green","3"
"100","92","19","726.90290914","1","0","8","520","3","left","out","Female","Right-handed","3","2","no","left","d","1455.67914745","1054.58138121","35","green","2"
"100","92","19","728.398354189","1","1","8","521","2","right","out","Female","Right-handed","3","2","no","right","s","707.142921288","902.189182187","35","red","1"
"100","92","19","730.149792647","1","1","8","522","3","right","in","Female","Right-handed","3","2","no","right","s","627.746981368","1014.70220349","35","red","0"
"100","92","19","726.598089715","1","1","8","523","2","right","in","Female","Right-handed","3","2","no","right","s","574.401340873","502.31432779","35","red","0"
"98","92","19","730.750519686","0","1","8","524","0","left","out","Female","Right-handed","3","2","no","right","d","611.972925955","1297.99055025","35","green","1"
"98","92","19","730.961965568","1","1","8","525","1","left","out","Female","Right-handed","3","2","no","left","s","822.534740575","662.648237573","35","green","3"
"98","92","19","729.175675008","1","1","8","526","0","right","out","Female","Right-handed","3","2","no","right","s","564.104570669","694.182236635","35","green","3"
"98","93","19","728.601265643","1","1","8","527","0","left","in","Female","Right-handed","3","2","no","left","d","584.884771106","806.8350926","35","red","1"
"98","93","19","728.513032216","1","1","8","528","0","right","in","Female","Right-handed","3","2","no","right","d","544.362867098","902.428119851","35","green","0"
"98","93","19","730.178573032","1","1","8","529","1","right","out","Female","Right-handed","3","2","no","right","d","859.030625073","797.860337243","35","red","2"
"98","93","19","727.708811279","1","1","8","530","2","left","in","Female","Right-handed","3","2","no","left","d","512.597306963","646.448905183","35","green","3"
"98","93","19","726.30475485","1","1","8","531","1","left","in","Female","Right-handed","3","2","no","left","s","715.260708253","566.053917166","35","green","0"
"98","93","19","729.867978119","1","1","8","532","3","right","in","Female","Right-handed","3","2","no","right","s","1126.80181451","774.773827055","35","green","0"
"98","93","19","727.992575513","1","1","8","533","3","right","in","Female","Right-handed","3","2","no","right","s","757.272685289","462.411737386","35","green","1"
dis_reply=Yes
dis_loc=3
tar_loc=1
