"acc_1","acc_2","age","avg_rt","correct_1","correct_2","count_block_loop","count_trial_sequence","cue_position","detection","dis_shape","gender","hand","high_loc","low_loc","practice","response_keyboard_response_1","response_keyboard_response_2","response_time_keyboard_response_1","response_time_keyboard_response_2","subject_nr","tar_color","tar_position"
"100","100","20","1052.97788109","1","1","0","0","0","left","in","Male","Right-handed","1","0","yes","left","s","1146.68113722","959.274624958","3","green","2"
"100","100","20","1722.51636917","1","1","0","1","2","left","in","Male","Right-handed","1","0","yes","left","s","2119.14346631","2664.9662482","3","green","1"
"100","100","20","1722.49065871","1","1","0","2","0","left","out","Male","Right-handed","1","0","yes","left","d","2179.44642431","1265.43205125","3","red","1"
"100","100","20","1610.25351212","1","1","0","3","3","right","out","Male","Right-handed","1","0","yes","right","s","1065.08157647","1482.00256827","3","green","3"
"100","100","20","1625.31182891","1","1","0","4","1","right","in","Male","Right-handed","1","0","yes","right","s","2257.61115259","1113.4790395","3","green","1"
"100","100","20","1531.85269925","1","1","0","5","3","left","in","Male","Right-handed","1","0","yes","left","s","1182.9704149","946.143686963","3","red","1"
"100","85","20","1491.5230378","1","0","0","6","0","right","out","Male","Right-handed","1","0","yes","right","s","1401.57553296","1097.51460525","3","green","0"
"100","75","20","1427.15713733","1","0","0","7","3","right","out","Male","Right-handed","1","0","yes","right","s","848.055968206","1105.13569994","3","green","3"
"100","77","20","1410.70748712","1","1","0","8","3","right","in","Male","Right-handed","1","0","yes","right","s","1148.78950218","1409.43106859","3","red","0"
"100","80","20","1379.64783185","1","1","0","9","1","left","in","Male","Right-handed","1","0","yes","left","d","1087.04237512","1113.17949389","3","green","3"
"100","72","20","1461.12367916","1","0","0","10","0","right","in","Male","Right-handed","1","0","yes","right","None","1551.69118194","3000.07312248","3","red","1"
"100","75","20","1503.16556748","1","1","0","11","1","left","in","Male","Right-handed","1","0","yes","left","s","1466.08463735","2465.1680406","3","red","1"
"100","76","20","1449.35860924","1","1","0","12","2","left","out","Male","Right-handed","1","0","yes","left","s","805.652303871","801.697916907","3","green","2"
"100","78","20","1404.55944345","1","1","0","13","1","left","out","Male","Right-handed","1","0","yes","left","s","891.176746023","753.163830284","3","green","0"
"100","73","20","1407.51349559","1","0","0","14","2","right","out","Male","Right-handed","1","0","yes","right","s","1311.88952347","1585.85092763","3","green","1"
"100","68","20","1399.77425037","1","0","0","15","1","left","out","Male","Right-handed","1","0","yes","left","d","1238.09161862","1329.27952545","3","green","2"
"100","70","20","1379.32917743","1","1","0","16","1","right","out","Male","Right-handed","1","0","yes","right","s","982.71358821","1121.70243254","3","green","2"
"100","72","20","1380.88275195","1","1","0","17","3","left","in","Male","Right-handed","1","0","yes","left","d","1333.314732","1481.27230556","3","red","0"
"100","73","20","1362.04254223","1","1","0","18","2","right","out","Male","Right-handed","1","0","yes","right","d","1419.92029649","625.917238177","3","red","0"
"100","75","20","1357.53747688","1","1","0","19","2","right","out","Male","Right-handed","1","0","yes","right","s","1358.46277296","1185.4196974","3","red","3"
"100","76","20","1352.98112181","1","1","0","20","2","left","in","Male","Right-handed","1","0","yes","left","d","1186.99439651","1336.71364466","3","red","0"
"100","72","20","1351.77937646","1","0","0","21","0","right","in","Male","Right-handed","1","0","yes","right","d","947.587856023","1705.49759209","3","green","0"
"100","100","20","717.672646033","1","1","1","22","1","right","out","Male","Right-handed","1","0","no","right","d","610.049017721","825.296274345","3","green","3"
"100","100","20","884.721441821","1","1","1","23","1","right","out","Male","Right-handed","1","0","no","right","d","909.751139812","1193.78933541","3","green","2"
"100","100","20","1095.22204433","1","1","1","24","0","left","in","Male","Right-handed","1","0","no","left","s","1063.30033842","1969.1461603","3","green","0"
"100","100","20","1028.785644","1","1","1","25","0","right","in","Male","Right-handed","1","0","no","right","d","1001.04263682","657.910249207","3","red","1"
"100","80","20","1077.20656717","1","0","1","26","1","left","out","Male","Right-handed","1","0","no","left","d","1084.39617505","1457.38434461","3","red","1"
"100","66","20","1088.75784036","1","0","1","27","2","left","out","Male","Right-handed","1","0","no","left","d","1124.13856582","1168.88984675","3","green","2"
"100","71","20","1096.6558055","1","1","1","28","3","right","out","Male","Right-handed","1","0","no","right","s","998.532418917","1289.55477387","3","red","2"
"100","75","20","1121.9500628","1","1","1","29","2","left","out","Male","Right-handed","1","0","no","left","d","1197.03334385","1400.98638382","3","green","3"
"100","66","20","1183.07717658","1","0","1","30","2","right","out","Male","Right-handed","1","0","no","right","d","2310.63906485","1033.5491088","3","red","3"
"100","70","20","1168.51802854","1","1","1","31","3","left","in","Male","Right-handed","1","0","no","left","d","1090.00511857","984.966273858","3","red","1"
"100","72","20","1167.02724973","1","1","1","32","0","right","in","Male","Right-handed","1","0","no","right","d","1262.62324987","1041.61567336","3","red","1"
"100","75","20","1157.11488184","1","1","1","33","1","left","out","Male","Right-handed","1","0","no","left","d","1134.91451084","961.243159199","3","red","3"
"100","76","20","1140.89240959","1","1","1","34","2","left","in","Male","Right-handed","1","0","no","left","s","1058.7208825","833.724602766","3","red","3"
"100","78","20","1131.41860551","1","1","1","35","0","right","in","Male","Right-handed","1","0","no","right","d","1207.3285406","809.189764391","3","green","1"
"100","73","20","1135.7104448","1","0","1","36","1","left","in","Male","Right-handed","1","0","no","left","d","1222.83563862","1168.756751","3","green","1"
"100","75","20","1129.41324659","1","1","1","37","3","right","in","Male","Right-handed","1","0","no","right","s","1004.39697042","1065.51357641","3","red","1"
"100","76","20","1126.46750562","1","1","1","38","1","left","in","Male","Right-handed","1","0","no","left","s","1109.78763691","1048.88366341","3","green","1"
"100","77","20","1121.02276226","1","1","1","39","3","right","in","Male","Right-handed","1","0","no","right","s","1095.56755876","961.356691477","3","green","1"
"100","73","20","1128.62798589","1","0","1","40","1","left","in","Male","Right-handed","1","0","no","left","s","1433.95019204","1097.09383026","3","red","3"
"100","70","20","1141.57030855","1","0","1","41","0","left","out","Male","Right-handed","1","0","no","left","d","1277.51522102","1497.43365738","3","green","1"
"100","71","20","1154.68307054","1","1","1","42","2","left","out","Male","Right-handed","1","0","no","left","s","1176.93973424","1656.93688632","3","red","0"
"100","72","20","1170.62959625","1","1","1","43","1","left","in","Male","Right-handed","1","0","no","left","s","1305.50766247","1705.50560991","3","green","2"
"100","69","20","1166.62397702","1","0","1","44","0","right","in","Male","Right-handed","1","0","no","right","s","1403.87215624","753.128551893","3","green","3"
"100","70","20","1166.95245504","1","1","1","45","2","left","in","Male","Right-handed","1","0","no","left","s","931.577559864","1417.43733916","3","green","1"
"100","68","20","1177.8778444","1","0","1","46","2","right","in","Male","Right-handed","1","0","no","right","s","1575.14072871","1305.03364917","3","red","1"
"100","69","20","1166.61943556","1","1","1","47","3","right","out","Male","Right-handed","1","0","no","right","s","1096.7881911","673.530238071","3","green","1"
"100","70","20","1158.34263519","1","1","1","48","1","left","out","Male","Right-handed","1","0","no","left","s","861.215449626","1025.07620132","3","red","0"
"100","71","20","1152.94865844","1","1","1","49","0","right","in","Male","Right-handed","1","0","no","right","s","1181.78794736","832.834625164","3","green","2"
"100","72","20","1142.70552793","1","1","1","50","3","right","in","Male","Right-handed","1","0","no","right","d","854.422114292","857.373632802","3","red","0"
"100","73","20","1145.46602114","1","1","1","51","1","left","in","Male","Right-handed","1","0","no","left","d","1258.04475609","1192.99589231","3","red","1"
"100","74","20","1134.66309281","1","1","1","52","1","right","out","Male","Right-handed","1","0","no","right","d","635.558822548","985.591663524","3","green","3"
"100","75","20","1126.75395242","1","1","1","53","3","right","out","Male","Right-handed","1","0","no","right","s","658.105242497","1105.0359583","3","red","3"
"100","72","20","1127.32698894","1","0","1","54","0","left","out","Male","Right-handed","1","0","no","left","d","827.678527903","1463.64978692","3","green","3"
"100","70","20","1129.55991603","1","0","1","55","1","right","in","Male","Right-handed","1","0","no","right","s","893.253039715","1513.2399803","3","red","1"
"100","71","20","1119.32109989","1","1","1","56","0","left","out","Male","Right-handed","1","0","no","left","d","1029.60402251","512.79867969","3","green","0"
"100","72","20","1136.54471996","1","1","1","57","2","right","in","Male","Right-handed","1","0","no","right","s","1421.41417601","2057.32866889","3","green","2"
"100","72","20","1124.31965579","1","1","1","58","2","right","out","Male","Right-handed","1","0","no","right","d","655.757305193","712.677386167","3","red","3"
"100","73","20","1118.29541767","1","1","1","59","0","left","in","Male","Right-handed","1","0","no","left","s","1077.36551236","713.431702317","3","green","2"
"100","74","20","1111.2764097","1","1","1","60","2","right","in","Male","Right-handed","1","0","no","right","d","1167.97549499","521.132718592","3","red","2"
"100","75","20","1102.06280772","1","1","1","61","3","right","in","Male","Right-handed","1","0","no","right","s","716.740174006","768.724487309","3","red","3"
"100","73","20","1101.40675441","1","0","1","62","3","left","in","Male","Right-handed","1","0","no","left","s","1077.15544557","1073.17379803","3","red","2"
"100","73","20","1096.67514371","1","1","1","63","3","left","out","Male","Right-handed","1","0","no","left","s","860.632714743","944.725495629","3","green","0"
"100","74","20","1094.54555197","1","1","1","64","0","left","in","Male","Right-handed","1","0","no","left","d","873.060329898","1137.14506731","3","red","3"
"100","72","20","1091.82425539","1","0","1","65","1","right","in","Male","Right-handed","1","0","no","right","s","996.728089553","952.888915401","3","green","2"
"100","73","20","1092.048443","1","1","1","66","3","left","out","Male","Right-handed","1","0","no","left","s","1219.36392419","984.461472148","3","green","1"
"100","73","20","1087.74189124","1","1","1","67","3","left","out","Male","Right-handed","1","0","no","left","s","834.90546674","952.988657035","3","green","3"
"100","74","20","1085.2154901","1","1","1","68","2","right","out","Male","Right-handed","1","0","no","right","d","881.651580343","1056.35049531","3","red","1"
"100","72","20","1083.27742243","1","0","1","69","0","right","out","Male","Right-handed","1","0","no","right","s","1143.12411323","841.252370066","3","green","2"
"100","73","20","1075.72427192","1","1","1","70","1","right","out","Male","Right-handed","1","0","no","right","s","865.648981288","560.697113843","3","red","0"
"100","74","20","1072.66522154","1","1","1","71","0","right","in","Male","Right-handed","1","0","no","right","s","1141.26301773","704.280487586","3","green","1"
"100","74","20","1081.25572535","1","1","1","72","2","right","out","Male","Right-handed","1","0","no","right","s","1556.81039725","1464.75143487","3","red","2"
"100","75","20","1076.67088885","1","1","1","73","2","right","out","Male","Right-handed","1","0","no","right","d","805.268090117","880.420364484","3","green","1"
"100","73","20","1074.17567409","1","0","1","74","1","left","in","Male","Right-handed","1","0","no","left","s","1287.94511709","600.90389653","3","green","1"
"100","74","20","1071.71762007","1","1","1","75","3","left","out","Male","Right-handed","1","0","no","left","s","1050.44906185","832.432451501","3","red","1"
"100","74","20","1077.18689291","1","1","1","76","3","left","in","Male","Right-handed","1","0","no","left","d","912.102604956","1832.95264742","3","red","2"
"100","73","20","1083.46043863","1","0","1","77","0","right","out","Male","Right-handed","1","0","no","right","d","1056.5377915","1800.4731153","3","green","1"
"100","73","20","1083.99755174","1","1","1","78","0","left","out","Male","Right-handed","1","0","no","left","s","771.175052661","1456.97671883","3","red","2"
"100","72","20","1088.70738249","1","0","1","79","2","right","in","Male","Right-handed","1","0","no","right","s","1097.61562974","1616.71984082","3","green","1"
"100","72","20","1088.04525988","1","1","1","80","1","left","out","Male","Right-handed","1","0","no","left","d","1179.10486534","920.179432313","3","red","2"
"100","73","20","1085.27234063","1","1","1","81","0","left","out","Male","Right-handed","1","0","no","left","d","882.621094682","960.719114731","3","red","3"
"100","73","20","1086.75525318","1","1","1","82","3","right","out","Male","Right-handed","1","0","no","right","d","703.257414236","1648.20259803","3","red","3"
"100","74","20","1086.64375258","1","1","1","83","2","right","out","Male","Right-handed","1","0","no","right","s","998.852490141","1160.83194144","3","green","0"
"100","74","20","1083.70133074","1","1","1","84","2","left","in","Male","Right-handed","1","0","no","left","d","1018.21904417","784.323309139","3","red","1"
"100","75","20","1088.85241467","1","1","1","85","3","left","in","Male","Right-handed","1","0","no","left","d","1137.86153937","1688.87986617","3","green","2"
"100","100","20","859.090247256","1","1","2","86","0","left","out","Male","Right-handed","1","0","no","left","d","732.669971289","985.510523224","3","red","3"
"100","50","20","840.656485964","1","0","2","87","3","right","in","Male","Right-handed","1","0","no","right","s","1011.16689373","633.278555612","3","green","2"
"100","66","20","809.053782228","1","1","2","88","0","right","in","Male","Right-handed","1","0","no","right","d","762.807980357","728.888769156","3","green","0"
"100","50","20","810.395243062","1","0","2","89","3","right","out","Male","Right-handed","1","0","no","right","d","899.426758211","729.412492912","3","green","1"
"100","60","20","792.293691967","1","1","2","90","1","left","out","Male","Right-handed","1","0","no","left","d","822.876176695","616.898798482","3","green","1"
"100","50","20","805.759181362","1","0","2","91","1","left","out","Male","Right-handed","1","0","no","left","s","1000.61640971","745.556846958","3","green","1"
"100","42","20","806.599666129","1","0","2","92","0","left","out","Male","Right-handed","1","0","no","left","d","782.164271584","841.12087788","3","red","1"
"100","50","20","846.113511912","1","1","2","93","1","right","out","Male","Right-handed","1","0","no","right","d","844.657696976","1400.76316782","3","red","2"
"100","55","20","842.96303352","1","1","2","94","0","left","in","Male","Right-handed","1","0","no","left","d","658.20241843","977.315994324","3","red","3"
"100","50","20","841.803514754","1","0","2","95","1","left","out","Male","Right-handed","1","0","no","left","d","957.872789969","704.862901756","3","red","0"
"100","54","20","828.368643213","1","1","2","96","1","right","out","Male","Right-handed","1","0","no","right","d","650.515256942","737.52459866","3","red","3"
"100","58","20","822.506234654","1","1","2","97","0","right","out","Male","Right-handed","1","0","no","right","s","699.000595243","817.038885767","3","green","0"
"100","61","20","831.858684237","1","1","2","98","0","right","out","Male","Right-handed","1","0","no","right","d","911.662266489","976.513891989","3","green","1"
"100","57","20","807.170889719","1","0","2","99","0","right","out","Male","Right-handed","1","0","no","right","d","539.144582393","433.314539572","3","green","3"
"100","53","20","801.58008708","1","0","2","100","1","right","in","Male","Right-handed","1","0","no","right","d","933.776686499","512.84101376","3","red","2"
"100","50","20","801.465821172","1","0","2","101","3","right","in","Male","Right-handed","1","0","no","right","s","974.218872272","625.284792833","3","red","2"
"100","52","20","805.02301849","1","1","2","102","1","right","out","Male","Right-handed","1","0","no","right","d","963.04107431","760.835276852","3","red","1"
"100","50","20","804.048384278","1","0","2","103","0","right","in","Male","Right-handed","1","0","no","right","d","758.58451548","816.374689871","3","green","2"
"100","47","20","811.263061951","1","0","2","104","2","right","in","Male","Right-handed","1","0","no","right","d","1161.09364296","721.160877162","3","green","2"
"100","45","20","809.381269932","1","0","2","105","2","left","out","Male","Right-handed","1","0","no","left","d","906.662997714","640.591445439","3","green","1"
"100","47","20","803.446411726","1","1","2","106","3","right","out","Male","Right-handed","1","0","no","right","s","664.223798418","705.274696799","3","red","3"
"100","50","20","803.947227783","1","1","2","107","3","left","in","Male","Right-handed","1","0","no","left","s","731.939067162","896.98966279","3","green","3"
"100","52","20","812.314906969","1","1","2","108","1","left","out","Male","Right-handed","1","0","no","left","s","856.384875705","1136.42282242","3","green","1"
"100","50","20","820.072473308","1","0","2","109","2","right","out","Male","Right-handed","1","0","no","right","s","699.995766593","1296.99723161","3","green","0"
"100","52","20","821.171345223","1","1","2","110","0","right","out","Male","Right-handed","1","0","no","right","s","878.446698841","816.641843508","3","green","2"
"100","53","20","824.342431754","1","1","2","111","2","right","in","Male","Right-handed","1","0","no","right","s","1022.04546679","785.193723268","3","green","1"
"100","55","20","823.652711105","1","1","2","112","2","left","out","Male","Right-handed","1","0","no","left","d","722.760271144","888.679677338","3","green","2"
"100","57","20","828.907178062","1","1","2","113","3","left","in","Male","Right-handed","1","0","no","left","d","1196.20911234","745.346459461","3","green","1"
"100","55","20","840.647682955","1","0","2","114","1","right","out","Male","Right-handed","1","0","no","right","d","937.952685904","1400.810954","3","green","2"
"100","56","20","840.458894901","1","1","2","115","0","left","in","Male","Right-handed","1","0","no","left","d","709.39713719","960.570945486","3","red","1"
"100","54","20","842.106996857","1","0","2","116","3","right","in","Male","Right-handed","1","0","no","right","d","966.02883335","817.071277746","3","red","1"
"100","56","20","856.119175297","1","1","2","117","2","left","in","Male","Right-handed","1","0","no","left","d","1036.60389679","1544.38951706","3","green","2"
"100","54","20","878.056410984","1","0","2","118","3","left","in","Male","Right-handed","1","0","no","left","d","1303.02662941","1857.0692765","3","green","1"
"100","55","20","877.026352128","1","1","2","119","0","left","out","Male","Right-handed","1","0","no","left","d","869.619403886","816.449415918","3","red","1"
"100","57","20","870.443745352","1","1","2","120","3","right","in","Male","Right-handed","1","0","no","right","d","628.040035202","665.230194711","3","green","0"
"100","58","20","870.048014069","1","1","2","121","2","right","in","Male","Right-handed","1","0","no","right","d","711.723907461","1000.67093086","3","red","3"
"100","56","20","865.312562387","1","0","2","122","3","left","in","Male","Right-handed","1","0","no","left","d","677.302780964","712.369822735","3","red","3"
"100","57","20","863.576911721","1","1","2","123","0","left","in","Male","Right-handed","1","0","no","left","d","965.898944727","632.816729398","3","red","2"
"100","58","20","861.704297938","1","1","2","124","0","right","in","Male","Right-handed","1","0","no","right","s","1004.45886796","576.631080391","3","red","2"
"100","60","20","859.904207942","1","1","2","125","3","right","in","Male","Right-handed","1","0","no","right","d","754.207108532","825.194287722","3","red","2"
"100","60","20","866.155851986","1","1","2","126","3","right","out","Male","Right-handed","1","0","no","right","d","1183.64808073","1048.79514672","3","green","2"
"100","61","20","859.824102704","1","1","2","127","2","right","in","Male","Right-handed","1","0","no","right","d","512.222679772","688.222084529","3","green","2"
"100","62","20","857.487672253","1","1","2","128","2","right","in","Male","Right-handed","1","0","no","right","d","821.907945206","696.807241435","3","red","1"
"100","63","20","859.986999913","1","1","2","129","3","left","in","Male","Right-handed","1","0","no","left","s","998.465389974","936.450788568","3","green","3"
"100","64","20","859.434478833","1","1","2","130","2","left","out","Male","Right-handed","1","0","no","left","d","861.101596635","809.145506046","3","green","3"
"100","63","20","864.521930805","1","0","2","131","2","left","in","Male","Right-handed","1","0","no","left","d","818.337130571","1368.57740849","3","green","1"
"100","63","20","877.406760781","1","1","2","132","2","right","out","Male","Right-handed","1","0","no","right","s","1084.13832208","1856.07955726","3","red","1"
"100","64","20","884.962320406","1","1","2","133","3","left","out","Male","Right-handed","1","0","no","left","d","1543.58324546","936.564000133","3","red","1"
"100","63","20","885.794300902","1","0","2","134","3","left","out","Male","Right-handed","1","0","no","left","d","1011.24867546","840.210053957","3","red","0"
"100","62","20","886.852590204","1","0","2","135","0","left","out","Male","Right-handed","1","0","no","left","d","1084.5546071","792.862924847","3","red","1"
"100","60","20","889.272266274","1","0","2","136","1","left","in","Male","Right-handed","1","0","no","left","s","1052.22933777","968.282801849","3","red","1"
"100","61","20","886.031281621","1","1","2","137","1","left","in","Male","Right-handed","1","0","no","left","s","680.767760425","760.714368183","3","green","1"
"100","62","20","890.735091424","1","1","2","138","1","left","in","Male","Right-handed","1","0","no","left","d","1022.18978748","1248.47661492","3","red","3"
"100","61","20","891.665794209","1","0","2","139","0","right","out","Male","Right-handed","1","0","no","right","s","920.933748464","961.052335173","3","red","1"
"100","61","20","895.107164091","1","1","2","140","3","right","in","Male","Right-handed","1","0","no","right","s","1185.46299361","976.419281757","3","red","1"
"100","60","20","894.329929793","1","0","2","141","1","right","in","Male","Right-handed","1","0","no","right","d","799.087957368","904.076129486","3","green","2"
"100","61","20","890.440175973","1","1","2","142","1","right","out","Male","Right-handed","1","0","no","right","d","696.593326098","648.634597967","3","red","3"
"100","60","20","894.463157659","1","0","2","143","1","left","out","Male","Right-handed","1","0","no","left","d","1023.28085192","1224.26537561","3","red","3"
"100","61","20","896.477250949","1","1","2","144","2","left","out","Male","Right-handed","1","0","no","left","s","929.753987741","1096.83533586","3","green","0"
"100","60","20","895.364718701","1","0","2","145","2","right","out","Male","Right-handed","1","0","no","right","d","619.141542037","1040.30909002","3","red","3"
"100","60","20","896.603338116","1","1","2","146","0","left","in","Male","Right-handed","1","0","no","left","d","725.932439957","1215.90856611","3","red","3"
"100","59","20","896.399380813","1","0","2","147","2","left","in","Male","Right-handed","1","0","no","left","d","775.368370549","992.547600171","3","green","3"
"100","60","20","898.392887534","1","1","2","148","2","left","in","Male","Right-handed","1","0","no","left","s","1011.98855954","1031.99204889","3","red","1"
"100","59","20","895.834029881","1","0","2","149","1","left","out","Male","Right-handed","1","0","no","left","s","812.675590176","656.576405299","3","green","0"
"100","0","20","1000.3080445","1","0","3","150","1","right","in","Male","Right-handed","1","0","no","right","s","719.802017667","1280.81407133","3","green","2"
"100","50","20","822.317976329","1","1","3","151","2","left","out","Male","Right-handed","1","0","no","left","d","583.33044692","705.325369397","3","green","2"
"100","66","20","790.863816001","1","1","3","152","2","left","out","Male","Right-handed","1","0","no","left","s","670.920599245","784.990391449","3","red","2"
"100","75","20","810.424267556","1","1","3","153","0","left","out","Male","Right-handed","1","0","no","left","s","945.58628838","792.624956063","3","red","1"
"100","80","20","805.067227786","1","1","3","154","1","right","in","Male","Right-handed","1","0","no","right","s","742.116241659","825.161895746","3","green","3"
"100","66","20","809.089782223","1","0","3","155","3","left","in","Male","Right-handed","1","0","no","left","d","753.771580754","904.63352807","3","green","3"
"100","71","20","844.980494257","1","1","3","156","0","right","out","Male","Right-handed","1","0","no","right","s","967.30366613","1153.34586678","3","red","1"
"100","75","20","823.523695533","1","1","3","157","0","left","out","Male","Right-handed","1","0","no","left","s","753.748489443","592.903719496","3","green","2"
"100","77","20","833.786927923","1","1","3","158","2","right","out","Male","Right-handed","1","0","no","right","d","727.49463127","1104.29094282","3","red","0"
"100","80","20","868.450518528","1","1","3","159","3","right","in","Male","Right-handed","1","0","no","right","s","1271.82994789","1089.01572005","3","red","1"
"100","81","20","875.226160729","1","1","3","160","1","left","in","Male","Right-handed","1","0","no","left","s","893.513779099","992.451386376","3","green","1"
"100","83","20","885.552448384","1","1","3","161","3","left","out","Male","Right-handed","1","0","no","left","d","1037.08721075","961.19601444","3","green","1"
"100","84","20","894.024908715","1","1","3","162","1","left","out","Male","Right-handed","1","0","no","left","d","878.691402591","1112.69746278","3","red","3"
"100","85","20","898.686473238","1","1","3","163","1","right","out","Male","Right-handed","1","0","no","right","d","830.330821512","1088.24280257","3","red","2"
"100","86","20","910.295645748","1","1","3","164","2","left","in","Male","Right-handed","1","0","no","left","d","1064.76214667","1080.88597511","3","red","2"
"100","87","20","912.082881128","1","1","3","165","1","right","out","Male","Right-handed","1","0","no","right","d","893.307240152","984.475583505","3","red","1"
"100","82","20","904.070007647","1","0","3","166","0","left","in","Male","Right-handed","1","0","no","left","d","798.748643386","752.97942051","3","red","1"
"100","77","20","894.764905869","1","0","3","167","2","left","in","Male","Right-handed","1","0","no","left","d","808.618895876","664.537455389","3","red","3"
"100","78","20","893.854468769","1","1","3","168","1","left","out","Male","Right-handed","1","0","no","left","s","929.901194847","825.032007122","3","green","1"
"100","80","20","892.8428322","1","1","3","169","0","right","out","Male","Right-handed","1","0","no","right","s","962.731265891","784.512208889","3","red","1"
"100","76","20","890.451156563","1","0","3","170","1","left","out","Male","Right-handed","1","0","no","left","d","765.04078182","920.194505808","3","green","3"
"100","77","20","892.038464467","1","1","3","171","1","left","in","Male","Right-handed","1","0","no","left","d","881.782431104","968.961429814","3","green","2"
"100","73","20","889.724559148","1","0","3","172","0","left","in","Male","Right-handed","1","0","no","left","d","829.345912966","848.29137129","3","green","2"
"100","75","20","891.232630203","1","1","3","173","3","left","in","Male","Right-handed","1","0","no","left","s","882.947580159","968.888948755","3","green","1"
"100","72","20","898.359240501","1","0","3","174","2","left","out","Male","Right-handed","1","0","no","left","d","706.2737167","1432.52205862","3","red","3"
"100","69","20","911.001999323","1","0","3","175","3","left","in","Male","Right-handed","1","0","no","left","s","1206.03157865","1248.11036107","3","red","2"
"100","66","20","921.687506337","1","0","3","176","1","left","out","Male","Right-handed","1","0","no","left","d","1014.41891999","1384.60245743","3","green","2"
"100","67","20","935.701036846","1","1","3","177","2","right","in","Male","Right-handed","1","0","no","right","s","1380.07623981","1248.05648135","3","green","2"
"100","65","20","940.300446264","1","0","3","178","3","left","in","Male","Right-handed","1","0","no","left","s","1033.52858319","1104.63923676","3","red","3"
"100","66","20","938.210047115","1","1","3","179","0","right","out","Male","Right-handed","1","0","no","right","d","706.985057356","1048.19188623","3","green","3"
"100","67","20","934.971046269","1","1","3","180","3","right","in","Male","Right-handed","1","0","no","right","s","626.83896633","1048.76307545","3","green","3"
"100","65","20","930.263750475","1","0","3","181","3","left","out","Male","Right-handed","1","0","no","left","s","736.343413973","832.33174773","3","red","1"
"100","66","20","932.554800462","1","1","3","182","3","right","in","Male","Right-handed","1","0","no","right","d","858.82004685","1152.91675326","3","red","2"
"100","67","20","932.551828296","1","1","3","183","3","right","out","Male","Right-handed","1","0","no","right","d","704.503382876","1160.40411077","3","green","2"
"100","65","20","929.350306729","1","0","3","184","0","left","out","Male","Right-handed","1","0","no","left","d","697.077922911","943.91922403","3","green","0"
"100","66","20","933.259987241","1","1","3","185","2","right","in","Male","Right-handed","1","0","no","right","d","1187.49278397","952.704826341","3","red","1"
"100","64","20","933.553535505","1","0","3","186","1","left","in","Male","Right-handed","1","0","no","left","d","1104.11262658","784.12991941","3","red","1"
"100","65","20","929.714514766","1","1","3","187","1","right","out","Male","Right-handed","1","0","no","right","d","742.592499941","832.748994887","3","red","0"
"100","66","20","936.878701476","1","1","3","188","0","left","out","Male","Right-handed","1","0","no","left","d","1465.99740351","952.238189437","3","red","2"
"100","67","20","934.926641792","1","1","3","189","3","right","out","Male","Right-handed","1","0","no","right","d","1036.83128206","680.761346173","3","green","1"
"100","68","20","935.192730624","1","1","3","190","0","right","in","Male","Right-handed","1","0","no","right","d","843.40659693","1048.26597085","3","green","3"
"100","69","20","933.224770574","1","1","3","191","3","right","out","Male","Right-handed","1","0","no","right","d","825.061833399","880.014983695","3","green","2"
"100","67","20","930.453010794","1","0","3","192","2","right","out","Male","Right-handed","1","0","no","right","d","787.579183953","840.499016053","3","green","1"
"100","68","20","928.854089914","1","1","3","193","2","right","in","Male","Right-handed","1","0","no","right","d","872.202102849","847.998881354","3","red","0"
"100","68","20","924.527789822","1","1","3","194","3","right","out","Male","Right-handed","1","0","no","right","d","723.663718676","744.677452874","3","red","0"
"100","67","20","921.145122502","1","0","3","195","1","right","out","Male","Right-handed","1","0","no","right","d","729.449695579","808.400490562","3","green","1"
"100","68","20","916.704323108","1","1","3","196","2","right","in","Male","Right-handed","1","0","no","right","s","552.943244124","871.911857901","3","green","3"
"100","68","20","919.492409026","1","1","3","197","2","left","in","Male","Right-handed","1","0","no","left","s","1012.51901826","1088.54587602","3","red","1"
"100","67","20","916.15864474","1","0","3","198","2","right","out","Male","Right-handed","1","0","no","right","d","576.12724082","936.148677253","3","green","3"
"100","68","20","915.130600605","1","1","3","199","2","right","out","Male","Right-handed","1","0","no","right","s","920.678781908","808.834094064","3","red","1"
"100","68","20","930.858767356","1","1","3","200","1","right","in","Male","Right-handed","1","0","no","right","d","1850.33815942","1584.19605036","3","red","0"
"100","69","20","934.644889562","1","1","3","201","0","right","out","Male","Right-handed","1","0","no","right","d","1263.74734771","991.726896502","3","green","1"
"100","69","20","933.608572559","1","1","3","202","3","right","in","Male","Right-handed","1","0","no","right","d","911.139184159","848.300992669","3","red","1"
"100","68","20","932.086417995","1","0","3","203","0","left","out","Male","Right-handed","1","0","no","left","d","1014.81949009","688.004962066","3","red","1"
"100","69","20","934.428631173","1","1","3","204","3","left","in","Male","Right-handed","1","0","no","left","d","1105.3451253","1016.47116024","3","green","0"
"100","67","20","936.865899549","1","0","3","205","0","right","in","Male","Right-handed","1","0","no","right","d","1173.93818456","967.89313598","3","red","2"
"100","68","20","934.447572349","1","1","3","206","1","right","in","Male","Right-handed","1","0","no","right","s","797.533463157","800.509035117","3","green","1"
"100","67","20","935.690536469","1","0","3","207","1","left","out","Male","Right-handed","1","0","no","left","s","1069.01896566","944.060016883","3","red","3"
"100","67","20","931.612748565","1","1","3","208","3","left","in","Male","Right-handed","1","0","no","left","d","686.486387673","703.715712611","3","green","3"
"100","68","20","942.105142328","1","1","3","209","2","left","in","Male","Right-handed","1","0","no","left","d","1074.1744215","2048.13832721","3","red","1"
"100","68","20","940.550187597","1","1","3","210","0","left","out","Male","Right-handed","1","0","no","left","d","758.746154655","935.759652809","3","green","3"
"100","67","20","940.336165412","1","0","3","211","2","left","in","Male","Right-handed","1","0","no","left","d","1014.23932091","840.322303384","3","green","1"
"100","66","20","937.073187461","1","0","3","212","0","right","in","Male","Right-handed","1","0","no","right","d","653.744833319","815.7922757","3","green","3"
"100","65","20","935.000277917","1","0","3","213","0","right","in","Male","Right-handed","1","0","no","right","s","800.304741159","808.50921215","3","red","0"
"100","100","20","821.123000998","1","1","4","214","0","left","in","Male","Right-handed","1","0","no","left","d","849.573580462","792.672421535","3","green","2"
"100","100","20","787.410970169","1","1","4","215","0","left","in","Male","Right-handed","1","0","no","left","d","499.200784078","1008.1970946","3","green","3"
"100","100","20","737.667689954","1","1","4","216","3","right","in","Male","Right-handed","1","0","no","right","d","531.697955393","744.664303655","3","red","3"
"100","100","20","766.220362944","1","1","4","217","1","left","in","Male","Right-handed","1","0","no","left","d","991.321515714","712.435248117","3","red","1"
"100","80","20","804.875345408","1","0","4","218","2","right","out","Male","Right-handed","1","0","no","right","d","894.979756618","1024.0107939","3","red","0"
"100","83","20","876.31310449","1","1","4","219","1","right","out","Male","Right-handed","1","0","no","right","d","1098.5046452","1368.4991546","3","red","1"
"100","71","20","868.925106816","1","0","4","220","1","left","out","Male","Right-handed","1","0","no","left","d","977.010034456","672.184207083","3","red","1"
"100","75","20","854.310626557","1","1","4","221","3","right","in","Male","Right-handed","1","0","no","right","s","719.370338441","784.648191052","3","green","3"
"100","66","20","824.973477064","1","0","4","222","2","right","out","Male","Right-handed","1","0","no","right","s","628.219954997","552.33260724","3","green","0"
"100","70","20","856.909545563","1","1","4","223","3","left","out","Male","Right-handed","1","0","no","left","s","1015.77874163","1272.88958248","3","red","1"
"100","72","20","856.131979203","1","1","4","224","1","left","out","Male","Right-handed","1","0","no","left","d","776.27759091","920.435040295","3","green","3"
"100","75","20","869.65425466","1","1","4","225","3","right","in","Male","Right-handed","1","0","no","right","s","972.929607422","1063.86896194","3","green","1"
"100","76","20","880.572517965","1","1","4","226","2","left","in","Male","Right-handed","1","0","no","left","d","982.587868852","1040.59548642","3","green","1"
"100","78","20","898.000984313","1","1","4","227","2","left","out","Male","Right-handed","1","0","no","left","d","833.0738768","1416.06821686","3","red","2"
"100","73","20","892.94842684","1","0","4","228","0","left","in","Male","Right-handed","1","0","no","left","d","779.604663932","864.820580516","3","red","2"
"93","75","20","907.807300446","0","1","4","229","1","left","out","Male","Right-handed","1","0","no","right","s","1242.14959577","1019.23121329","3","green","0"
"94","76","20","893.162900595","1","1","4","230","2","right","out","Male","Right-handed","1","0","no","right","s","644.833190937","672.871815003","3","red","3"
"94","77","20","883.343446472","1","1","4","231","0","left","out","Male","Right-handed","1","0","no","left","d","648.398553458","784.426899325","3","green","3"
"94","73","20","889.346320778","1","0","4","232","0","left","in","Male","Right-handed","1","0","no","left","d","930.924909623","1063.87120693","3","green","0"
"95","75","20","893.12113862","1","1","4","233","3","right","out","Male","Right-handed","1","0","no","right","s","1033.23128257","896.454072665","3","green","2"
"95","76","20","905.356124213","1","1","4","234","2","right","in","Male","Right-handed","1","0","no","right","d","1324.08301839","976.028653751","3","red","1"
"95","77","20","900.775507968","1","1","4","235","3","right","out","Male","Right-handed","1","0","no","right","s","808.598049555","800.567084107","3","green","0"
"95","78","20","900.599611341","1","1","4","236","1","right","in","Male","Right-handed","1","0","no","right","s","889.171009115","904.288761972","3","red","1"
"95","75","20","897.397515738","1","0","4","237","2","right","in","Male","Right-handed","1","0","no","right","s","583.759560444","1063.73907332","3","green","3"
"96","76","20","896.89606601","1","1","4","238","2","left","out","Male","Right-handed","1","0","no","left","s","841.301118389","928.421426685","3","green","2"
"96","76","20","893.37929565","1","1","4","239","3","right","in","Male","Right-handed","1","0","no","right","s","586.976308316","1023.94376496","3","green","3"
"96","77","20","908.99135373","1","1","4","240","2","right","out","Male","Right-handed","1","0","no","right","s","1853.36312112","776.446606475","3","red","1"
"96","75","20","902.295361047","1","0","4","241","2","right","out","Male","Right-handed","1","0","no","right","s","794.873151734","648.133965522","3","red","1"
"96","72","20","904.428985284","1","0","4","242","1","right","out","Male","Right-handed","1","0","no","right","s","1047.66174822","880.679179592","3","red","1"
"96","73","20","904.085136166","1","1","4","243","3","left","out","Male","Right-handed","1","0","no","left","s","700.043552778","1088.18347073","3","red","1"
"96","70","20","901.994166423","1","0","4","244","0","left","out","Male","Right-handed","1","0","no","left","s","830.667249081","847.862899192","3","green","0"
"96","71","20","897.520562492","1","1","4","245","1","right","in","Male","Right-handed","1","0","no","right","s","549.330736843","968.346944378","3","red","3"
"96","72","20","900.620970634","1","1","4","246","2","right","in","Male","Right-handed","1","0","no","right","d","1191.88526441","807.782798001","3","red","2"
"97","73","20","898.560386004","1","1","4","247","0","right","out","Male","Right-handed","1","0","no","right","s","916.5508894","744.571296988","3","green","1"
"97","74","20","895.647429955","1","1","4","248","0","left","out","Male","Right-handed","1","0","no","left","s","752.965950579","840.247898049","3","red","1"
"97","72","20","893.440277995","1","0","4","249","3","right","out","Male","Right-handed","1","0","no","right","s","768.572790225","863.807128544","3","green","1"
"97","70","20","893.797583789","1","0","4","250","0","right","in","Male","Right-handed","1","0","no","right","s","1053.1709501","760.150234633","3","green","1"
"97","71","20","893.899469818","1","1","4","251","2","left","out","Male","Right-handed","1","0","no","left","s","835.71173834","959.626767448","3","green","3"
"97","69","20","889.408620184","1","0","4","252","1","right","in","Male","Right-handed","1","0","no","right","s","781.320797318","656.191870832","3","green","0"
"97","70","20","887.268946581","1","1","4","253","0","left","out","Male","Right-handed","1","0","no","left","s","903.856120608","703.787231531","3","red","1"
"97","70","20","887.7985076","1","1","4","254","3","left","in","Male","Right-handed","1","0","no","left","s","898.464299551","919.497597221","3","red","1"
"97","69","20","886.056217323","1","0","4","255","0","left","in","Male","Right-handed","1","0","no","left","d","605.212991685","1024.03164023","3","green","3"
"97","69","20","888.360616731","1","1","4","256","1","left","out","Male","Right-handed","1","0","no","left","d","1298.64633605","671.644447695","3","green","2"
"97","68","20","888.757231487","1","0","4","257","3","right","out","Male","Right-handed","1","0","no","right","s","779.318908961","1032.30442301","3","red","2"
"97","66","20","885.990116919","1","0","4","258","0","left","out","Male","Right-handed","1","0","no","left","s","720.595460761","807.878691082","3","red","1"
"97","67","20","878.24687743","1","1","4","259","3","left","in","Male","Right-handed","1","0","no","left","s","603.323352756","456.278848103","3","red","2"
"97","68","20","878.741747654","1","1","4","260","0","right","out","Male","Right-handed","1","0","no","right","d","642.967284743","1160.04427117","3","green","3"
"97","66","20","881.38497125","1","0","4","261","2","left","in","Male","Right-handed","1","0","no","left","d","923.756340489","1087.47662005","3","green","1"
"97","65","20","877.652008894","1","0","4","262","0","left","out","Male","Right-handed","1","0","no","left","s","709.07257599","687.867055627","3","green","2"
"98","66","20","879.243377925","1","1","4","263","1","left","in","Male","Right-handed","1","0","no","left","d","1074.71353946","839.72738142","3","red","1"
"98","64","20","882.361392898","1","0","4","264","2","right","in","Male","Right-handed","1","0","no","right","d","916.289187878","1160.2350952","3","green","2"
"98","65","20","879.024869736","1","1","4","265","2","left","out","Male","Right-handed","1","0","no","left","s","641.749538815","775.974838169","3","red","3"
"98","66","20","878.353589302","1","1","4","266","3","right","in","Male","Right-handed","1","0","no","right","d","815.356106497","871.537906953","3","green","1"
"98","66","20","879.931176728","1","1","4","267","2","right","in","Male","Right-handed","1","0","no","right","s","991.000482351","936.086138286","3","red","1"
"98","67","20","880.671074308","1","1","4","268","1","right","out","Male","Right-handed","1","0","no","right","d","961.697288311","879.553798905","3","green","2"
"98","67","20","882.778364147","1","1","4","269","3","left","in","Male","Right-handed","1","0","no","left","d","941.117157614","1056.24145301","3","red","3"
"98","66","20","881.854146954","1","0","4","270","3","left","in","Male","Right-handed","1","0","no","left","d","860.600322766","799.595645492","3","red","2"
"98","67","20","879.678509125","1","1","4","271","3","right","out","Male","Right-handed","1","0","no","right","d","751.09683726","760.237468475","3","green","0"
"98","66","20","876.800972753","1","0","4","272","1","left","in","Male","Right-handed","1","0","no","left","s","675.893569582","743.914156769","3","green","2"
"98","65","20","876.319542796","1","0","4","273","0","right","in","Male","Right-handed","1","0","no","right","d","896.432905631","799.397445075","3","red","1"
"98","65","20","875.896964931","1","1","4","274","1","right","out","Male","Right-handed","1","0","no","right","d","829.010447536","872.074138501","3","red","3"
"98","64","20","881.586077371","1","0","4","275","0","right","in","Male","Right-handed","1","0","no","right","d","905.695086939","1551.54878553","3","red","2"
"98","63","20","880.031235681","1","0","4","276","1","left","in","Male","Right-handed","1","0","no","left","d","799.140874956","768.121226816","3","red","2"
"98","64","20","877.746352615","1","1","4","277","1","left","in","Male","Right-handed","1","0","no","left","d","587.753715777","879.84372314","3","green","3"
"100","0","20","563.059162504","1","0","5","278","2","right","out","Male","Right-handed","1","0","no","right","d","502.136587668","623.981737339","3","green","2"
"100","50","20","640.650216032","1","1","5","279","2","left","in","Male","Right-handed","1","0","no","left","d","723.748707528","712.733831593","3","red","1"
"100","66","20","752.365148883","1","1","5","280","1","left","out","Male","Right-handed","1","0","no","left","s","1143.21615776","808.373871412","3","red","3"
"100","75","20","775.130441852","1","1","5","281","0","right","out","Male","Right-handed","1","0","no","right","d","630.977763067","1055.87487845","3","green","2"
"100","60","20","772.385005272","1","0","5","282","1","right","in","Male","Right-handed","1","0","no","right","d","538.298542425","984.507975482","3","red","2"
"100","66","20","812.081603623","1","1","5","283","2","right","in","Male","Right-handed","1","0","no","right","s","1205.13294181","815.996248944","3","red","1"
"100","71","20","878.86227371","1","1","5","284","0","left","in","Male","Right-handed","1","0","no","left","d","1214.62475337","1344.46783509","3","red","0"
"100","75","20","871.396773342","1","1","5","285","3","right","out","Male","Right-handed","1","0","no","right","s","806.071154592","832.205386947","3","green","0"
"100","77","20","852.547495405","1","1","5","286","0","right","in","Male","Right-handed","1","0","no","right","d","539.669268288","863.837275532","3","green","3"
"100","80","20","851.214763301","1","1","5","287","1","right","out","Male","Right-handed","1","0","no","right","d","942.285834508","736.154514223","3","red","1"
"100","81","20","848.542897474","1","1","5","288","3","left","out","Male","Right-handed","1","0","no","left","s","595.913607711","1047.7348707","3","green","3"
"100","83","20","841.490245311","1","1","5","289","3","left","in","Male","Right-handed","1","0","no","left","d","551.371431431","976.450711596","3","red","3"
"100","76","20","840.809638589","1","0","5","290","3","right","out","Male","Right-handed","1","0","no","right","d","665.109286041","1000.17542982","3","green","0"
"100","71","20","838.940948188","1","0","5","291","1","left","in","Male","Right-handed","1","0","no","left","s","797.534425295","831.76152064","3","green","2"
"100","73","20","844.624513906","1","1","5","292","0","right","out","Male","Right-handed","1","0","no","right","s","592.131443438","1256.2574245","3","red","3"
"100","68","20","835.481065767","1","0","5","293","2","left","out","Male","Right-handed","1","0","no","left","d","580.783667772","815.875019563","3","green","3"
"100","70","20","845.856171847","1","1","5","294","3","left","out","Male","Right-handed","1","0","no","left","s","783.400939559","1240.31479871","3","green","1"
"100","72","20","845.636467437","1","1","5","295","3","left","in","Male","Right-handed","1","0","no","left","s","811.931857541","871.871127396","3","green","1"
"100","73","20","852.317589448","1","1","5","296","0","right","in","Male","Right-handed","1","0","no","right","d","761.60498721","1183.55058408","3","red","2"
"100","75","20","857.93524074","1","1","5","297","2","right","out","Male","Right-handed","1","0","no","right","d","785.188591866","1144.1526387","3","red","3"
"100","76","20","860.921264495","1","1","5","298","3","left","in","Male","Right-handed","1","0","no","left","d","793.682345668","1047.60113353","3","red","1"
"100","77","20","867.048359911","1","1","5","299","2","left","out","Male","Right-handed","1","0","no","left","d","1183.11377345","808.320953825","3","red","1"
"100","78","20","866.249055571","1","1","5","300","1","left","in","Male","Right-handed","1","0","no","left","d","961.699854012","735.62886619","3","red","1"
"100","75","20","860.588964192","1","0","5","301","1","right","in","Male","Right-handed","1","0","no","right","d","804.337702722","656.476022241","3","red","2"
"100","76","20","856.284191176","1","1","5","302","0","right","out","Male","Right-handed","1","0","no","right","s","722.029046303","783.910231247","3","green","2"
"100","76","20","846.757711067","1","1","5","303","3","left","out","Male","Right-handed","1","0","no","left","d","585.5180279","631.673388803","3","green","2"
"100","77","20","849.844505442","1","1","5","304","0","left","in","Male","Right-handed","1","0","no","left","s","812.134227225","1048.06809114","3","green","1"
"100","75","20","861.055024578","1","0","5","305","3","left","out","Male","Right-handed","1","0","no","left","d","991.749346388","1335.72873611","3","red","1"
"100","75","20","852.305886347","1","1","5","306","1","right","out","Male","Right-handed","1","0","no","right","s","631.297834292","583.36219747","3","red","3"
"100","73","20","853.559963858","1","0","5","307","2","right","out","Male","Right-handed","1","0","no","right","d","955.798099841","824.05832352","3","red","0"
"100","74","20","851.235942751","1","1","5","308","2","right","in","Male","Right-handed","1","0","no","right","d","787.585277494","775.445341583","3","red","1"
"100","75","20","846.009170057","1","1","5","309","1","right","out","Male","Right-handed","1","0","no","right","s","639.908648209","728.049784866","3","green","2"
"100","75","20","851.15064118","1","1","5","310","0","left","in","Male","Right-handed","1","0","no","left","d","1015.65911581","1015.69631848","3","green","1"
"100","76","20","852.389446954","1","1","5","311","1","left","in","Male","Right-handed","1","0","no","left","d","787.214212958","999.325862012","3","red","1"
"100","74","20","857.830868244","1","0","5","312","1","right","in","Male","Right-handed","1","0","no","right","d","981.971138428","1103.7072458","3","green","1"
"100","75","20","855.846252173","1","1","5","313","1","left","in","Male","Right-handed","1","0","no","left","s","773.2753998","799.493979581","3","red","3"
"100","72","20","854.674519481","1","0","5","314","1","left","out","Male","Right-handed","1","0","no","left","s","553.047475734","1071.93680934","3","red","3"
"100","73","20","853.853005476","1","1","5","315","2","left","out","Male","Right-handed","1","0","no","left","s","559.528116237","1087.38585837","3","green","3"
"100","71","20","863.360593744","1","0","5","316","0","left","out","Male","Right-handed","1","0","no","left","d","1337.19567577","1112.1022201","3","green","1"
"100","72","20","863.254721051","1","1","5","317","0","left","out","Male","Right-handed","1","0","no","left","d","614.585177433","1103.66619458","3","red","0"
"100","73","20","860.194124551","1","1","5","318","2","left","out","Male","Right-handed","1","0","no","left","s","684.130432552","791.410096546","3","green","0"
"100","71","20","869.341544555","1","0","5","319","0","right","out","Male","Right-handed","1","0","no","right","s","1536.89702815","951.874501292","3","green","1"
"100","72","20","864.703908237","1","1","5","320","1","left","out","Male","Right-handed","1","0","no","left","d","612.455004016","727.391361797","3","green","0"
"100","72","20","864.256366788","1","1","5","321","2","right","in","Male","Right-handed","1","0","no","right","d","762.052381355","927.971787551","3","red","2"
"100","71","20","866.683846174","1","0","5","322","3","left","in","Male","Right-handed","1","0","no","left","s","955.524211239","991.461667141","3","green","3"
"100","71","20","863.855887325","1","1","5","323","3","right","out","Male","Right-handed","1","0","no","right","d","729.070613228","744.12486498","3","green","2"
"100","70","20","863.235703899","1","0","5","324","0","right","out","Male","Right-handed","1","0","no","right","s","821.620586674","847.793945972","3","red","1"
"100","70","20","861.68592506","1","1","5","325","2","left","in","Male","Right-handed","1","0","no","left","s","698.272256817","879.420382444","3","red","3"
"100","71","20","863.808758288","1","1","5","326","0","right","in","Male","Right-handed","1","0","no","right","s","1203.78851438","727.620992055","3","green","2"
"100","72","20","870.890086644","1","1","5","327","1","right","out","Male","Right-handed","1","0","no","right","d","956.437921576","1479.31243057","3","red","1"
"100","70","20","866.645130498","1","0","5","328","0","right","in","Male","Right-handed","1","0","no","right","d","509.753513087","799.041133321","3","green","3"
"100","69","20","865.345346588","1","0","5","329","0","left","out","Male","Right-handed","1","0","no","left","d","630.491241978","967.621492366","3","red","3"
"100","67","20","869.359771868","1","0","5","330","3","right","in","Male","Right-handed","1","0","no","right","s","1237.11184148","919.107931353","3","red","1"
"100","66","20","870.77330424","1","0","5","331","2","left","in","Male","Right-handed","1","0","no","left","s","795.583209537","1095.79783044","3","green","2"
"100","67","20","869.000580082","1","1","5","332","3","right","in","Male","Right-handed","1","0","no","right","d","627.360124385","919.186826664","3","green","2"
"100","66","20","872.683881972","1","0","5","333","0","left","out","Male","Right-handed","1","0","no","left","s","862.800732252","1287.73023961","3","red","1"
"100","66","20","874.204370996","1","1","5","334","2","right","in","Male","Right-handed","1","0","no","right","s","1015.29061697","903.412895727","3","green","1"
"100","67","20","872.647398538","1","1","5","335","2","left","in","Male","Right-handed","1","0","no","left","d","776.819595285","790.980341597","3","green","1"
"100","67","20","870.924698931","1","1","5","336","1","right","in","Male","Right-handed","1","0","no","right","s","918.380875777","623.635367678","3","red","1"
"100","68","20","869.91028224","1","1","5","337","2","left","out","Male","Right-handed","1","0","no","left","d","717.0240047","903.095390204","3","red","2"
"100","67","20","868.996369617","1","0","5","338","1","right","in","Male","Right-handed","1","0","no","right","d","684.699697504","943.623526966","3","green","0"
"100","66","20","867.260205428","1","0","5","339","3","right","out","Male","Right-handed","1","0","no","right","d","547.39940527","975.308974566","3","red","3"
"100","66","20","868.880802654","1","1","5","340","3","left","in","Male","Right-handed","1","0","no","left","d","842.763568069","1095.95209323","3","green","2"
"100","65","20","869.49718731","1","0","5","341","3","right","in","Male","Right-handed","1","0","no","right","d","929.214549065","887.444292213","3","green","1"
"100","0","20","801.217489358","1","0","6","342","2","left","out","Male","Right-handed","1","0","no","left","d","642.682491911","959.752486806","3","green","2"
"100","0","20","893.234839271","1","0","6","343","0","left","out","Male","Right-handed","1","0","no","left","s","843.28793325","1127.21644512","3","green","1"
"100","33","20","822.583526402","1","1","6","344","1","left","out","Male","Right-handed","1","0","no","left","d","506.834065842","855.727735485","3","green","3"
"100","25","20","843.912561224","1","0","6","345","3","right","in","Male","Right-handed","1","0","no","right","d","544.462318829","1271.33701255","3","red","3"
"100","20","20","845.126258156","1","0","6","346","3","left","in","Male","Right-handed","1","0","no","left","s","780.052699503","919.909392263","3","red","2"
"100","33","20","813.776062179","1","1","6","347","2","right","out","Male","Right-handed","1","0","no","right","s","490.510433425","823.539731165","3","green","3"
"100","42","20","860.548779661","1","1","6","348","3","right","out","Male","Right-handed","1","0","no","right","d","826.157708521","1456.21246058","3","green","1"
"100","50","20","828.06324277","1","1","6","349","2","left","in","Male","Right-handed","1","0","no","left","d","481.576020442","719.752948633","3","green","3"
"100","44","20","848.812956962","1","0","6","350","2","right","in","Male","Right-handed","1","0","no","right","d","789.418791708","1240.20254928","3","green","1"
"100","50","20","847.267512194","1","1","6","351","2","left","out","Male","Right-handed","1","0","no","left","s","810.843358811","855.873659743","3","green","1"
"100","54","20","833.866751358","1","1","6","352","3","right","out","Male","Right-handed","1","0","no","right","s","680.372321729","719.34596428","3","red","1"
"100","58","20","849.964275284","1","1","6","353","3","left","in","Male","Right-handed","1","0","no","left","s","1062.07874394","991.995332988","3","green","2"
"100","61","20","848.516067506","1","1","6","354","1","right","out","Male","Right-handed","1","0","no","right","s","622.687341087","1039.58780727","3","green","1"
"100","64","20","858.175723683","1","1","6","355","3","left","in","Male","Right-handed","1","0","no","left","s","775.240406201","1192.26210177","3","red","0"
"100","66","20","859.678017329","1","1","6","356","1","right","out","Male","Right-handed","1","0","no","right","s","913.721883122","847.698373602","3","red","1"
"100","62","20","860.56193747","1","0","6","357","0","left","in","Male","Right-handed","1","0","no","left","s","716.264557148","1031.37692203","3","green","1"
"100","64","20","848.141145712","1","1","6","358","2","right","in","Male","Right-handed","1","0","no","right","d","538.907255033","759.909700145","3","red","3"
"100","66","20","847.112458318","1","1","6","359","3","right","in","Male","Right-handed","1","0","no","right","s","523.631711554","1135.61783368","3","green","3"
"100","68","20","840.111063466","1","1","6","360","0","left","out","Male","Right-handed","1","0","no","left","s","691.998475973","736.173436269","3","red","1"
"100","70","20","848.16712721","1","1","6","361","3","right","out","Male","Right-handed","1","0","no","right","s","778.669145133","1223.79553158","3","green","1"
"100","71","20","843.333741707","1","1","6","362","1","left","in","Male","Right-handed","1","0","no","left","s","598.128769977","895.203293334","3","red","3"
"100","72","20","839.309667772","1","1","6","363","2","left","in","Male","Right-handed","1","0","no","left","d","869.714334829","639.893895426","3","green","1"
"100","73","20","834.341054309","1","1","6","364","3","right","out","Male","Right-handed","1","0","no","right","d","698.494510681","751.568605566","3","red","1"
"100","70","20","833.847282035","1","0","6","365","1","left","out","Male","Right-handed","1","0","no","left","d","628.955669816","1016.02536965","3","red","1"
"100","72","20","830.258436667","1","1","6","366","1","left","out","Male","Right-handed","1","0","no","left","d","712.526651221","775.725644439","3","green","2"
"100","73","20","824.522493404","1","1","6","367","0","right","in","Male","Right-handed","1","0","no","right","d","699.15774444","663.090079203","3","red","1"
"100","70","20","815.99655184","1","0","6","368","3","left","out","Male","Right-handed","1","0","no","left","d","548.87372132","639.770421057","3","red","3"
"100","71","20","818.816996872","1","1","6","369","0","right","out","Male","Right-handed","1","0","no","right","d","702.446011231","1087.49201425","3","red","2"
"100","72","20","813.655660384","1","1","6","370","0","left","in","Male","Right-handed","1","0","no","left","d","563.151848459","775.124628935","3","red","3"
"100","73","20","810.166665811","1","1","6","371","0","right","out","Male","Right-handed","1","0","no","right","d","570.548444288","847.423202149","3","red","3"
"100","74","20","805.104485284","1","1","6","372","0","left","out","Male","Right-handed","1","0","no","left","d","603.331049859","703.147089084","3","red","3"
"100","75","20","806.453338835","1","1","6","373","1","right","in","Male","Right-handed","1","0","no","right","d","968.675995557","727.859602264","3","red","1"
"100","75","20","803.767752611","1","1","6","374","2","right","in","Male","Right-handed","1","0","no","right","d","748.315937879","687.342049019","3","red","2"
"100","73","20","798.997964456","1","0","6","375","2","left","in","Male","Right-handed","1","0","no","left","d","539.144903107","744.04500753","3","green","3"
"100","74","20","812.700097203","1","1","6","376","1","left","in","Male","Right-handed","1","0","no","left","d","1189.47991954","1367.66530171","3","green","2"
"100","72","20","814.961309226","1","0","6","377","3","right","in","Male","Right-handed","1","0","no","right","d","637.024800068","1151.18265997","3","red","2"
"100","72","20","818.305453696","1","1","6","378","0","left","out","Male","Right-handed","1","0","no","left","s","813.630351733","1063.7589575","3","green","1"
"100","73","20","820.119389841","1","1","6","379","2","left","out","Male","Right-handed","1","0","no","left","d","959.229083763","815.240970656","3","green","1"
"100","74","20","818.252421315","1","1","6","380","0","right","out","Male","Right-handed","1","0","no","right","s","630.743001408","863.872233213","3","red","1"
"100","75","20","827.818711402","1","1","6","381","1","right","out","Male","Right-handed","1","0","no","right","s","874.457354197","1527.35069543","3","red","2"
"100","75","20","822.177899213","1","1","6","382","1","left","out","Male","Right-handed","1","0","no","left","s","610.032019951","583.058803306","3","red","2"
"100","73","20","824.41249337","1","0","6","383","0","right","in","Male","Right-handed","1","0","no","right","s","576.373548134","1255.68815954","3","green","2"
"100","72","20","828.66028899","1","0","6","384","1","left","in","Male","Right-handed","1","0","no","left","s","1167.078141","847.057269017","3","green","0"
"100","72","20","829.956127093","1","1","6","385","3","left","out","Male","Right-handed","1","0","no","left","s","779.721403336","991.632927697","3","red","1"
"100","73","20","833.219612191","1","1","6","386","0","right","in","Male","Right-handed","1","0","no","right","d","706.359346977","1247.26656609","3","green","2"
"100","73","20","828.801287112","1","1","6","387","1","right","in","Male","Right-handed","1","0","no","right","s","612.919075218","647.034241849","3","red","3"
"100","74","20","825.773747243","1","1","6","388","1","left","in","Male","Right-handed","1","0","no","left","s","1045.50687993","327.506946636","3","red","0"
"100","75","20","826.203316532","1","1","6","389","3","left","out","Male","Right-handed","1","0","no","left","d","725.733277401","967.05286884","3","red","3"
"100","75","20","829.652340812","1","1","6","390","2","right","out","Male","Right-handed","1","0","no","right","s","694.660390962","1295.75062154","3","green","0"
"100","76","20","832.794247441","1","1","6","391","0","left","in","Male","Right-handed","1","0","no","left","d","990.311912294","983.183432241","3","red","0"
"100","74","20","833.42267696","1","0","6","392","3","left","out","Male","Right-handed","1","0","no","left","d","738.915208707","990.773097083","3","green","0"
"100","75","20","833.74788527","1","1","6","393","2","right","out","Male","Right-handed","1","0","no","right","d","869.262771419","831.404246748","3","green","2"
"100","75","20","833.883095326","1","1","6","394","3","right","in","Male","Right-handed","1","0","no","right","d","762.814715323","919.013321119","3","green","2"
"100","75","20","839.626671709","1","1","6","395","2","left","in","Male","Right-handed","1","0","no","left","d","912.572448988","1375.49999102","3","red","1"
"100","76","20","837.826607931","1","1","6","396","2","right","in","Male","Right-handed","1","0","no","right","d","834.059426772","647.186901068","3","green","1"
"100","76","20","831.610370486","1","1","6","397","0","right","in","Male","Right-handed","1","0","no","right","d","556.633043152","422.801578934","3","red","3"
"100","77","20","830.254151496","1","1","6","398","1","right","out","Male","Right-handed","1","0","no","right","d","717.259407786","791.352368271","3","red","1"
"100","75","20","828.625390528","1","0","6","399","1","right","out","Male","Right-handed","1","0","no","right","s","544.869944608","926.702086172","3","green","3"
"100","74","20","829.131796504","1","0","6","400","0","right","in","Male","Right-handed","1","0","no","right","d","1101.40933967","615.597346552","3","green","2"
"100","73","20","824.079880755","1","0","6","401","2","left","out","Male","Right-handed","1","0","no","left","d","628.961442642","423.072260408","3","red","2"
"100","72","20","821.959763959","1","0","6","402","1","right","out","Male","Right-handed","1","0","no","right","d","918.788180839","470.717331569","3","green","1"
"100","70","20","833.488599638","1","0","6","403","2","right","in","Male","Right-handed","1","0","no","right","d","1218.26259695","1855.23255516","3","green","0"
"100","71","20","830.808179382","1","1","6","404","3","left","in","Male","Right-handed","1","0","no","left","s","842.487434478","486.756812577","3","green","1"
"100","71","20","833.488177409","1","1","6","405","0","left","in","Male","Right-handed","1","0","no","left","d","1189.3089797","815.347126543","3","red","0"
"100","100","20","837.0240945","1","1","7","406","1","right","out","Male","Right-handed","1","0","no","right","d","778.034454801","896.013734198","3","green","1"
"100","100","20","795.497499082","1","1","7","407","1","left","in","Male","Right-handed","1","0","no","left","d","788.397321921","719.544485409","3","red","2"
"100","100","20","769.354687664","1","1","7","408","2","left","in","Male","Right-handed","1","0","no","left","d","723.138070645","711.000059011","3","red","1"
"100","75","20","770.856745357","1","0","7","409","3","right","in","Male","Right-handed","1","0","no","right","d","838.796031887","711.92980498","3","red","0"
"100","80","20","771.965962125","1","1","7","410","1","right","out","Male","Right-handed","1","0","no","right","d","857.36369071","695.441967688","3","red","1"
"100","83","20","759.872791466","1","1","7","411","2","left","out","Male","Right-handed","1","0","no","left","d","774.926749231","623.887127107","3","green","2"
"100","71","20","828.255879396","1","0","7","412","0","right","in","Male","Right-handed","1","0","no","right","d","917.606996154","1559.5018178","3","green","1"
"100","62","20","796.101140422","1","0","7","413","2","right","out","Male","Right-handed","1","0","no","right","s","623.09432544","518.941609773","3","red","2"
"100","55","20","796.376492276","1","0","7","414","0","left","out","Male","Right-handed","1","0","no","left","d","1101.72748661","495.4311276","3","green","3"
"100","50","20","764.349437598","1","0","7","415","0","right","out","Male","Right-handed","1","0","no","right","d","633.118199288","319.093691711","3","green","2"
"100","54","20","728.851508177","1","1","7","416","2","right","in","Male","Right-handed","1","0","no","right","s","491.802584687","255.94184325","3","red","3"
"100","58","20","728.233553214","1","1","7","417","3","left","out","Male","Right-handed","1","0","no","left","d","779.400049261","663.472047969","3","green","2"
"100","53","20","713.229480657","1","0","7","418","1","right","in","Male","Right-handed","1","0","no","right","s","499.13311371","567.228106231","3","green","3"
"100","50","20","705.336456891","1","0","7","419","3","right","out","Male","Right-handed","1","0","no","right","d","533.780342625","671.673953258","3","red","3"
"100","46","20","702.4309805","1","0","7","420","1","left","out","Male","Right-handed","1","0","no","left","s","564.219500868","759.289121171","3","green","3"
"100","50","20","715.5178479","1","1","7","421","1","right","in","Male","Right-handed","1","0","no","right","s","967.763568069","855.878149719","3","red","0"
"100","52","20","733.129646843","1","1","7","422","2","left","in","Male","Right-handed","1","0","no","left","s","1070.39354008","959.443319812","3","green","1"
"100","55","20","730.013642047","1","1","7","423","0","right","in","Male","Right-handed","1","0","no","right","d","515.025387614","839.057733407","3","red","3"
"100","52","20","725.544900919","1","0","7","424","0","left","out","Male","Right-handed","1","0","no","left","d","842.545162756","447.669958461","3","red","0"
"100","55","20","724.901428967","1","1","7","425","1","left","in","Male","Right-handed","1","0","no","left","s","882.047981178","543.302942604","3","green","1"
"100","57","20","730.93715321","1","1","7","426","2","left","in","Male","Right-handed","1","0","no","left","s","935.663439015","767.63983713","3","red","1"
"100","59","20","731.363351513","1","1","7","427","1","right","in","Male","Right-handed","1","0","no","right","s","625.297300627","855.329731088","3","green","3"
"100","56","20","727.47867233","1","0","7","428","3","left","out","Male","Right-handed","1","0","no","left","s","581.012656605","703.018804024","3","green","3"
"100","58","20","723.96233556","1","1","7","429","2","left","in","Male","Right-handed","1","0","no","left","d","566.637994956","719.535184742","3","green","3"
"100","60","20","725.111672145","1","1","7","430","0","right","in","Male","Right-handed","1","0","no","right","s","938.077122412","567.314377933","3","green","1"
"100","57","20","718.635789292","1","0","7","431","2","left","in","Male","Right-handed","1","0","no","left","d","618.609159041","494.868276901","3","green","3"
"100","59","20","712.478556202","1","1","7","432","2","left","in","Male","Right-handed","1","0","no","left","s","609.319396445","495.461595303","3","red","3"
"100","60","20","717.121547162","1","1","7","433","1","right","in","Male","Right-handed","1","0","no","right","s","1173.92567677","511.038929384","3","green","2"
"100","58","20","715.377781143","1","0","7","434","0","left","in","Male","Right-handed","1","0","no","left","d","853.479219104","479.62544611","3","green","2"
"100","60","20","708.602143986","1","1","7","435","3","left","out","Male","Right-handed","1","0","no","left","s","545.11240337","479.104929482","3","green","3"
"100","61","20","702.091489263","1","1","7","436","1","left","out","Male","Right-handed","1","0","no","left","s","494.73999184","518.803703333","3","green","3"
"100","59","20","715.536263821","1","0","7","437","3","right","in","Male","Right-handed","1","0","no","right","s","937.335955479","1327.31259477","3","red","1"
"100","60","20","714.217083861","1","1","7","438","0","left","out","Male","Right-handed","1","0","no","left","s","777.023247819","566.983402478","3","red","1"
"100","61","20","713.611037284","1","1","7","439","3","right","out","Male","Right-handed","1","0","no","right","s","779.594080413","607.62892007","3","red","1"
"100","60","20","714.080875117","1","0","7","440","3","left","in","Male","Right-handed","1","0","no","left","s","837.07861565","623.032107185","3","red","1"
"100","61","20","718.974556761","1","1","7","441","1","left","out","Male","Right-handed","1","0","no","left","d","773.844664752","1006.66216386","3","red","1"
"100","62","20","724.291786726","1","1","7","442","3","left","in","Male","Right-handed","1","0","no","left","s","1176.16457177","655.25955916","3","green","1"
"100","63","20","730.174999895","1","1","7","443","2","right","in","Male","Right-handed","1","0","no","right","d","1016.83324482","878.874529515","3","green","2"
"100","64","20","729.568807435","1","1","7","444","3","right","out","Male","Right-handed","1","0","no","right","s","829.434750371","583.632237521","3","red","2"
"100","65","20","733.456875855","1","1","7","445","0","right","out","Male","Right-handed","1","0","no","right","s","731.055183101","1039.12790533","3","green","1"
"100","65","20","734.500149311","1","1","7","446","1","left","out","Male","Right-handed","1","0","no","left","s","681.730860511","870.731314639","3","green","2"
"100","64","20","734.172903306","1","0","7","447","1","right","in","Male","Right-handed","1","0","no","right","s","730.153659844","711.357974329","3","green","1"
"100","62","20","733.423176134","1","0","7","448","0","right","out","Male","Right-handed","1","0","no","right","s","812.838832913","591.030436913","3","green","1"
"100","61","20","736.786237964","1","0","7","449","1","right","in","Male","Right-handed","1","0","no","right","s","724.375700756","1038.42009252","3","red","2"
"100","62","20","735.790220288","1","1","7","450","2","right","out","Male","Right-handed","1","0","no","right","d","720.960111042","662.970774098","3","red","1"
"100","63","20","733.122165667","1","1","7","451","0","left","in","Male","Right-handed","1","0","no","left","s","787.417224064","438.702191366","3","red","1"
"100","63","20","731.17672296","1","1","7","452","1","left","in","Male","Right-handed","1","0","no","left","s","892.105529856","391.267186991","3","red","1"
"100","64","20","729.76432137","1","1","7","453","0","left","out","Male","Right-handed","1","0","no","left","s","607.845080396","718.917812894","3","red","3"
"100","63","20","726.244460638","1","0","7","454","0","right","out","Male","Right-handed","1","0","no","right","s","651.344940565","463.237350452","3","red","2"
"100","64","20","721.650486714","1","1","7","455","3","right","out","Male","Right-handed","1","0","no","right","d","585.900958804","407.190570022","3","green","2"
"100","62","20","724.502838169","1","0","7","456","2","right","out","Male","Right-handed","1","0","no","right","s","711.696326172","1022.54449567","3","green","1"
"100","63","20","729.16029867","1","1","7","457","1","right","out","Male","Right-handed","1","0","no","right","s","598.155389127","1335.22617939","3","green","0"
"100","62","20","733.510247507","1","0","7","458","3","right","in","Male","Right-handed","1","0","no","right","s","1056.82515003","862.59002404","3","red","1"
"100","61","20","739.87717442","1","0","7","459","2","right","in","Male","Right-handed","1","0","no","right","s","611.366505283","1543.28209628","3","red","0"
"100","61","20","738.955857578","1","1","7","460","0","left","out","Male","Right-handed","1","0","no","left","d","907.663941892","470.745554281","3","red","0"
"100","62","20","741.340363309","1","1","7","461","3","left","in","Male","Right-handed","1","0","no","left","d","794.624278716","950.352078347","3","green","2"
"100","61","20","738.248331765","1","0","7","462","0","left","in","Male","Right-handed","1","0","no","left","d","651.124610977","479.064519688","3","red","2"
"100","62","20","735.401995169","1","1","7","463","2","right","out","Male","Right-handed","1","0","no","right","s","747.677078283","398.644540058","3","red","1"
"100","62","20","738.357992222","1","1","7","464","0","right","in","Male","Right-handed","1","0","no","right","d","517.28031825","1302.33132439","3","green","3"
"100","61","20","737.766228915","1","0","7","465","3","right","out","Male","Right-handed","1","0","no","right","s","614.76541794","790.938969667","3","green","0"
"100","60","20","738.317019154","1","0","7","466","3","left","out","Male","Right-handed","1","0","no","left","s","528.22303384","1014.50583312","3","red","3"
"98","59","20","740.908867163","0","0","7","467","2","left","in","Male","Right-handed","1","0","no","right","s","971.999861453","826.023329921","3","green","2"
"98","58","20","741.505446963","1","0","7","468","3","left","out","Male","Right-handed","1","0","no","left","s","702.483534613","854.503254592","3","red","1"
"98","59","20","745.810427936","1","1","7","469","2","left","out","Male","Right-handed","1","0","no","left","s","779.049510334","1254.99894806","3","red","0"
"100","100","20","849.810426754","1","1","8","470","1","left","out","Male","Right-handed","1","0","no","left","s","844.304271637","855.31658187","3","red","2"
"100","100","20","780.375657141","1","1","8","471","0","right","in","Male","Right-handed","1","0","no","right","s","814.837514144","607.044260911","3","green","0"
"100","100","20","750.074191527","1","1","8","472","1","right","out","Male","Right-handed","1","0","no","right","s","907.418596715","471.523923881","3","green","1"
"100","100","20","802.199711936","1","1","8","473","1","left","in","Male","Right-handed","1","0","no","left","d","702.074946698","1215.07759963","3","red","1"
"100","100","20","773.37020246","1","1","8","474","1","left","out","Male","Right-handed","1","0","no","left","s","716.499960232","599.604368875","3","green","1"
"100","100","20","758.288711513","1","1","8","475","3","left","in","Male","Right-handed","1","0","no","left","s","742.364793962","623.397719604","3","red","3"
"100","100","20","742.169090521","1","1","8","476","3","right","out","Male","Right-handed","1","0","no","right","s","531.900325075","759.002404062","3","green","3"
"100","87","20","734.782926445","1","0","8","477","0","left","in","Male","Right-handed","1","0","no","left","s","790.595486418","575.564069408","3","red","0"
"100","88","20","720.317046547","1","1","8","478","1","left","out","Male","Right-handed","1","0","no","left","s","689.963554214","519.216460513","3","red","0"
"100","80","20","709.756463643","1","0","8","479","0","left","out","Male","Right-handed","1","0","no","left","s","598.619139618","630.803295386","3","green","3"
"100","72","20","722.933339351","1","0","8","480","1","right","out","Male","Right-handed","1","0","no","right","s","998.135376658","711.268816211","3","red","1"
"100","66","20","727.42876491","1","0","8","481","2","right","out","Male","Right-handed","1","0","no","right","s","834.889751819","718.867140296","3","green","1"
"100","69","20","745.767826541","1","1","8","482","3","right","out","Male","Right-handed","1","0","no","right","d","1164.2840924","767.389039839","3","red","0"
"100","71","20","735.358688692","1","1","8","483","1","left","out","Male","Right-handed","1","0","no","left","s","600.979264003","599.100529304","3","green","1"
"100","66","20","742.010524079","1","0","8","484","0","right","in","Male","Right-handed","1","0","no","right","d","983.658728386","686.613710595","3","green","2"
"100","68","20","747.82923639","1","1","8","485","1","left","out","Male","Right-handed","1","0","no","left","s","1151.08323904","519.136603063","3","red","0"
"100","70","20","742.094376602","1","1","8","486","2","right","in","Male","Right-handed","1","0","no","right","s","837.760130029","462.913109963","3","green","1"
"100","66","20","736.249115546","1","0","8","487","0","right","in","Male","Right-handed","1","0","no","right","s","674.357355992","599.401999193","3","red","2"
"100","63","20","732.761011483","1","0","8","488","3","right","in","Male","Right-handed","1","0","no","right","s","940.995286808","398.954989905","3","red","1"
"100","65","20","729.650309359","1","1","8","489","2","right","in","Male","Right-handed","1","0","no","right","d","558.547697666","782.546240348","3","red","3"
"100","66","20","741.435559604","1","1","8","490","2","left","out","Male","Right-handed","1","0","no","left","s","843.134953316","1111.14617569","3","green","1"
"100","68","20","748.944075469","1","1","8","491","1","right","in","Male","Right-handed","1","0","no","right","s","1022.58105691","790.66476035","3","red","3"
"100","65","20","756.261321854","1","0","8","492","2","left","out","Male","Right-handed","1","0","no","left","s","939.188071027","895.293413589","3","red","2"
"100","66","20","755.122315528","1","1","8","493","0","right","in","Male","Right-handed","1","0","no","right","s","834.812780784","623.037559301","3","green","1"
"100","64","20","754.33527172","1","0","8","494","2","right","out","Male","Right-handed","1","0","no","right","s","768.408906062","702.483534611","3","red","1"
"100","65","20","769.358949442","1","1","8","495","2","right","out","Male","Right-handed","1","0","no","right","s","603.001998681","1686.89978628","3","red","3"
"100","66","20","780.622908775","1","1","8","496","0","left","in","Male","Right-handed","1","0","no","left","d","764.496211741","1382.47549114","3","green","1"
"100","67","20","779.001391984","1","1","8","497","3","right","in","Male","Right-handed","1","0","no","right","s","775.077804889","695.363072375","3","green","1"
"100","65","20","791.594904447","1","0","8","498","3","left","out","Male","Right-handed","1","0","no","left","s","1201.6872051","1086.73930167","3","green","2"
"100","66","20","789.016858581","1","1","8","499","0","left","out","Male","Right-handed","1","0","no","left","d","549.209828176","879.297228785","3","red","3"
"100","67","20","784.882502679","1","1","8","500","0","left","in","Male","Right-handed","1","0","no","left","s","898.731132475","422.972518774","3","red","1"
"100","68","20","780.074317539","1","1","8","501","3","left","out","Male","Right-handed","1","0","no","left","d","607.519557058","654.521599355","3","green","3"
"100","69","20","780.34978146","1","1","8","502","3","left","in","Male","Right-handed","1","0","no","left","d","771.177939076","807.151314795","3","red","2"
"100","67","20","781.860221844","1","0","8","503","0","right","out","Male","Right-handed","1","0","no","right","s","984.74498213","678.664526872","3","red","1"
"100","68","20","778.201472786","1","1","8","504","1","left","in","Male","Right-handed","1","0","no","left","s","676.267520532","631.340489074","3","red","2"
"100","69","20","774.289212573","1","1","8","505","1","left","out","Male","Right-handed","1","0","no","left","s","659.887121975","614.83308831","3","red","2"
"100","67","20","770.95636564","1","0","8","506","3","right","out","Male","Right-handed","1","0","no","right","s","727.343896326","574.603855736","3","red","0"
"100","68","20","780.818135098","1","1","8","507","1","right","in","Male","Right-handed","1","0","no","right","s","724.200270938","1567.2069392","3","green","3"
"100","66","20","782.163589042","1","0","8","508","3","right","out","Male","Right-handed","1","0","no","right","s","955.772442831","710.809234985","3","green","1"
"100","65","20","782.903867025","1","0","8","509","2","left","out","Male","Right-handed","1","0","no","left","d","680.268731543","943.280685145","3","green","1"
"100","65","20","777.75527444","1","1","8","510","2","left","in","Male","Right-handed","1","0","no","left","s","576.73755699","566.88558512","3","green","3"
"100","64","20","773.949335434","1","0","8","511","0","right","in","Male","Right-handed","1","0","no","right","s","773.389573504","462.422098899","3","red","1"
"100","65","20","768.810688156","1","1","8","512","0","right","in","Male","Right-handed","1","0","no","right","s","523.101894258","582.873110682","3","green","3"
"100","65","20","769.012837136","1","1","8","513","3","left","in","Male","Right-handed","1","0","no","left","d","812.801309533","742.609177002","3","green","1"
"100","64","20","764.773008139","1","0","8","514","1","right","in","Male","Right-handed","1","0","no","right","s","526.163096494","630.277968067","3","red","3"
"100","65","20","762.958649068","1","1","8","515","2","left","in","Male","Right-handed","1","0","no","left","s","803.895119267","558.729862452","3","green","0"
"100","65","20","761.212704462","1","1","8","516","2","left","out","Male","Right-handed","1","0","no","left","d","787.370400018","574.428105203","3","green","2"
"100","66","20","761.677742211","1","1","8","517","0","left","in","Male","Right-handed","1","0","no","left","s","1135.89492941","431.17410335","3","green","2"
"100","67","20","757.929698792","1","1","8","518","1","right","out","Male","Right-handed","1","0","no","right","s","645.510856764","510.536372662","3","green","3"
"100","66","20","757.526811577","1","0","8","519","3","left","out","Male","Right-handed","1","0","no","left","d","677.199190779","798.37148531","3","red","1"
"100","66","20","755.982765556","1","1","8","520","0","left","out","Male","Right-handed","1","0","no","left","s","638.773646143","718.787282845","3","red","1"
"100","67","20","754.625937665","1","1","8","521","1","right","out","Male","Right-handed","1","0","no","right","s","908.388111052","462.467319381","3","green","2"
"100","66","20","751.575410121","1","0","8","522","3","right","out","Male","Right-handed","1","0","no","right","s","779.877911109","406.018044576","3","red","1"
"100","64","20","758.086030028","1","0","8","523","2","right","out","Male","Right-handed","1","0","no","right","s","567.73034224","1638.56742791","3","red","3"
"100","63","20","756.069909643","1","0","8","524","1","right","out","Male","Right-handed","1","0","no","right","d","656.267559017","638.131258707","3","green","1"
"100","64","20","761.483147902","1","1","8","525","3","left","in","Male","Right-handed","1","0","no","left","d","823.653263444","1294.76924083","3","green","2"
"100","63","20","757.602535547","1","0","8","526","2","right","in","Male","Right-handed","1","0","no","right","s","610.201356228","470.375131172","3","red","0"
"100","63","20","756.719726252","1","1","8","527","3","right","in","Male","Right-handed","1","0","no","right","d","741.948508943","670.850683887","3","red","2"
"100","62","20","755.418956609","1","0","8","528","0","right","out","Male","Right-handed","1","0","no","right","s","601.468992217","758.479642444","3","green","2"
"100","63","20","765.96348013","1","1","8","529","2","left","in","Male","Right-handed","1","0","no","left","s","1466.0807888","1310.09994689","3","red","1"
"100","62","20","763.736882485","1","0","8","530","3","left","in","Male","Right-handed","1","0","no","left","s","669.512350003","590.769697529","3","green","3"
"100","62","20","759.180440965","1","1","8","531","0","left","in","Male","Right-handed","1","0","no","left","d","596.135540862","366.339475622","3","green","3"
"100","61","20","757.507676944","1","0","8","532","2","right","in","Male","Right-handed","1","0","no","right","d","900.740717934","406.851897463","3","green","2"
"100","60","20","755.942309287","1","0","8","533","2","left","in","Male","Right-handed","1","0","no","left","s","836.42372042","478.22457326","3","red","2"
dis_reply=No
dis_loc=0
tar_loc=1
