"acc_1","acc_2","age","avg_rt","correct_1","correct_2","count_block_loop","count_trial_sequence","cue_position","detection","dis_shape","gender","hand","high_loc","low_loc","practice","response_keyboard_response_1","response_keyboard_response_2","response_time_keyboard_response_1","response_time_keyboard_response_2","subject_nr","tar_color","tar_position"
"100","100","19","979.842472866","1","1","0","0","0","left","in","Female","Right-handed","0","3","yes","left","s","1464.55302742","495.131918311","14","green","1"
"100","50","19","982.240353476","1","0","0","1","2","left","out","Female","Right-handed","0","3","yes","left","s","1352.10864683","617.167821335","14","red","0"
"100","66","19","963.226029639","1","1","0","2","2","left","out","Female","Right-handed","0","3","yes","left","d","856.719517804","993.67524613","14","green","1"
"100","75","19","997.873441422","1","1","0","3","1","left","out","Female","Right-handed","0","3","yes","left","s","1290.48711605","913.144237486","14","red","3"
"100","80","19","990.947208943","1","1","0","4","2","right","in","Female","Right-handed","0","3","yes","right","d","924.720323431","1001.76423462","14","green","2"
"100","83","19","986.368179292","1","1","0","5","1","left","in","Female","Right-handed","0","3","yes","left","d","1061.48009696","865.465965121","14","red","3"
"100","85","19","1055.3817884","1","1","0","6","3","left","in","Female","Right-handed","0","3","yes","left","d","1553.0139516","1385.91293449","14","green","3"
"100","75","19","1054.1450213","1","0","0","7","2","right","out","Female","Right-handed","0","3","yes","right","d","1001.46212428","1089.513179","14","red","0"
"100","66","19","1053.96468338","1","0","0","8","1","right","out","Female","Right-handed","0","3","yes","right","s","1104.08631504","1000.9576449","14","green","1"
"100","70","19","1057.37463543","1","1","0","9","3","left","in","Female","Right-handed","0","3","yes","left","d","1310.60407317","865.524334636","14","green","0"
"100","63","19","1037.53320167","1","0","0","10","2","right","in","Female","Right-handed","0","3","yes","right","d","949.129684875","729.108043255","14","green","2"
"100","58","19","1047.70946157","1","0","0","11","1","left","out","Female","Right-handed","0","3","yes","left","s","1421.6174385","897.679202429","14","red","2"
"100","61","19","1034.5565661","1","1","0","12","3","right","in","Female","Right-handed","0","3","yes","right","d","800.269141192","953.174499834","14","red","2"
"100","57","19","1012.22361416","1","0","0","13","3","right","in","Female","Right-handed","0","3","yes","right","d","649.783231016","794.0072468","14","red","1"
"100","53","19","1019.0933846","1","0","0","14","1","left","out","Female","Right-handed","0","3","yes","left","d","1285.26336518","945.276976177","14","red","0"
"100","50","19","1022.36527586","1","0","0","15","2","right","out","Female","Right-handed","0","3","yes","right","d","901.995980842","1240.89130891","14","green","1"
"100","52","19","1013.71950547","1","1","0","16","3","right","in","Female","Right-handed","0","3","yes","right","s","709.367922295","1041.40643591","14","green","3"
"100","50","19","1009.93036317","1","0","0","17","2","left","out","Female","Right-handed","0","3","yes","left","s","953.976278886","937.053609513","14","green","3"
"100","47","19","1028.67104498","1","0","0","18","0","left","in","Female","Right-handed","0","3","yes","left","d","1066.50500663","1665.50162825","14","red","2"
"100","50","19","1015.29096882","1","1","0","19","0","left","out","Female","Right-handed","0","3","yes","left","s","865.024345219","657.114698663","14","red","1"
"100","52","19","1012.01969884","1","1","0","20","2","right","in","Female","Right-handed","0","3","yes","right","d","1126.6772416","766.511356719","14","red","3"
"100","54","19","1009.11588524","1","1","0","21","1","left","out","Female","Right-handed","0","3","yes","left","s","1078.93675118","817.334847947","14","red","1"
"100","100","19","950.775576912","1","1","1","22","2","right","out","Female","Right-handed","0","3","no","right","d","1036.24875163","865.302402194","14","red","1"
"100","100","19","913.65617341","1","1","1","23","0","right","out","Female","Right-handed","0","3","no","right","s","823.082962323","929.990577493","14","green","3"
"100","66","19","863.13856089","1","0","1","24","3","right","out","Female","Right-handed","0","3","no","right","d","866.565685268","657.640986432","14","red","1"
"100","50","19","929.508908727","1","0","1","25","1","left","out","Female","Right-handed","0","3","no","left","s","1416.039622","841.200282483","14","green","2"
"100","40","19","952.136837386","1","0","1","26","1","right","out","Female","Right-handed","0","3","no","right","s","1219.75929951","865.537804524","14","red","2"
"100","50","19","963.903212226","1","1","1","27","0","left","in","Female","Right-handed","0","3","no","left","s","1516.24532643","529.224846427","14","green","1"
"100","57","19","994.24017965","1","1","1","28","0","left","out","Female","Right-handed","0","3","no","left","s","1662.74190476","689.782063625","14","green","0"
"100","62","19","1000.24686777","1","1","1","29","1","left","out","Female","Right-handed","0","3","no","left","d","1387.41610986","697.171259364","14","green","0"
"100","55","19","1012.91555585","1","0","1","30","0","left","in","Female","Right-handed","0","3","no","left","s","1082.73750459","1145.79261632","14","red","0"
"100","60","19","1067.54873053","1","1","1","31","0","right","in","Female","Right-handed","0","3","no","right","d","1805.28314667","1313.21145864","14","green","0"
"100","63","19","1052.9931345","1","1","1","32","2","left","in","Female","Right-handed","0","3","no","left","d","932.935672305","881.93867609","14","green","1"
"100","66","19","1042.90827498","1","1","1","33","0","left","out","Female","Right-handed","0","3","no","left","d","1094.45213796","769.497502619","14","red","2"
"100","69","19","1018.38474431","1","1","1","34","1","left","in","Female","Right-handed","0","3","no","left","d","967.144698028","481.060054534","14","green","3"
"100","71","19","1021.04649393","1","1","1","35","2","left","in","Female","Right-handed","0","3","no","left","s","1525.73390044","585.56457753","14","red","2"
"100","73","19","1007.38838327","1","1","1","36","0","right","out","Female","Right-handed","0","3","no","right","s","791.237260533","841.112407499","14","green","1"
"100","75","19","994.913503675","1","1","1","37","2","left","out","Female","Right-handed","0","3","no","left","d","845.84033821","769.740281315","14","red","0"
"100","76","19","986.970175442","1","1","1","38","1","left","out","Female","Right-handed","0","3","no","left","s","1230.34534869","489.40849873","14","green","0"
"100","72","19","965.501665669","1","0","1","39","2","left","in","Female","Right-handed","0","3","no","left","s","696.07795345","504.996045626","14","green","1"
"100","68","19","961.921208784","1","0","1","40","0","left","in","Female","Right-handed","0","3","no","left","d","1057.53951328","737.406456438","14","green","1"
"100","70","19","960.654593264","1","1","1","41","3","right","in","Female","Right-handed","0","3","no","right","s","936.071590531","937.106206219","14","red","3"
"100","71","19","946.158436794","1","1","1","42","3","right","in","Female","Right-handed","0","3","no","right","s","847.610345644","464.860269154","14","green","0"
"100","72","19","946.533203595","1","1","1","43","0","left","in","Female","Right-handed","0","3","no","left","s","1275.39154078","633.415072035","14","red","2"
"100","73","19","935.745175821","1","1","1","44","2","left","out","Female","Right-handed","0","3","no","left","s","875.888772079","520.928357514","14","green","3"
"100","75","19","938.149427669","1","1","1","45","3","left","in","Female","Right-handed","0","3","no","left","d","1057.43431986","929.460120472","14","green","0"
"100","76","19","973.620648184","1","1","1","46","3","right","in","Female","Right-handed","0","3","no","right","s","2041.06231234","1608.79756875","14","green","2"
"100","76","19","971.602139324","1","1","1","47","3","right","in","Female","Right-handed","0","3","no","right","s","920.603989781","921.674845882","14","red","1"
"100","74","19","962.545639936","1","0","1","48","2","right","out","Female","Right-handed","0","3","no","right","s","877.066425149","577.086886551","14","red","0"
"100","71","19","960.906811191","1","0","1","49","0","right","out","Female","Right-handed","0","3","no","right","s","959.567885991","873.748984146","14","red","0"
"100","68","19","949.604752787","1","0","1","50","2","right","out","Female","Right-handed","0","3","no","right","s","761.20582438","505.088410573","14","green","0"
"100","70","19","961.844788832","1","1","1","51","3","right","in","Female","Right-handed","0","3","no","right","d","1400.84270185","1232.7689664","14","red","2"
"100","70","19","955.074359265","1","1","1","52","0","left","out","Female","Right-handed","0","3","no","left","s","774.465646333","729.45729821","14","red","1"
"100","71","19","941.21766405","1","1","1","53","1","right","out","Female","Right-handed","0","3","no","right","s","590.113551156","433.206673624","14","green","0"
"100","72","19","928.894832226","1","1","1","54","3","right","out","Female","Right-handed","0","3","no","right","s","483.599449146","585.52897854","14","red","0"
"100","73","19","931.726254634","1","1","1","55","1","left","out","Female","Right-handed","0","3","no","left","s","1513.20947023","537.116917987","14","red","1"
"100","74","19","933.558365987","1","1","1","56","1","right","in","Female","Right-handed","0","3","no","right","d","1190.94785037","800.752453604","14","green","2"
"100","75","19","936.663851353","1","1","1","57","2","left","in","Female","Right-handed","0","3","no","left","d","1329.39937769","761.312300638","14","green","2"
"100","75","19","935.211979373","1","1","1","58","1","right","in","Female","Right-handed","0","3","no","right","s","916.949160152","848.940016023","14","red","1"
"100","73","19","932.640436158","1","0","1","59","3","left","out","Female","Right-handed","0","3","no","left","d","1057.5568317","617.42984273","14","red","0"
"100","71","19","925.627254777","1","0","1","60","0","right","in","Female","Right-handed","0","3","no","right","s","701.079771884","617.172952721","14","red","0"
"100","72","19","916.829983714","1","1","1","61","3","right","in","Female","Right-handed","0","3","no","right","d","514.720021962","632.752802539","14","red","0"
"100","73","19","918.392311601","1","1","1","62","3","left","out","Female","Right-handed","0","3","no","left","d","1200.36041572","761.410438394","14","green","3"
"100","71","19","913.249533983","1","0","1","63","2","right","out","Female","Right-handed","0","3","no","right","s","603.808578779","800.982724548","14","red","0"
"100","72","19","913.540950302","1","1","1","64","2","right","in","Female","Right-handed","0","3","no","right","s","1290.18083645","561.380034932","14","red","1"
"100","72","19","907.720424514","1","1","1","65","1","right","out","Female","Right-handed","0","3","no","right","d","569.948808011","744.92682323","14","green","0"
"100","71","19","911.707061008","1","0","1","66","0","right","out","Female","Right-handed","0","3","no","right","d","1189.60791722","984.630216294","14","green","2"
"100","69","19","910.78385922","1","0","1","67","1","left","out","Female","Right-handed","0","3","no","left","s","985.235719834","753.243837686","14","green","1"
"100","70","19","919.323906877","1","1","1","68","3","left","in","Female","Right-handed","0","3","no","left","s","1151.62796426","1472.70423397","14","red","1"
"100","70","19","914.69899397","1","1","1","69","1","right","out","Female","Right-handed","0","3","no","right","s","770.331032121","624.325142572","14","green","0"
"100","71","19","914.365847684","1","1","1","70","2","right","in","Female","Right-handed","0","3","no","right","s","787.848300838","1008.90135103","14","green","0"
"100","72","19","913.678899035","1","1","1","71","2","left","in","Female","Right-handed","0","3","no","left","s","1151.51026309","608.52656743","14","red","2"
"100","72","19","909.831748647","1","1","1","72","3","right","out","Female","Right-handed","0","3","no","right","d","921.933980871","513.014477564","14","red","2"
"100","71","19","916.901713335","1","0","1","73","1","left","out","Female","Right-handed","0","3","no","left","d","1794.34976681","760.590058068","14","red","0"
"100","71","19","917.190420007","1","1","1","74","0","left","in","Female","Right-handed","0","3","no","left","d","887.232662811","977.173671115","14","green","2"
"100","72","19","927.087291004","1","1","1","75","2","left","in","Female","Right-handed","0","3","no","left","d","1990.63425854","912.608649079","14","red","0"
"100","72","19","935.998010538","1","1","1","76","1","left","in","Female","Right-handed","0","3","no","left","d","1137.13083687","1697.22289393","14","red","3"
"100","73","19","936.378173659","1","1","1","77","1","left","out","Female","Right-handed","0","3","no","left","d","1033.7917799","880.782510697","14","red","2"
"100","73","19","938.490619821","1","1","1","78","0","right","in","Female","Right-handed","0","3","no","right","s","857.284611679","1256.29059808","14","green","3"
"100","74","19","942.436991834","1","1","1","79","3","left","in","Female","Right-handed","0","3","no","left","d","1501.89412283","832.86627031","14","red","2"
"100","74","19","939.531245395","1","1","1","80","2","left","out","Female","Right-handed","0","3","no","left","s","869.546699781","672.44920409","14","red","2"
"100","75","19","938.239208214","1","1","1","81","3","right","out","Female","Right-handed","0","3","no","right","s","1011.06647518","712.951553944","14","green","1"
"100","75","19","936.377086751","1","1","1","82","0","right","in","Female","Right-handed","0","3","no","right","s","1120.680255","528.619342888","14","green","0"
"100","74","19","934.075517614","1","0","1","83","1","right","in","Female","Right-handed","0","3","no","right","s","746.048672479","841.310927992","14","red","1"
"100","74","19","938.031209802","1","1","1","84","2","left","out","Female","Right-handed","0","3","no","left","s","1093.75555232","1272.81269864","14","green","3"
"100","73","19","933.535062279","1","0","1","85","3","right","in","Female","Right-handed","0","3","no","right","s","612.308078149","688.247458521","14","green","0"
"100","0","19","1256.31769821","1","0","2","86","1","left","out","Female","Right-handed","0","3","no","left","s","1567.32025557","945.31514086","14","red","1"
"100","50","19","1082.30061519","1","1","2","87","3","right","in","Female","Right-handed","0","3","no","right","d","903.7528391","912.814225228","14","red","0"
"100","66","19","969.983690745","1","1","2","88","2","right","in","Female","Right-handed","0","3","no","right","s","785.32558323","705.374100484","14","red","0"
"100","75","19","916.363661","1","1","2","89","2","left","in","Female","Right-handed","0","3","no","left","s","1054.05466081","456.952482725","14","red","0"
"100","80","19","930.304361742","1","1","2","90","2","right","in","Female","Right-handed","0","3","no","right","d","1458.54513663","513.589192788","14","green","2"
"100","83","19","923.616728019","1","1","2","91","3","right","in","Female","Right-handed","0","3","no","right","d","939.176720441","841.180398362","14","green","2"
"100","85","19","945.493593969","1","1","2","92","2","left","in","Female","Right-handed","0","3","no","left","d","1447.7807718","705.728807536","14","green","2"
"100","75","19","908.098401381","1","0","2","93","1","right","out","Female","Right-handed","0","3","no","right","s","683.314913796","609.349192737","14","red","0"
"100","77","19","950.628780076","1","1","2","94","3","left","in","Female","Right-handed","0","3","no","left","s","916.90714693","1664.83647235","14","green","1"
"100","80","19","926.314452613","1","1","2","95","0","right","in","Female","Right-handed","0","3","no","right","d","853.392776163","561.578234713","14","red","0"
"100","81","19","915.152242098","1","1","2","96","3","right","in","Female","Right-handed","0","3","no","right","d","798.011972806","809.048301094","14","green","0"
"100","83","19","904.982394001","1","1","2","97","3","left","in","Female","Right-handed","0","3","no","left","d","881.636886455","704.591243418","14","green","3"
"100","76","19","881.733618013","1","0","2","98","0","right","in","Female","Right-handed","0","3","no","right","d","612.200319044","593.296293279","14","green","3"
"100","78","19","894.199481345","1","1","2","99","1","right","out","Female","Right-handed","0","3","no","right","s","1423.71264752","688.798761797","14","red","1"
"100","73","19","882.110288878","1","0","2","100","2","right","in","Female","Right-handed","0","3","no","right","s","680.282585423","745.440603246","14","green","1"
"100","75","19","897.471491543","1","1","2","101","0","left","in","Female","Right-handed","0","3","no","left","d","1054.95618117","1200.82288188","14","red","0"
"100","76","19","891.618262165","1","1","2","102","0","left","in","Female","Right-handed","0","3","no","left","d","755.471821315","840.461362909","14","red","1"
"100","77","19","878.927060342","1","1","2","103","3","right","in","Female","Right-handed","0","3","no","right","d","565.207086701","761.146172018","14","red","0"
"100","73","19","881.78785723","1","0","2","104","1","left","out","Female","Right-handed","0","3","no","left","d","873.694142459","992.870259963","14","green","1"
"100","75","19","876.85718487","1","1","2","105","3","right","in","Female","Right-handed","0","3","no","right","d","789.228964365","777.119855705","14","green","1"
"100","71","19","891.095901541","1","0","2","106","0","left","out","Female","Right-handed","0","3","no","left","s","1222.80702205","1128.93344785","14","red","0"
"100","72","19","886.950451163","1","1","2","107","3","left","out","Female","Right-handed","0","3","no","left","s","766.403918326","833.388068117","14","green","0"
"100","73","19","876.710742018","1","1","2","108","3","left","out","Female","Right-handed","0","3","no","left","d","605.946442442","696.927839244","14","green","1"
"100","75","19","872.915367785","1","1","2","109","0","right","out","Female","Right-handed","0","3","no","right","s","674.694506146","896.549014678","14","green","0"
"100","76","19","864.28852372","1","1","2","110","0","right","out","Female","Right-handed","0","3","no","right","s","697.240853786","617.247678529","14","red","1"
"100","76","19","869.922456617","1","1","2","111","0","left","in","Female","Right-handed","0","3","no","left","s","1132.78391157","888.757646567","14","green","2"
"100","77","19","869.269777175","1","1","2","112","3","left","out","Female","Right-handed","0","3","no","left","s","663.271399643","1041.3288237","14","red","0"
"100","78","19","870.007430659","1","1","2","113","1","left","out","Female","Right-handed","0","3","no","left","s","1026.83009276","753.018056706","14","red","2"
"100","75","19","872.247683284","1","0","2","114","1","right","out","Female","Right-handed","0","3","no","right","d","1021.45111746","848.498396121","14","green","2"
"100","76","19","873.791061511","1","1","2","115","3","right","in","Female","Right-handed","0","3","no","right","s","1068.0139548","769.084105339","14","red","3"
"100","77","19","866.930313689","1","1","2","116","2","left","out","Female","Right-handed","0","3","no","left","s","737.57515075","584.640607351","14","red","2"
"100","78","19","862.457574864","1","1","2","117","2","left","out","Female","Right-handed","0","3","no","left","s","846.218136499","601.387206044","14","green","1"
"100","78","19","853.652304753","1","1","2","118","1","right","out","Female","Right-handed","0","3","no","right","s","630.830136373","512.937186064","14","red","0"
"100","79","19","853.104324359","1","1","2","119","0","right","out","Female","Right-handed","0","3","no","right","s","1165.48430983","504.55763284","14","red","1"
"100","77","19","852.529214309","1","0","2","120","1","right","in","Female","Right-handed","0","3","no","right","s","1176.92569689","489.025248343","14","red","2"
"100","77","19","849.780587817","1","1","2","121","3","left","out","Female","Right-handed","0","3","no","left","s","858.49786374","648.659457497","14","red","2"
"100","75","19","846.942147316","1","0","2","122","1","left","in","Female","Right-handed","0","3","no","left","d","793.164737373","696.351841173","14","red","3"
"100","76","19","849.213312962","1","1","2","123","2","right","out","Female","Right-handed","0","3","no","right","s","969.6940347","896.79884903","14","green","1"
"100","74","19","846.218671018","1","0","2","124","2","left","in","Female","Right-handed","0","3","no","left","s","872.490191035","592.354363249","14","green","3"
"100","72","19","847.712087396","1","0","2","125","1","right","in","Female","Right-handed","0","3","no","right","s","1043.04719656","768.863455745","14","green","3"
"100","70","19","843.550652794","1","0","2","126","3","right","out","Female","Right-handed","0","3","no","right","d","721.649253095","632.537284329","14","green","2"
"100","71","19","840.266767315","1","1","2","127","0","right","out","Female","Right-handed","0","3","no","right","s","754.196992623","657.057932706","14","green","0"
"100","72","19","843.915833546","1","1","2","128","2","right","out","Female","Right-handed","0","3","no","right","d","1049.68881351","944.664416981","14","red","1"
"100","72","19","845.048413752","1","1","2","129","0","left","in","Female","Right-handed","0","3","no","left","d","955.188568812","832.31015636","14","green","2"
"100","73","19","848.833578963","1","1","2","130","1","left","out","Female","Right-handed","0","3","no","left","s","1117.90353379","912.85816272","14","red","0"
"100","73","19","851.489655977","1","1","2","131","1","left","out","Female","Right-handed","0","3","no","left","d","853.556980513","1088.46926268","14","green","0"
"100","72","19","848.245917604","1","0","2","132","3","right","out","Female","Right-handed","0","3","no","right","d","589.053919962","809.013984951","14","green","0"
"100","70","19","848.565204361","1","0","2","133","2","left","in","Female","Right-handed","0","3","no","left","d","894.621537838","832.521826029","14","green","2"
"100","69","19","845.844883806","1","0","2","134","0","left","out","Female","Right-handed","0","3","no","left","s","566.221176845","864.317817519","14","red","2"
"100","70","19","851.085169461","1","1","2","135","2","left","out","Female","Right-handed","0","3","no","left","s","782.858028021","1432.86030507","14","green","0"
"100","68","19","848.922534095","1","0","2","136","1","right","in","Female","Right-handed","0","3","no","right","s","505.230806532","976.350725097","14","green","0"
"100","69","19","852.31657898","1","1","2","137","1","left","in","Female","Right-handed","0","3","no","left","d","914.027798","1136.79793821","14","red","2"
"100","67","19","852.535099497","1","0","2","138","0","right","out","Female","Right-handed","0","3","no","right","s","719.354240738","1008.44209199","14","red","2"
"98","68","19","854.691349393","0","1","2","139","2","left","in","Female","Right-handed","0","3","no","right","s","607.011205022","1330.9339828","14","red","3"
"98","69","19","854.970566545","1","1","2","140","3","left","in","Female","Right-handed","0","3","no","left","s","899.662483091","840.434102421","14","green","1"
"98","69","19","863.847027177","1","1","2","141","0","right","in","Female","Right-handed","0","3","no","right","d","1584.08288984","1120.02183405","14","red","0"
"98","70","19","862.816164127","1","1","2","142","0","right","in","Female","Right-handed","0","3","no","right","s","617.620666143","992.555000439","14","red","1"
"98","68","19","859.384645195","1","0","2","143","1","right","out","Female","Right-handed","0","3","no","right","s","655.250722723","672.325409404","14","red","0"
"98","67","19","858.053216103","1","0","2","144","2","left","out","Female","Right-handed","0","3","no","left","s","864.90183338","696.75882422","14","green","0"
"98","68","19","855.800048278","1","1","2","145","1","left","in","Female","Right-handed","0","3","no","left","d","637.350524331","808.375768826","14","red","1"
"98","68","19","854.325944457","1","1","2","146","0","right","out","Female","Right-handed","0","3","no","right","d","731.786305998","799.973124366","14","green","3"
"98","67","19","851.758308185","1","0","2","147","2","left","out","Female","Right-handed","0","3","no","left","s","645.746433847","744.518557336","14","green","0"
"98","66","19","849.035201195","1","0","2","148","2","right","out","Female","Right-handed","0","3","no","right","d","552.204796178","808.200339569","14","green","0"
"98","65","19","850.484643365","1","0","2","149","3","left","in","Female","Right-handed","0","3","no","left","d","1050.80937992","832.789620232","14","red","2"
"100","100","19","1654.27704224","1","1","3","150","3","left","in","Female","Right-handed","0","3","no","left","s","1643.8766851","1664.67739939","14","red","0"
"100","50","19","1290.84599236","1","0","3","151","0","right","in","Female","Right-handed","0","3","no","right","d","861.323974541","993.505910395","14","green","2"
"100","66","19","1143.39134151","1","1","3","152","2","left","in","Female","Right-handed","0","3","no","left","d","679.865981028","1017.09809863","14","red","2"
"100","75","19","1031.68550634","1","1","3","153","1","right","out","Female","Right-handed","0","3","no","right","s","592.566353631","800.56964798","14","green","0"
"100","60","19","1026.35409257","1","0","3","154","1","left","out","Female","Right-handed","0","3","no","left","d","1073.06195571","936.994919286","14","green","0"
"100","50","19","979.491988517","1","0","3","155","1","right","out","Female","Right-handed","0","3","no","right","s","833.805634646","656.557301866","14","green","1"
"100","57","19","931.103378092","1","1","3","156","0","right","out","Female","Right-handed","0","3","no","right","s","592.272581786","689.270849302","14","red","0"
"100","62","19","928.881035552","1","1","3","157","0","left","in","Female","Right-handed","0","3","no","left","s","1249.81575117","576.83352437","14","green","2"
"100","66","19","907.438332322","1","1","3","158","0","left","in","Female","Right-handed","0","3","no","left","d","607.423319455","864.370093513","14","green","2"
"100","70","19","930.848192437","1","1","3","159","2","left","in","Female","Right-handed","0","3","no","left","d","1194.12674395","1088.94712299","14","green","0"
"100","72","19","927.001384833","1","1","3","160","3","right","out","Female","Right-handed","0","3","no","right","s","1168.52241101","608.544206569","14","red","1"
"100","75","19","925.094193003","1","1","3","161","2","left","out","Female","Right-handed","0","3","no","left","s","1095.16155206","713.068613686","14","red","1"
"100","69","19","920.286349591","1","0","3","162","3","left","out","Female","Right-handed","0","3","no","left","d","708.693145046","1016.49131224","14","green","3"
"100","64","19","898.290570409","1","0","3","163","1","right","in","Female","Right-handed","0","3","no","right","s","664.367591963","560.323290142","14","red","0"
"100","60","19","879.000220008","1","0","3","164","0","left","in","Female","Right-handed","0","3","no","left","s","664.926271606","552.944357175","14","red","0"
"100","62","19","877.775718987","1","1","3","165","1","left","out","Female","Right-handed","0","3","no","left","s","1070.39876641","648.417640935","14","red","2"
"100","58","19","871.266336625","1","0","3","166","2","left","out","Female","Right-handed","0","3","no","left","d","637.106142076","897.126295595","14","green","0"
"100","55","19","854.265539387","1","0","3","167","1","left","in","Female","Right-handed","0","3","no","left","s","641.817395783","488.686576872","14","green","0"
"100","57","19","876.896819341","1","1","3","168","3","right","out","Female","Right-handed","0","3","no","right","d","1424.21071267","1144.30900436","14","red","2"
"100","60","19","878.913563728","1","1","3","169","0","right","out","Female","Right-handed","0","3","no","right","d","617.77428701","1216.68912717","14","red","0"
"100","61","19","868.50492917","1","1","3","170","0","right","in","Female","Right-handed","0","3","no","right","d","632.319200428","688.345275565","14","red","2"
"100","63","19","867.073306163","1","1","3","171","1","right","out","Female","Right-handed","0","3","no","right","s","904.962242621","769.056203429","14","green","2"
"95","65","19","902.458544607","0","1","3","172","2","right","in","Female","Right-handed","0","3","no","left","s","1798.4561584","1563.41142234","14","green","0"
"95","62","19","913.232827389","1","0","3","173","0","right","out","Female","Right-handed","0","3","no","right","d","1657.09128671","664.991376065","14","green","1"
"96","64","19","918.727069921","1","1","3","174","2","right","in","Female","Right-handed","0","3","no","right","d","1188.56400089","912.613780465","14","green","2"
"96","61","19","909.629990563","1","0","3","175","0","right","in","Female","Right-handed","0","3","no","right","d","660.218545727","704.187467488","14","red","0"
"96","62","19","903.840060782","1","1","3","176","1","right","in","Female","Right-handed","0","3","no","right","d","753.822080739","752.781692242","14","green","3"
"96","64","19","897.035413939","1","1","3","177","3","left","out","Female","Right-handed","0","3","no","left","s","778.279548926","648.340349434","14","red","3"
"96","62","19","890.60044448","1","0","3","178","2","right","out","Female","Right-handed","0","3","no","right","s","811.846830696","608.995768531","14","green","1"
"96","63","19","886.879591388","1","1","3","179","0","left","out","Female","Right-handed","0","3","no","left","d","797.513266236","760.436437202","14","red","3"
"96","64","19","890.354117978","1","1","3","180","1","right","in","Female","Right-handed","0","3","no","right","s","1245.0419587","744.137872643","14","red","1"
"96","65","19","888.537082161","1","1","3","181","0","left","out","Female","Right-handed","0","3","no","left","d","879.753347107","784.66459658","14","green","0"
"96","66","19","882.222569044","1","1","3","182","1","left","out","Female","Right-handed","0","3","no","left","d","744.193997176","616.122301452","14","green","3"
"97","67","19","879.563155683","1","1","3","183","0","left","out","Female","Right-handed","0","3","no","left","d","670.825120443","912.779909085","14","red","1"
"97","65","19","878.098553032","1","0","3","184","2","left","out","Female","Right-handed","0","3","no","left","d","880.25077083","776.353354932","14","red","3"
"97","66","19","879.333593502","1","1","3","185","3","right","out","Female","Right-handed","0","3","no","right","s","845.092438711","1000.0275812","14","green","1"
"97","67","19","872.230956365","1","1","3","186","1","left","in","Female","Right-handed","0","3","no","left","s","697.504478738","535.567560148","14","green","2"
"97","68","19","871.284167646","1","1","3","187","3","left","in","Female","Right-handed","0","3","no","left","d","792.250388542","880.255581504","14","red","2"
"97","69","19","869.706093457","1","1","3","188","3","left","in","Female","Right-handed","0","3","no","left","d","994.822752309","624.655796253","14","red","1"
"97","70","19","868.286066587","1","1","3","189","3","left","in","Female","Right-handed","0","3","no","left","s","841.440816198","784.369221177","14","red","0"
"97","70","19","866.327474756","1","1","3","190","3","left","in","Female","Right-handed","0","3","no","left","d","711.904430503","864.063172492","14","green","0"
"97","71","19","860.68908389","1","1","3","191","3","left","in","Female","Right-handed","0","3","no","left","d","546.535576861","712.494539884","14","red","2"
"97","72","19","855.039891379","1","1","3","192","2","left","out","Female","Right-handed","0","3","no","left","d","499.288661626","736.25895026","14","green","2"
"97","72","19","854.9339267","1","1","3","193","2","right","in","Female","Right-handed","0","3","no","right","s","907.831970202","792.922920811","14","red","3"
"97","73","19","851.133719142","1","1","3","194","3","right","in","Female","Right-handed","0","3","no","right","d","631.425697853","736.423475321","14","green","2"
"97","73","19","846.055884307","1","1","3","195","2","right","out","Female","Right-handed","0","3","no","right","s","595.086505546","640.020127862","14","red","0"
"97","74","19","845.447316354","1","1","3","196","0","left","in","Female","Right-handed","0","3","no","left","s","778.366141063","856.540240008","14","green","1"
"97","72","19","843.547691101","1","0","3","197","1","right","out","Female","Right-handed","0","3","no","right","d","804.236985362","704.293623035","14","red","0"
"97","73","19","836.747931413","1","1","3","198","0","right","out","Female","Right-handed","0","3","no","right","s","491.789782513","528.929150313","14","green","0"
"98","72","19","834.691796133","1","0","3","199","1","left","out","Female","Right-handed","0","3","no","left","s","1019.42165432","448.460680435","14","green","2"
"98","70","19","829.335600098","1","0","3","200","3","right","out","Female","Right-handed","0","3","no","right","s","459.070141556","663.981455171","14","red","0"
"98","71","19","834.52376964","1","1","3","201","2","right","in","Female","Right-handed","0","3","no","right","d","1029.62573595","1168.61509667","14","red","1"
"98","71","19","834.912486089","1","1","3","202","2","left","out","Female","Right-handed","0","3","no","left","s","822.099981207","888.151501604","14","green","0"
"98","72","19","833.261550352","1","1","3","203","2","left","out","Female","Right-handed","0","3","no","left","d","771.778724376","719.745188203","14","red","2"
"98","72","19","833.535808298","1","1","3","204","0","right","in","Female","Right-handed","0","3","no","right","d","752.364446423","944.327028356","14","red","3"
"98","73","19","830.205454851","1","1","3","205","3","right","out","Female","Right-handed","0","3","no","right","s","574.059689564","720.012340983","14","green","0"
"98","73","19","829.045762184","1","1","3","206","1","left","out","Female","Right-handed","0","3","no","left","d","871.712144643","656.493800965","14","red","1"
"98","72","19","825.503704695","1","0","3","207","1","right","in","Female","Right-handed","0","3","no","right","s","751.073261438","496.139594223","14","red","0"
"98","72","19","825.651460156","1","1","3","208","2","right","out","Female","Right-handed","0","3","no","right","d","628.677519975","1039.76503384","14","red","1"
"98","73","19","824.23786625","1","1","3","209","1","right","in","Female","Right-handed","0","3","no","right","d","817.28577907","664.385872525","14","green","1"
"98","73","19","825.494881953","1","1","3","210","0","right","in","Female","Right-handed","0","3","no","right","s","921.958675666","879.872972541","14","green","1"
"98","74","19","824.043871239","1","1","3","211","3","left","in","Female","Right-handed","0","3","no","left","s","750.605663896","720.458771559","14","green","1"
"98","74","19","823.297388586","1","1","3","212","3","right","in","Female","Right-handed","0","3","no","right","s","1010.0623271","543.968601049","14","green","0"
"98","75","19","821.819719339","1","1","3","213","2","left","in","Female","Right-handed","0","3","no","left","s","857.776262594","599.676850971","14","red","0"
"100","0","19","907.991203522","1","0","4","214","2","left","in","Female","Right-handed","0","3","no","left","d","943.49061245","872.491794593","14","green","1"
"100","50","19","872.482093067","1","1","4","215","3","right","out","Female","Right-handed","0","3","no","right","s","905.006180113","768.93978511","14","red","0"
"100","66","19","792.322121041","1","1","4","216","0","right","out","Female","Right-handed","0","3","no","right","s","711.454151387","552.550202593","14","red","3"
"100","75","19","787.174004656","1","1","4","217","3","left","out","Female","Right-handed","0","3","no","left","s","951.251512957","592.207798039","14","green","0"
"100","80","19","810.571520936","1","1","4","218","3","left","out","Female","Right-handed","0","3","no","left","s","1279.75642594","528.566746182","14","green","2"
"100","83","19","804.793633832","1","1","4","219","0","right","out","Female","Right-handed","0","3","no","right","d","735.448832706","816.359563909","14","green","0"
"100","71","19","798.311128024","1","0","4","220","0","left","in","Female","Right-handed","0","3","no","left","s","709.921791264","808.910395097","14","red","3"
"100","62","19","830.267844715","1","0","4","221","1","right","in","Female","Right-handed","0","3","no","right","s","1277.47873201","830.450991096","14","red","2"
"100","66","19","825.698935743","1","1","4","222","0","right","in","Female","Right-handed","0","3","no","right","d","722.135451911","856.159876026","14","green","2"
"100","60","19","843.995107865","1","0","4","223","1","left","out","Female","Right-handed","0","3","no","left","s","1296.59667242","720.724641493","14","red","1"
"100","63","19","841.377636009","1","1","4","224","1","left","in","Female","Right-handed","0","3","no","left","d","790.269352862","840.136482037","14","green","0"
"100","66","19","839.207166665","1","1","4","225","1","right","in","Female","Right-handed","0","3","no","right","d","789.870066894","840.793940859","14","red","0"
"100","69","19","823.573947144","1","1","4","226","1","right","out","Female","Right-handed","0","3","no","right","s","575.436183839","696.514441965","14","red","3"
"100","71","19","810.175923152","1","1","4","227","3","left","out","Female","Right-handed","0","3","no","left","d","664.027958357","607.975264154","14","red","3"
"100","73","19","799.536400662","1","1","4","228","2","left","out","Female","Right-handed","0","3","no","left","s","812.587033116","488.579138479","14","red","1"
"100","75","19","794.549379728","1","1","4","229","3","left","in","Female","Right-handed","0","3","no","left","d","735.194508391","704.293623035","14","green","0"
"100","70","19","794.652009215","1","0","4","230","1","left","out","Female","Right-handed","0","3","no","left","d","759.770639878","832.817522143","14","green","1"
"100","72","19","793.829608197","1","1","4","231","2","left","in","Female","Right-handed","0","3","no","left","d","647.324014309","912.373567462","14","red","3"
"100","68","19","794.364165074","1","0","4","232","2","left","in","Female","Right-handed","0","3","no","left","d","855.886950437","752.085427313","14","red","0"
"100","70","19","812.14542925","1","1","4","233","2","right","in","Female","Right-handed","0","3","no","right","d","1355.43667132","944.542225854","14","green","1"
"100","71","19","805.000187387","1","1","4","234","3","left","in","Female","Right-handed","0","3","no","left","s","620.127668882","704.063031379","14","red","1"
"100","72","19","800.713232031","1","1","4","235","0","left","in","Female","Right-handed","0","3","no","left","s","716.732102528","704.642236565","14","green","2"
"100","73","19","798.217681423","1","1","4","236","3","right","out","Female","Right-handed","0","3","no","right","s","926.429074946","560.20206115","14","red","2"
"100","75","19","801.491914379","1","1","4","237","2","right","in","Female","Right-handed","0","3","no","right","s","849.788618971","903.809925768","14","red","0"
"100","76","19","793.929961714","1","1","4","238","0","left","in","Female","Right-handed","0","3","no","left","s","760.410780272","464.475415209","14","green","0"
"100","76","19","801.432744627","1","1","4","239","3","right","in","Female","Right-handed","0","3","no","right","d","1314.09566058","663.908974345","14","green","2"
"100","77","19","804.349543263","1","1","4","240","1","right","out","Female","Right-handed","0","3","no","right","d","848.626360058","911.746255532","14","green","0"
"100","75","19","802.330022612","1","0","4","241","3","right","out","Female","Right-handed","0","3","no","right","d","703.280174313","792.325755773","14","green","2"
"100","75","19","797.916975812","1","1","4","242","0","left","in","Female","Right-handed","0","3","no","left","d","684.893456393","663.809874454","14","red","0"
"100","76","19","791.571206853","1","1","4","243","1","right","in","Female","Right-handed","0","3","no","right","s","590.552605365","624.535208684","14","green","2"
"100","77","19","792.153000838","1","1","4","244","3","right","out","Female","Right-handed","0","3","no","right","d","699.074041409","920.139599354","14","green","3"
"100","78","19","796.294612189","1","1","4","245","1","left","out","Female","Right-handed","0","3","no","left","d","1032.64780155","816.721326617","14","red","2"
"100","78","19","793.516732954","1","1","4","246","2","right","out","Female","Right-handed","0","3","no","right","s","649.061629869","760.187564984","14","red","0"
"100","79","19","789.849833764","1","1","4","247","1","right","in","Female","Right-handed","0","3","no","right","d","465.812461956","871.871859031","14","green","3"
"100","80","19","785.521583846","1","1","4","248","3","left","out","Female","Right-handed","0","3","no","left","d","620.46185039","656.260322905","14","green","1"
"100","77","19","779.720590869","1","0","4","249","3","right","in","Female","Right-handed","0","3","no","right","d","537.200303008","616.17137033","14","red","0"
"100","78","19","782.611994535","1","1","4","250","0","left","in","Female","Right-handed","0","3","no","left","d","901.703491844","871.70156116","14","green","0"
"100","78","19","779.419320046","1","1","4","251","1","left","in","Female","Right-handed","0","3","no","left","s","674.303879392","648.276848534","14","red","1"
"100","76","19","778.235858135","1","0","4","252","2","left","out","Female","Right-handed","0","3","no","left","s","634.817543952","831.711067053","14","green","1"
"100","77","19","770.728566201","1","1","4","253","0","right","out","Female","Right-handed","0","3","no","right","s","555.49818381","400.390177758","14","red","0"
"100","78","19","765.738414336","1","1","4","254","2","right","out","Female","Right-handed","0","3","no","right","s","580.181432978","552.083246474","14","green","0"
"100","78","19","760.808825391","1","1","4","255","2","left","out","Female","Right-handed","0","3","no","left","s","661.746736599","455.644620736","14","green","0"
"100","76","19","763.097321851","1","0","4","256","2","right","in","Female","Right-handed","0","3","no","right","s","1158.15989783","560.268448455","14","red","2"
"100","75","19","757.434988256","1","0","4","257","1","right","out","Female","Right-handed","0","3","no","right","s","587.980498168","439.928789192","14","red","2"
"100","73","19","750.946209748","1","0","4","258","2","right","in","Female","Right-handed","0","3","no","right","s","467.387797436","463.49211338","14","green","2"
"100","73","19","752.763579007","1","1","4","259","0","right","in","Female","Right-handed","0","3","no","right","d","965.004268672","704.086122615","14","red","2"
"100","74","19","757.166191984","1","1","4","260","3","left","out","Female","Right-handed","0","3","no","left","s","847.696937781","1071.67584009","14","red","0"
"100","75","19","760.740264692","1","1","4","261","1","right","out","Female","Right-handed","0","3","no","right","s","625.150974995","1232.29238894","14","green","1"
"100","75","19","757.395537975","1","1","4","262","1","right","out","Female","Right-handed","0","3","no","right","s","657.849448985","535.847862104","14","green","0"
"100","76","19","761.175222077","1","1","4","263","1","right","in","Female","Right-handed","0","3","no","right","d","589.436208214","1303.32327796","14","green","0"
"100","74","19","761.818430738","1","0","4","264","0","left","out","Female","Right-handed","0","3","no","left","s","1011.84740798","576.110319666","14","green","1"
"100","73","19","758.766575055","1","0","4","265","0","right","out","Female","Right-handed","0","3","no","right","d","534.562449929","671.681420471","14","red","1"
"100","73","19","765.208465761","1","1","4","266","0","left","in","Female","Right-handed","0","3","no","left","d","1472.23118433","728.142380566","14","green","2"
"100","74","19","762.469508343","1","1","4","267","2","right","out","Female","Right-handed","0","3","no","right","s","602.764662454","631.84486794","14","green","2"
"100","72","19","765.314834143","1","0","4","268","0","left","out","Female","Right-handed","0","3","no","left","d","790.475891145","1047.44896356","14","red","0"
"100","73","19","764.924263722","1","1","4","269","3","right","in","Female","Right-handed","0","3","no","right","s","894.882276386","592.003504737","14","red","1"
"100","73","19","759.102977362","1","1","4","270","0","left","in","Female","Right-handed","0","3","no","left","s","450.60303406","415.61884835","14","red","1"
"100","74","19","756.811970117","1","1","4","271","0","left","in","Female","Right-handed","0","3","no","left","s","772.207836524","480.241277766","14","green","1"
"100","74","19","754.36193624","1","1","4","272","2","right","in","Female","Right-handed","0","3","no","right","s","728.748525528","495.771417283","14","red","0"
"100","73","19","751.355760269","1","0","4","273","2","right","in","Female","Right-handed","0","3","no","right","s","804.505100277","343.477655701","14","green","2"
"100","72","19","749.071200745","1","0","4","274","3","left","out","Female","Right-handed","0","3","no","left","s","663.932707005","560.062551595","14","green","1"
"100","70","19","746.272968875","1","0","4","275","1","left","out","Female","Right-handed","0","3","no","left","s","687.617901609","463.543747951","14","red","0"
"100","71","19","744.685383377","1","1","4","276","3","left","out","Female","Right-handed","0","3","no","left","d","556.317602001","736.192562954","14","red","0"
"100","70","19","741.484277133","1","0","4","277","2","left","in","Female","Right-handed","0","3","no","left","s","615.734561103","463.894606465","14","red","3"
"100","100","19","704.647849019","1","1","5","278","1","right","out","Female","Right-handed","0","3","no","right","d","576.616723315","832.678974723","14","red","3"
"100","100","19","637.752536348","1","1","5","279","1","left","in","Female","Right-handed","0","3","no","left","d","693.288083061","448.426364291","14","green","0"
"100","66","19","1040.8514979","1","0","5","280","3","left","out","Female","Right-handed","0","3","no","left","None","693.917639973","3000.18120207","14","red","1"
"100","75","19","1018.84870301","1","1","5","281","0","left","in","Female","Right-handed","0","3","no","left","s","905.331702408","1000.34893424","14","green","2"
"100","80","19","941.967841604","1","1","5","282","1","left","out","Female","Right-handed","0","3","no","left","d","756.904119412","511.984672551","14","green","1"
"100","83","19","927.536091282","1","1","5","283","1","right","in","Female","Right-handed","0","3","no","right","s","1174.53158464","536.223094701","14","green","2"
"100","85","19","870.966169414","1","1","5","284","1","right","in","Female","Right-handed","0","3","no","right","s","599.051463311","464.041813098","14","red","0"
"100","87","19","843.561080811","1","1","5","285","3","right","in","Female","Right-handed","0","3","no","right","d","663.759202018","639.691719162","14","red","0"
"100","88","19","809.808191645","1","1","5","286","2","right","in","Female","Right-handed","0","3","no","right","s","615.342651503","464.227505127","14","red","1"
"100","90","19","792.830924682","1","1","5","287","3","left","in","Female","Right-handed","0","3","no","left","s","784.066469408","496.00457463","14","green","1"
"100","90","19","776.678352426","1","1","5","288","3","right","out","Female","Right-handed","0","3","no","right","d","526.604953199","703.700306536","14","red","1"
"100","91","19","760.022919656","1","1","5","289","2","right","out","Female","Right-handed","0","3","no","right","s","697.355668546","456.27064982","14","green","2"
"100","92","19","737.701005391","1","1","5","290","0","left","out","Female","Right-handed","0","3","no","left","s","491.840454949","447.835613486","14","red","1"
"100","92","19","712.149843616","1","1","5","291","0","right","out","Female","Right-handed","0","3","no","right","s","415.414555048","344.554926035","14","green","0"
"100","86","19","689.317951149","1","0","5","292","1","right","in","Female","Right-handed","0","3","no","right","s","443.067593823","296.275319381","14","red","0"
"100","87","19","683.004114169","1","1","5","293","0","left","out","Female","Right-handed","0","3","no","left","d","528.7880372","647.80508174","14","green","0"
"100","88","19","689.93634478","1","1","5","294","3","left","in","Female","Right-handed","0","3","no","left","d","1033.35176356","568.352305564","14","green","2"
"100","88","19","682.523219343","1","1","5","295","3","right","out","Female","Right-handed","0","3","no","right","s","456.990005984","656.010167841","14","red","0"
"100","84","19","701.869676166","1","0","5","296","0","right","out","Female","Right-handed","0","3","no","right","d","1092.53460318","1007.67719477","14","green","1"
"100","85","19","698.161328208","1","1","5","297","1","right","in","Female","Right-handed","0","3","no","right","s","767.171060523","488.234373487","14","green","0"
"100","85","19","695.162848656","1","1","5","298","0","left","in","Female","Right-handed","0","3","no","left","d","718.674332102","551.712183129","14","red","2"
"100","86","19","689.536413102","1","1","5","299","0","left","out","Female","Right-handed","0","3","no","left","d","518.44797384","624.314559089","14","red","0"
"100","82","19","695.334195313","1","0","5","300","3","left","out","Female","Right-handed","0","3","no","left","d","381.868119533","1263.9026884","14","red","0"
"100","79","19","697.094208397","1","0","5","301","1","right","in","Female","Right-handed","0","3","no","right","d","787.569602439","687.579416215","14","red","2"
"100","76","19","696.155559247","1","0","5","302","2","right","in","Female","Right-handed","0","3","no","right","s","603.081846247","744.174113056","14","green","2"
"100","76","19","694.623310386","1","1","5","303","2","left","in","Female","Right-handed","0","3","no","left","d","544.759796618","767.874381106","14","green","1"
"100","74","19","694.039361911","1","0","5","304","3","right","in","Female","Right-handed","0","3","no","right","d","525.356102148","832.357300968","14","red","3"
"100","71","19","694.51848174","1","0","5","305","3","left","out","Female","Right-handed","0","3","no","left","d","710.96987684","703.939557405","14","green","2"
"100","72","19","693.966802853","1","1","5","306","2","left","out","Female","Right-handed","0","3","no","left","s","813.539546629","543.500041372","14","green","0"
"100","73","19","693.103759403","1","1","5","307","0","right","out","Female","Right-handed","0","3","no","right","d","560.157161523","775.993837205","14","red","2"
"100","70","19","691.688280388","1","0","5","308","2","left","in","Female","Right-handed","0","3","no","left","d","634.681882936","663.765936962","14","red","0"
"100","71","19","692.536119545","1","1","5","309","2","right","out","Female","Right-handed","0","3","no","right","d","597.408136967","840.23012983","14","green","3"
"96","72","19","695.060097373","0","1","5","310","2","right","out","Female","Right-handed","0","3","no","left","d","908.812706338","642.842069411","14","red","1"
"97","73","19","699.440166738","1","1","5","311","1","right","out","Female","Right-handed","0","3","no","right","d","600.479912869","1087.48499871","14","red","0"
"97","74","19","704.185043824","1","1","5","312","3","left","out","Female","Right-handed","0","3","no","left","s","794.879261696","936.142467799","14","red","0"
"97","75","19","708.768365284","1","1","5","313","3","left","in","Female","Right-handed","0","3","no","left","d","722.638969156","1015.73026357","14","green","2"
"97","75","19","709.106568328","1","1","5","314","2","right","in","Female","Right-handed","0","3","no","right","d","890.282951034","552.280804832","14","green","0"
"97","76","19","712.391485957","1","1","5","315","0","left","out","Female","Right-handed","0","3","no","left","d","643.83723757","1024.02963888","14","red","3"
"97","74","19","730.492612885","1","0","5","316","2","right","in","Female","Right-handed","0","3","no","right","d","709.339378961","2127.3314933","14","red","0"
"97","75","19","726.28819034","1","1","5","317","3","left","out","Female","Right-handed","0","3","no","left","d","476.707997842","647.923424328","14","green","0"
"97","75","19","724.381528369","1","1","5","318","0","left","out","Female","Right-handed","0","3","no","left","d","632.63445995","663.595639092","14","green","1"
"97","76","19","720.140595087","1","1","5","319","3","left","out","Female","Right-handed","0","3","no","left","s","596.299116183","496.225544936","14","green","2"
"97","76","19","715.505455163","1","1","5","320","1","left","in","Female","Right-handed","0","3","no","left","s","497.884906862","543.774249807","14","red","1"
"97","77","19","714.083126586","1","1","5","321","2","right","in","Female","Right-handed","0","3","no","right","s","914.415217638","391.430777925","14","red","1"
"97","75","19","711.337137971","1","0","5","322","0","left","in","Female","Right-handed","0","3","no","left","s","645.020984162","536.006293645","14","green","1"
"97","76","19","709.747407806","1","1","5","323","2","left","in","Female","Right-handed","0","3","no","left","s","740.6841292","535.734971614","14","red","2"
"97","76","19","708.650275455","1","1","5","324","1","left","out","Female","Right-handed","0","3","no","left","d","669.266141255","647.098233328","14","red","0"
"97","77","19","706.477425296","1","1","5","325","0","left","in","Female","Right-handed","0","3","no","left","s","744.78442727","463.922508375","14","green","0"
"97","77","19","703.946809415","1","1","5","326","1","right","out","Female","Right-handed","0","3","no","right","s","685.42327199","479.531222239","14","green","2"
"98","76","19","700.799418614","1","0","5","327","3","right","in","Female","Right-handed","0","3","no","right","s","613.101518698","480.053020045","14","green","0"
"98","76","19","698.758564934","1","1","5","328","1","left","in","Female","Right-handed","0","3","no","left","d","521.727570873","671.704190996","14","red","1"
"98","75","19","699.700116749","1","0","5","329","3","right","out","Female","Right-handed","0","3","no","right","s","584.300653033","911.137865587","14","green","3"
"98","75","19","697.967017509","1","1","5","330","0","right","out","Female","Right-handed","0","3","no","right","d","503.905946827","711.785767203","14","green","2"
"98","75","19","699.078249264","1","1","5","331","2","left","in","Female","Right-handed","0","3","no","left","d","884.439906019","631.507158604","14","red","0"
"98","76","19","696.777763699","1","1","5","332","0","right","out","Female","Right-handed","0","3","no","right","s","609.976825378","535.126260958","14","red","0"
"98","76","19","694.669038665","1","1","5","333","2","right","out","Female","Right-handed","0","3","no","right","d","613.629730736","543.748592877","14","green","0"
"98","77","19","694.706731223","1","1","5","334","2","right","in","Female","Right-handed","0","3","no","right","s","770.332635678","623.302393214","14","green","2"
"98","77","19","690.038237562","1","1","5","335","2","right","out","Female","Right-handed","0","3","no","right","s","487.819051938","360.049145849","14","red","3"
"98","76","19","686.395068969","1","0","5","336","1","right","in","Female","Right-handed","0","3","no","right","s","630.646047902","319.536533223","14","green","2"
"98","76","19","688.000612132","1","1","5","337","0","left","in","Female","Right-handed","0","3","no","left","d","790.256845109","775.198472387","14","red","0"
"98","75","19","690.013112689","1","0","5","338","3","left","out","Female","Right-handed","0","3","no","left","d","989.765450763","631.760841496","14","red","1"
"98","74","19","690.518482166","1","0","5","339","0","left","in","Female","Right-handed","0","3","no","left","d","747.376097876","695.315942639","14","red","3"
"98","74","19","689.494128223","1","1","5","340","1","left","out","Female","Right-handed","0","3","no","left","s","699.920720087","552.047647484","14","green","1"
"98","73","19","689.370076976","1","0","5","341","1","right","in","Female","Right-handed","0","3","no","right","s","547.633372738","815.476324107","14","green","3"
"100","100","19","741.613711833","1","1","6","342","1","right","in","Female","Right-handed","0","3","no","right","s","779.680737996","703.54668567","14","red","3"
"100","100","19","681.888388508","1","1","6","343","2","left","out","Female","Right-handed","0","3","no","left","s","556.230047728","688.096082636","14","green","3"
"100","100","19","745.83759078","1","1","6","344","3","right","out","Female","Right-handed","0","3","no","right","s","995.709199228","751.762791423","14","green","0"
"100","100","19","733.581128494","1","1","6","345","3","right","out","Female","Right-handed","0","3","no","right","d","626.254543682","767.368939593","14","red","0"
"100","100","19","807.235254161","1","1","6","346","2","right","in","Female","Right-handed","0","3","no","right","d","1139.9274422","1063.77607145","14","red","1"
"100","83","19","788.800680721","1","0","6","347","0","left","out","Female","Right-handed","0","3","no","left","d","641.636193717","751.619433329","14","green","1"
"100","85","19","764.629993629","1","1","6","348","0","right","out","Female","Right-handed","0","3","no","right","d","591.101663659","648.110078491","14","green","0"
"100","87","19","777.693688973","1","1","6","349","1","left","in","Female","Right-handed","0","3","no","left","s","794.743279969","943.535832789","14","green","0"
"100","88","19","768.49616967","1","1","6","350","1","right","in","Female","Right-handed","0","3","no","right","s","733.404296125","656.427734371","14","red","0"
"100","80","19","843.73388825","1","0","6","351","2","right","out","Female","Right-handed","0","3","no","right","s","745.90050371","2295.84620723","14","green","2"
"100","81","19","822.298560011","1","1","6","352","2","left","in","Female","Right-handed","0","3","no","left","d","536.374791296","679.515763938","14","red","2"
"100","83","19","821.902128862","1","1","6","353","0","right","in","Female","Right-handed","0","3","no","right","d","923.037549558","712.045222905","14","red","1"
"100","76","19","827.065522223","1","0","6","354","3","right","out","Female","Right-handed","0","3","no","right","d","930.699670886","847.352814212","14","green","1"
"100","78","19","816.22032925","1","1","6","355","0","right","out","Female","Right-handed","0","3","no","right","d","526.248001165","824.217640037","14","red","0"
"100","80","19","795.289783261","1","1","6","356","1","left","out","Female","Right-handed","0","3","no","left","s","556.794179469","447.730099363","14","green","2"
"100","81","19","796.329690023","1","1","6","357","2","left","out","Female","Right-handed","0","3","no","left","s","928.473611527","695.382971367","14","green","0"
"100","82","19","781.372661583","1","1","6","358","1","left","out","Female","Right-handed","0","3","no","left","s","596.049923254","488.070489848","14","red","1"
"100","83","19","767.554916698","1","1","6","359","3","right","in","Female","Right-handed","0","3","no","right","s","545.671900467","519.634606836","14","green","3"
"100","78","19","768.489430037","1","0","6","360","2","left","out","Female","Right-handed","0","3","no","left","s","883.342430853","687.278909427","14","red","1"
"100","80","19","776.128295552","1","1","6","361","3","left","in","Female","Right-handed","0","3","no","left","d","610.875459339","1231.65802135","14","green","0"
"100","80","19","772.16573167","1","1","6","362","3","left","out","Female","Right-handed","0","3","no","left","s","754.439129896","631.389778151","14","green","2"
"100","81","19","760.68404844","1","1","6","363","2","left","out","Female","Right-handed","0","3","no","left","s","495.103054265","544.034346932","14","green","0"
"100","78","19","766.225623581","1","0","6","364","3","right","in","Female","Right-handed","0","3","no","right","s","992.631971228","783.648582166","14","red","2"
"100","79","19","775.33215568","1","1","6","365","0","right","in","Female","Right-handed","0","3","no","right","d","1050.29976915","919.265018765","14","green","1"
"100","76","19","767.125404016","1","0","6","366","1","left","in","Female","Right-handed","0","3","no","left","s","564.578812636","575.747915535","14","red","1"
"100","73","19","775.80861391","1","0","6","367","2","right","out","Female","Right-handed","0","3","no","right","d","1002.33862914","983.439093335","14","red","2"
"100","74","19","763.904470128","1","1","6","368","2","left","out","Female","Right-handed","0","3","no","left","s","532.794687476","375.998776164","14","green","3"
"100","75","19","762.09246029","1","1","6","369","0","right","in","Female","Right-handed","0","3","no","right","d","594.728591377","831.607797911","14","green","2"
"100","72","19","754.509708571","1","0","6","370","0","right","out","Female","Right-handed","0","3","no","right","s","525.213706188","559.171614712","14","red","2"
"100","73","19","755.434495827","1","1","6","371","0","left","in","Female","Right-handed","0","3","no","left","d","604.833252407","959.673400114","14","red","0"
"100","70","19","757.225932833","1","0","6","372","3","left","in","Female","Right-handed","0","3","no","left","d","654.421683184","967.516402796","14","red","2"
"100","71","19","756.996439259","1","1","6","373","1","left","out","Female","Right-handed","0","3","no","left","d","684.749777587","815.014499372","14","red","2"
"100","69","19","760.238878843","1","0","6","374","0","left","in","Female","Right-handed","0","3","no","left","s","664.501970131","1063.49192095","14","red","3"
"100","70","19","756.443072876","1","1","6","375","1","right","out","Female","Right-handed","0","3","no","right","d","671.133645023","591.229306885","14","red","0"
"100","71","19","752.195330604","1","1","6","376","1","right","out","Female","Right-handed","0","3","no","right","s","639.642650283","575.901536402","14","green","0"
"100","69","19","746.994170425","1","0","6","377","2","left","in","Female","Right-handed","0","3","no","left","s","522.481884604","607.425243725","14","green","1"
"100","70","19","742.158600876","1","1","6","378","2","left","in","Female","Right-handed","0","3","no","left","s","481.056847418","655.099346839","14","green","0"
"100","71","19","737.773557307","1","1","6","379","0","right","in","Female","Right-handed","0","3","no","right","s","527.580237236","623.47365322","14","green","0"
"100","71","19","734.438689782","1","1","6","380","0","left","out","Female","Right-handed","0","3","no","left","d","528.190872163","687.236575493","14","red","0"
"100","72","19","732.385375261","1","1","6","381","1","right","out","Female","Right-handed","0","3","no","right","s","744.780578731","559.831639227","14","green","2"
"100","70","19","728.47273309","1","0","6","382","1","left","out","Female","Right-handed","0","3","no","left","s","632.372759268","511.561333211","14","red","3"
"100","69","19","723.40285842","1","0","6","383","1","left","in","Female","Right-handed","0","3","no","left","s","583.974489315","447.101504586","14","green","2"
"100","69","19","719.908963694","1","1","6","384","1","right","in","Female","Right-handed","0","3","no","right","s","674.656662175","471.674108245","14","green","1"
"100","68","19","716.044482235","1","0","6","385","3","right","in","Female","Right-handed","0","3","no","right","s","532.266475437","567.477083551","14","green","1"
"100","68","19","719.083563693","1","1","6","386","0","right","out","Female","Right-handed","0","3","no","right","s","786.801498109","918.804797589","14","red","2"
"100","69","19","715.005652612","1","1","6","387","2","right","out","Female","Right-handed","0","3","no","right","s","607.516967248","455.482340656","14","red","2"
"100","70","19","711.177247609","1","1","6","388","0","right","out","Female","Right-handed","0","3","no","right","s","543.083436976","527.057798007","14","green","2"
"100","70","19","708.55551299","1","1","6","389","3","right","in","Female","Right-handed","0","3","no","right","s","626.796867033","543.871104717","14","green","0"
"100","69","19","713.365730094","1","0","6","390","2","left","in","Female","Right-handed","0","3","no","left","s","1169.13048024","719.381821937","14","green","0"
"100","70","19","714.475412002","1","1","6","391","1","right","out","Female","Right-handed","0","3","no","right","s","890.79865532","646.900995682","14","green","1"
"100","68","19","713.013816018","1","0","6","392","2","left","out","Female","Right-handed","0","3","no","left","d","648.414433819","631.453599763","14","green","0"
"100","69","19","710.160551814","1","1","6","393","0","left","in","Female","Right-handed","0","3","no","left","s","642.179799914","487.108354987","14","red","1"
"100","69","19","715.670050868","1","1","6","394","3","right","in","Female","Right-handed","0","3","no","right","d","1269.71302083","734.614982492","14","green","1"
"100","68","19","716.422128807","1","0","6","395","0","left","in","Female","Right-handed","0","3","no","left","d","921.281332723","591.283186437","14","green","3"
"100","69","19","714.858009595","1","1","6","396","3","right","out","Female","Right-handed","0","3","no","right","d","621.886130698","638.905013557","14","red","0"
"100","69","19","714.182485233","1","1","6","397","3","left","in","Female","Right-handed","0","3","no","left","s","586.481171341","767.5761193","14","red","0"
"100","70","19","716.706589074","1","1","6","398","3","left","out","Female","Right-handed","0","3","no","left","d","837.048670555","879.064137834","14","red","1"
"100","70","19","714.586395254","1","1","6","399","0","left","out","Female","Right-handed","0","3","no","left","s","540.673930571","646.796764405","14","red","0"
"100","71","19","721.046451143","1","1","6","400","2","right","in","Female","Right-handed","0","3","no","right","d","1480.29644017","711.162945236","14","red","0"
"100","71","19","725.300824828","1","1","6","401","2","right","in","Female","Right-handed","0","3","no","right","d","1113.80099074","838.816753719","14","red","1"
"100","72","19","727.474112184","1","1","6","402","1","left","in","Female","Right-handed","0","3","no","left","d","972.367166058","743.375541121","14","red","0"
"100","72","19","727.128836148","1","1","6","403","3","left","out","Female","Right-handed","0","3","no","left","d","661.077732159","751.056263723","14","red","3"
"100","73","19","725.042191141","1","1","6","404","1","left","in","Female","Right-handed","0","3","no","left","d","584.69576975","606.644631641","14","green","0"
"100","73","19","727.309271997","1","1","6","405","3","right","in","Female","Right-handed","0","3","no","right","s","1188.97932244","551.291409483","14","red","2"
"100","100","19","674.669009572","1","1","7","406","2","right","out","Female","Right-handed","0","3","no","right","s","725.099147997","624.238871146","14","green","0"
"100","50","19","662.7196153","1","0","7","407","2","right","out","Female","Right-handed","0","3","no","right","s","629.736509746","671.80393231","14","red","0"
"100","66","19","620.788227916","1","1","7","408","1","left","in","Female","Right-handed","0","3","no","left","d","538.411630799","535.439275499","14","green","0"
"100","75","19","628.345423092","1","1","7","409","3","left","out","Female","Right-handed","0","3","no","left","s","566.004055077","736.029962162","14","green","1"
"100","80","19","660.895535887","1","1","7","410","1","right","in","Female","Right-handed","0","3","no","right","d","1006.63873055","575.553243581","14","green","2"
"100","66","19","650.450765528","1","0","7","411","2","left","out","Female","Right-handed","0","3","no","left","s","629.243575986","567.210251483","14","red","0"
"100","71","19","786.627030986","1","1","7","412","0","right","in","Female","Right-handed","0","3","no","right","d","863.553882439","2343.81536504","14","red","3"
"100","75","19","798.209150319","1","1","7","413","2","right","out","Female","Right-handed","0","3","no","right","d","687.259987441","1071.30798386","14","green","2"
"100","66","19","802.822860923","1","0","7","414","0","right","in","Female","Right-handed","0","3","no","right","d","927.71031787","751.754773632","14","green","2"
"100","60","19","810.233138105","1","0","7","415","1","left","in","Female","Right-handed","0","3","no","left","s","890.450041789","863.401223707","14","green","1"
"100","54","19","828.333040708","1","0","7","416","3","right","in","Female","Right-handed","0","3","no","right","d","938.873327249","1079.79080622","14","red","2"
"100","58","19","826.425699456","1","1","7","417","3","right","out","Female","Right-handed","0","3","no","right","d","571.54755544","1039.34233592","14","red","0"
"100","61","19","853.051292297","1","1","7","418","3","left","out","Female","Right-handed","0","3","no","left","s","1250.1172201","1094.9995927","14","red","0"
"100","64","19","854.132531878","1","1","7","419","3","right","in","Female","Right-handed","0","3","no","right","d","680.693417009","1055.68387584","14","red","2"
"100","60","19","868.969440245","1","0","7","420","1","left","out","Female","Right-handed","0","3","no","left","d","698.115755087","1455.25655968","14","red","0"
"100","62","19","848.519623222","1","1","7","421","3","left","in","Female","Right-handed","0","3","no","left","s","571.773336421","511.771399322","14","red","3"
"100","64","19","840.386797457","1","1","7","422","2","left","out","Female","Right-handed","0","3","no","left","d","701.150007729","719.373162723","14","red","1"
"100","66","19","827.392284191","1","1","7","423","2","left","in","Female","Right-handed","0","3","no","left","d","541.887503344","671.083614009","14","green","2"
"100","63","19","814.457085696","1","0","7","424","3","left","out","Female","Right-handed","0","3","no","left","d","523.625862955","639.621162605","14","green","2"
"100","65","19","810.612996967","1","1","7","425","0","right","in","Female","Right-handed","0","3","no","right","d","819.920745743","655.229876468","14","green","0"
"100","66","19","799.142908884","1","1","7","426","1","right","out","Female","Right-handed","0","3","no","right","s","707.778154792","431.704139682","14","red","3"
"100","68","19","788.970951866","1","1","7","427","3","right","in","Female","Right-handed","0","3","no","right","s","551.424504805","599.295204143","14","green","0"
"100","69","19","778.800984189","1","1","7","428","1","left","in","Female","Right-handed","0","3","no","left","s","823.21092626","286.912464329","14","green","1"
"100","70","19","783.852675023","1","1","7","429","2","left","out","Female","Right-handed","0","3","no","left","d","872.559785456","927.523342995","14","green","1"
"100","68","19","781.150694052","1","0","7","430","0","right","in","Female","Right-handed","0","3","no","right","d","641.25454689","791.351754581","14","green","0"
"100","69","19","781.950784187","1","1","7","431","0","right","out","Female","Right-handed","0","3","no","right","s","740.920814376","862.985260736","14","green","1"
"100","70","19","780.970604499","1","1","7","432","1","right","out","Female","Right-handed","0","3","no","right","d","775.54355809","735.428307163","14","red","0"
"100","67","19","793.277582047","1","0","7","433","3","left","in","Female","Right-handed","0","3","no","left","s","588.046885474","1663.08506619","14","red","1"
"100","68","19","788.341406013","1","1","7","434","2","left","in","Female","Right-handed","0","3","no","left","s","524.613654746","775.643299404","14","red","3"
"100","70","19","789.886770624","1","1","7","435","2","right","out","Female","Right-handed","0","3","no","right","d","966.169413989","703.235274686","14","green","1"
"100","70","19","785.188835933","1","1","7","436","0","right","out","Female","Right-handed","0","3","no","right","d","601.781681337","686.719909072","14","red","2"
"100","71","19","780.959931373","1","1","7","437","0","left","out","Female","Right-handed","0","3","no","left","s","724.27427771","575.453502268","14","green","0"
"100","72","19","773.793663162","1","1","7","438","0","left","in","Female","Right-handed","0","3","no","left","s","473.950198617","614.995962241","14","red","0"
"100","73","19","773.892270552","1","1","7","439","1","right","in","Female","Right-handed","0","3","no","right","s","666.601989823","887.690639005","14","green","1"
"100","74","19","774.840242088","1","1","7","440","3","left","in","Female","Right-handed","0","3","no","left","s","782.999141134","831.143407484","14","red","0"
"100","72","19","779.684123285","1","0","7","441","1","right","out","Female","Right-handed","0","3","no","right","s","1275.75747274","622.682457651","14","green","2"
"100","72","19","780.376742888","1","1","7","442","3","left","out","Female","Right-handed","0","3","no","left","d","611.315475682","999.306621477","14","red","0"
"100","73","19","775.154226842","1","1","7","443","1","left","in","Female","Right-handed","0","3","no","left","d","604.778731431","559.063534896","14","red","0"
"100","74","19","782.085154132","1","1","7","444","1","right","out","Female","Right-handed","0","3","no","right","d","1140.47136911","950.449413194","14","red","3"
"100","72","19","783.836483096","1","0","7","445","0","left","in","Female","Right-handed","0","3","no","left","d","777.07335252","927.203272798","14","red","1"
"100","73","19","781.31902291","1","1","7","446","1","right","in","Female","Right-handed","0","3","no","right","d","658.556297398","702.684933546","14","red","0"
"100","73","19","779.506897026","1","1","7","447","0","left","in","Female","Right-handed","0","3","no","left","s","699.275448306","711.14402325","14","red","1"
"100","74","19","792.699116308","1","1","7","448","2","right","in","Female","Right-handed","0","3","no","right","d","990.704494388","1702.84015797","14","green","1"
"100","75","19","793.419604711","1","1","7","449","2","right","out","Female","Right-handed","0","3","no","right","s","873.351301736","775.449910297","14","green","0"
"100","75","19","791.542364188","1","1","7","450","3","left","out","Female","Right-handed","0","3","no","left","s","626.935093741","790.952468614","14","green","1"
"100","76","19","794.109700219","1","1","7","451","0","right","in","Female","Right-handed","0","3","no","right","d","612.603453551","1206.67618966","14","red","0"
"100","74","19","795.025260544","1","0","7","452","2","right","in","Female","Right-handed","0","3","no","right","d","747.130432775","927.151638227","14","red","3"
"100","75","19","794.956416226","1","1","7","453","3","left","in","Female","Right-handed","0","3","no","left","d","880.702332793","702.739133809","14","green","2"
"100","75","19","795.504868618","1","1","7","454","1","left","in","Female","Right-handed","0","3","no","left","s","892.280663718","751.380503171","14","green","2"
"100","76","19","791.402516817","1","1","7","455","0","right","out","Female","Right-handed","0","3","no","right","d","613.879885801","566.894671249","14","red","0"
"100","76","19","786.857748411","1","1","7","456","3","left","out","Female","Right-handed","0","3","no","left","s","520.575895443","598.662760826","14","green","0"
"100","76","19","783.508236911","1","1","7","457","1","left","out","Female","Right-handed","0","3","no","left","s","474.136852779","751.229447998","14","red","0"
"100","77","19","798.728841943","1","1","7","458","1","left","out","Female","Right-handed","0","3","no","left","d","1149.66039847","2030.74020883","14","green","2"
"100","75","19","797.285468929","1","0","7","459","0","left","in","Female","Right-handed","0","3","no","left","d","563.236313792","878.33708459","14","green","1"
"98","76","19","803.185427354","0","1","7","460","2","right","in","Female","Right-handed","0","3","no","left","d","896.783454872","1346.78290966","14","green","2"
"98","76","19","807.466279349","1","1","7","461","2","left","out","Female","Right-handed","0","3","no","left","d","759.441910466","1326.38436775","14","red","2"
"98","77","19","807.854471779","1","1","7","462","1","right","in","Female","Right-handed","0","3","no","right","s","836.133359589","823.053136143","14","red","1"
"98","77","19","813.687021444","1","1","7","463","0","right","out","Female","Right-handed","0","3","no","right","d","1029.61707674","1262.66762795","14","red","2"
"98","77","19","826.456745292","1","1","7","464","0","right","in","Female","Right-handed","0","3","no","right","s","1399.04671678","1735.15474015","14","red","3"
"98","78","19","830.091922365","1","1","7","465","3","right","out","Female","Right-handed","0","3","no","right","s","1306.68754286","782.447196435","14","green","1"
"98","78","19","829.95257632","1","1","7","466","0","left","out","Female","Right-handed","0","3","no","left","d","988.191718841","654.991908445","14","red","2"
"98","79","19","827.578196062","1","1","7","467","2","left","out","Female","Right-handed","0","3","no","left","d","734.736532197","630.745468505","14","green","0"
"98","79","19","825.090278539","1","1","7","468","2","right","out","Female","Right-handed","0","3","no","right","s","663.312771442","678.366012779","14","green","0"
"98","79","19","823.916689765","1","1","7","469","3","left","in","Female","Right-handed","0","3","no","left","s","1004.97135083","494.989843063","14","green","3"
"100","100","19","567.773100377","1","1","8","470","2","right","out","Female","Right-handed","0","3","no","right","d","568.264430579","567.281770174","14","green","0"
"100","100","19","686.085060419","1","1","8","471","3","right","out","Female","Right-handed","0","3","no","right","d","617.967034694","990.827006228","14","green","2"
"100","100","19","713.384140468","1","1","8","472","0","right","in","Female","Right-handed","0","3","no","right","d","792.573024433","743.391576702","14","red","1"
"100","100","19","734.941346655","1","1","8","473","2","right","in","Female","Right-handed","0","3","no","right","s","760.168642999","839.057287434","14","green","2"
"100","100","19","736.978017784","1","1","8","474","2","left","in","Female","Right-handed","0","3","no","left","s","674.617214646","815.632189953","14","red","2"
"100","100","19","722.024752951","1","1","8","475","1","right","in","Female","Right-handed","0","3","no","right","s","679.282285879","615.234571686","14","red","2"
"100","85","19","711.768838211","1","0","8","476","1","right","out","Female","Right-handed","0","3","no","right","s","781.741310159","518.725389392","14","green","1"
"100","87","19","727.214421536","1","1","8","477","3","right","out","Female","Right-handed","0","3","no","right","d","615.409680231","1055.25732938","14","red","0"
"100","88","19","719.417741639","1","1","8","478","1","right","out","Female","Right-handed","0","3","no","right","d","635.077641076","679.010963848","14","green","1"
"100","90","19","774.176621021","1","1","8","479","3","left","out","Female","Right-handed","0","3","no","left","d","1791.62532159","742.387749329","14","red","1"
"100","90","19","757.355360663","1","1","8","480","3","left","out","Female","Right-handed","0","3","no","left","d","563.123423302","615.16209086","14","red","0"
"100","91","19","743.340262843","1","1","8","481","3","right","out","Female","Right-handed","0","3","no","right","d","547.714512778","630.633860861","14","green","0"
"100","84","19","732.150671405","1","0","8","482","1","left","in","Female","Right-handed","0","3","no","left","d","612.354902045","583.396246263","14","red","0"
"100","85","19","737.637689517","1","1","8","483","1","left","in","Female","Right-handed","0","3","no","left","s","1106.98202027","510.955829672","14","red","2"
"100","80","19","735.304897331","1","0","8","484","1","left","in","Female","Right-handed","0","3","no","left","d","590.687624957","814.603988498","14","red","0"
"100","81","19","725.234979391","1","1","8","485","1","left","out","Female","Right-handed","0","3","no","left","s","541.175523545","607.196897051","14","red","2"
"100","76","19","729.550181955","1","0","8","486","3","left","in","Female","Right-handed","0","3","no","left","d","822.592594255","774.594251693","14","red","3"
"100","72","19","737.592914611","1","0","8","487","0","left","in","Female","Right-handed","0","3","no","left","s","973.431928638","775.206810889","14","green","2"
"100","73","19","749.444924143","1","1","8","488","1","right","in","Female","Right-handed","0","3","no","right","d","790.921038875","1134.64115256","14","green","0"
"100","75","19","750.496469607","1","1","8","489","2","right","in","Female","Right-handed","0","3","no","right","d","718.431874116","822.519792717","14","green","0"
"100","71","19","750.692294213","1","0","8","490","1","right","out","Female","Right-handed","0","3","no","right","d","774.110297858","735.10727483","14","red","3"
"100","72","19","781.143124675","1","1","8","491","2","left","out","Female","Right-handed","0","3","no","left","s","898.576874255","1942.64425448","14","red","0"
"100","73","19","779.470999568","1","1","8","492","3","right","out","Female","Right-handed","0","3","no","right","d","622.319091386","863.04940306","14","red","1"
"100","70","19","775.884735121","1","0","8","493","0","right","out","Female","Right-handed","0","3","no","right","s","507.946592535","878.854713146","14","red","0"
"100","72","19","778.563417195","1","1","8","494","3","left","out","Female","Right-handed","0","3","no","left","s","782.387223362","903.316350584","14","red","0"
"100","73","19","774.482631714","1","1","8","495","3","right","in","Female","Right-handed","0","3","no","right","s","642.005974216","702.920015163","14","green","0"
"100","74","19","772.171067531","1","1","8","496","2","right","in","Female","Right-handed","0","3","no","right","s","777.515613846","646.625183688","14","red","0"
"100","75","19","768.103380658","1","1","8","497","2","right","in","Female","Right-handed","0","3","no","right","d","685.278310338","631.273359832","14","red","0"
"100","75","19","766.607575735","1","1","8","498","3","right","out","Female","Right-handed","0","3","no","right","s","770.70113333","678.748942453","14","red","1"
"100","76","19","772.249374024","1","1","8","499","0","left","out","Female","Right-handed","0","3","no","left","d","849.237636406","1022.48541243","14","green","3"
"100","77","19","763.853288462","1","1","8","500","0","left","in","Female","Right-handed","0","3","no","left","d","488.948598266","534.992844924","14","red","0"
"100","75","19","785.217829137","1","0","8","501","1","left","in","Female","Right-handed","0","3","no","left","d","1944.58423908","950.452941021","14","red","0"
"100","75","19","791.000813461","1","1","8","502","3","left","in","Female","Right-handed","0","3","no","left","d","1065.07976419","887.032859471","14","green","2"
"100","76","19","792.43504769","1","1","8","503","1","right","in","Female","Right-handed","0","3","no","right","s","904.831071568","774.69848297","14","green","1"
"100","77","19","792.101230149","1","1","8","504","0","left","out","Female","Right-handed","0","3","no","left","d","850.253971533","711.24889595","14","red","3"
"100","77","19","789.206946621","1","1","8","505","3","right","in","Female","Right-handed","0","3","no","right","s","544.893533363","830.920512908","14","red","3"
"100","78","19","794.927507125","1","1","8","506","2","right","in","Female","Right-handed","0","3","no","right","d","1291.47202144","710.263349141","14","red","1"
"100","78","19","788.98802554","1","1","8","507","2","right","out","Female","Right-handed","0","3","no","right","d","531.219672708","607.234741022","14","red","1"
"100","79","19","786.798348556","1","1","8","508","2","left","out","Female","Right-handed","0","3","no","left","d","808.440873285","598.74037304","14","green","3"
"100","80","19","781.661052075","1","1","8","509","3","left","in","Female","Right-handed","0","3","no","left","d","564.283116522","598.329862164","14","green","0"
"100","80","19","775.99497143","1","1","8","510","0","right","out","Female","Right-handed","0","3","no","right","s","619.7610955","478.942395704","14","green","1"
"100","80","19","773.138774545","1","1","8","511","1","left","in","Female","Right-handed","0","3","no","left","s","817.452228401","494.61717616","14","green","2"
"100","79","19","767.937934217","1","0","8","512","0","left","in","Female","Right-handed","0","3","no","left","s","475.874147628","623.131133209","14","green","1"
"100","77","19","765.001202231","1","0","8","513","2","left","out","Female","Right-handed","0","3","no","left","s","750.707970902","526.735482828","14","green","0"
"100","77","19","760.552321001","1","1","8","514","2","left","out","Female","Right-handed","0","3","no","left","s","491.333730589","638.269363124","14","green","1"
"100","78","19","756.494521869","1","1","8","515","0","right","out","Female","Right-handed","0","3","no","right","s","700.861046559","446.92607533","14","red","2"
"100","76","19","757.11195419","1","0","8","516","0","left","out","Female","Right-handed","0","3","no","left","s","1044.43331219","526.594369715","14","green","0"
"100","77","19","755.870472541","1","1","8","517","1","right","out","Female","Right-handed","0","3","no","right","s","717.093865236","677.947804824","14","green","0"
"100","77","19","763.292678532","1","1","8","518","0","right","in","Female","Right-handed","0","3","no","right","d","1072.60365881","1166.51347342","14","red","2"
"100","76","19","761.311883713","1","0","8","519","1","left","out","Female","Right-handed","0","3","no","left","d","666.220022283","662.285852834","14","green","3"
"100","76","19","767.862043142","1","1","8","520","0","right","in","Female","Right-handed","0","3","no","right","d","655.932234918","1534.80779432","14","green","0"
"100","76","19","771.728033437","1","1","8","521","0","left","in","Female","Right-handed","0","3","no","left","s","587.357676201","1350.42940079","14","red","0"
"100","75","19","771.297203108","1","0","8","522","3","right","out","Female","Right-handed","0","3","no","right","d","818.861114549","678.926937403","14","red","2"
"100","75","19","775.050015571","1","1","8","523","2","right","in","Female","Right-handed","0","3","no","right","s","1021.41423562","926.483916632","14","green","2"
"100","76","19","771.968381566","1","1","8","524","2","left","out","Female","Right-handed","0","3","no","left","s","516.044240244","695.076050347","14","red","3"
"100","75","19","770.30377736","1","0","8","525","1","left","out","Female","Right-handed","0","3","no","left","d","630.731677906","726.769414118","14","red","1"
"100","73","19","766.268237618","1","0","8","526","1","right","in","Female","Right-handed","0","3","no","right","s","602.32047686","478.235547291","14","green","0"
"100","74","19","763.486938312","1","1","8","527","0","left","out","Female","Right-handed","0","3","no","left","d","402.889483416","807.016272266","14","green","1"
"100","74","19","767.572145737","1","1","8","528","3","left","in","Female","Right-handed","0","3","no","left","s","922.437498115","1086.59085472","14","green","2"
"100","75","19","763.83066993","1","1","8","529","2","left","in","Female","Right-handed","0","3","no","left","s","544.042364723","542.124829943","14","green","2"
"100","75","19","764.516088803","1","1","8","530","3","left","in","Female","Right-handed","0","3","no","left","s","980.606247591","630.676194795","14","green","1"
"100","75","19","767.827445996","1","1","8","531","0","right","in","Female","Right-handed","0","3","no","right","s","1245.40147643","694.238993017","14","red","2"
"100","74","19","765.64648402","1","0","8","532","0","left","out","Female","Right-handed","0","3","no","left","s","694.808256144","566.045426877","14","green","0"
"100","73","19","763.956147016","1","0","8","533","2","right","out","Female","Right-handed","0","3","no","right","s","820.537474191","494.392357314","14","green","1"
dis_reply=Yes
dis_loc=1
tar_loc=0
