"acc_1","acc_2","age","avg_rt","correct_1","correct_2","count_block_loop","count_trial_sequence","cue_position","detection","dis_shape","gender","hand","high_loc","low_loc","practice","response_keyboard_response_1","response_keyboard_response_2","response_time_keyboard_response_1","response_time_keyboard_response_2","subject_nr","tar_color","tar_position"
"100","100","20","2086.76336029","1","1","0","0","1","left","in","Female","Right-handed","3","2","yes","left","d","1446.50735866","2727.01936192","23","green","3"
"100","100","20","1601.08122861","1","1","0","1","0","left","in","Female","Right-handed","3","2","yes","left","s","1349.00852366","881.789670199","23","red","1"
"100","100","20","1713.38328159","1","1","0","2","2","left","in","Female","Right-handed","3","2","yes","left","d","2194.53872593","1681.43604914","23","green","1"
"100","75","20","1678.01072601","1","0","0","3","1","right","in","Female","Right-handed","3","2","yes","right","s","1222.05292001","1921.73319859","23","red","0"
"100","80","20","1535.01704764","1","1","0","4","2","right","in","Female","Right-handed","3","2","yes","right","s","1100.44557023","825.639098061","23","green","0"
"100","66","20","1424.28045577","1","0","0","5","2","left","out","Female","Right-handed","3","2","yes","left","s","835.032217488","906.162775369","23","red","3"
"100","71","20","1451.25594303","1","1","0","6","3","right","in","Female","Right-handed","3","2","yes","right","d","2064.66685503","1161.55087817","23","red","3"
"100","75","20","1436.62011666","1","1","0","7","3","left","out","Female","Right-handed","3","2","yes","left","s","1035.19148487","1633.14717929","23","red","2"
"100","77","20","1387.0738344","1","1","0","8","3","left","out","Female","Right-handed","3","2","yes","left","s","1019.70124056","961.705912105","23","red","0"
"100","80","20","1360.48659938","1","1","0","9","0","left","in","Female","Right-handed","3","2","yes","left","s","1361.22361994","881.179348351","23","green","2"
"100","81","20","1344.92094462","1","1","0","10","1","left","in","Female","Right-handed","3","2","yes","left","d","1200.78402143","1177.74477258","23","green","0"
"100","83","20","1387.53645334","1","1","0","11","0","left","in","Female","Right-handed","3","2","yes","left","d","903.475819803","2809.13827879","23","red","3"
"100","84","20","1396.70879398","1","1","0","12","2","right","out","Female","Right-handed","3","2","yes","right","d","819.769360562","2193.78440276","23","red","3"
"100","85","20","1360.32037018","1","1","0","13","3","right","out","Female","Right-handed","3","2","yes","right","s","757.264449603","1017.27727181","23","green","3"
"100","86","20","1364.01675376","1","1","0","14","1","left","out","Female","Right-handed","3","2","yes","left","d","1181.8197854","1649.7124624","23","red","1"
"100","81","20","1384.50728417","1","0","0","15","0","right","in","Female","Right-handed","3","2","yes","right","d","814.378451501","2569.35202935","23","red","3"
"100","82","20","1372.20238575","1","1","0","16","3","right","out","Female","Right-handed","3","2","yes","right","s","1028.95196225","1321.69605972","23","red","2"
"100","83","20","1384.79379571","1","1","0","17","2","right","out","Female","Right-handed","3","2","yes","right","d","1012.36134261","2185.33418729","23","green","2"
"100","78","20","1382.66704689","1","0","0","18","0","right","out","Female","Right-handed","3","2","yes","right","d","1270.91811585","1417.85302052","23","red","1"
"100","75","20","1373.97513716","1","0","0","19","2","right","in","Female","Right-handed","3","2","yes","right","s","1152.41016194","1265.24754276","23","green","1"
"100","76","20","1366.75643039","1","1","0","20","0","right","out","Female","Right-handed","3","2","yes","right","d","963.853423975","1480.91116594","23","green","0"
"100","77","20","1381.28284474","1","1","0","21","3","left","out","Female","Right-handed","3","2","yes","left","d","2099.38688792","1273.28820437","23","red","1"
"100","100","20","1122.00231108","1","1","1","22","0","left","in","Female","Right-handed","3","2","no","left","d","1154.44542334","1089.55919881","23","green","2"
"100","100","20","1074.99911001","1","1","1","23","1","right","out","Female","Right-handed","3","2","no","right","s","966.106130574","1089.88568733","23","red","0"
"100","100","20","1120.03295674","1","1","1","24","3","right","in","Female","Right-handed","3","2","no","right","d","898.654822428","1521.54647795","23","green","3"
"100","100","20","1096.7997551","1","1","1","25","3","right","in","Female","Right-handed","3","2","no","right","s","829.008857203","1225.19144318","23","green","0"
"100","100","20","1167.86124687","1","1","1","26","0","right","out","Female","Right-handed","3","2","no","right","s","1654.5276869","1249.68674101","23","red","0"
"100","100","20","1193.91212777","1","1","1","27","3","left","in","Female","Right-handed","3","2","no","left","d","1271.25711227","1377.07595219","23","red","1"
"100","100","20","1179.16639043","1","1","1","28","2","left","in","Female","Right-handed","3","2","no","left","s","1059.6662569","1121.71767595","23","red","0"
"100","87","20","1162.74500269","1","0","1","29","2","left","out","Female","Right-handed","3","2","no","left","d","838.282349701","1257.30822728","23","red","3"
"100","88","20","1160.97321586","1","1","1","30","1","right","in","Female","Right-handed","3","2","no","right","d","1355.78524497","937.81259752","23","red","1"
"100","80","20","1151.81895474","1","0","1","31","2","left","in","Female","Right-handed","3","2","no","left","d","985.481844767","1153.37936458","23","green","3"
"100","81","20","1177.18322866","1","1","1","32","1","left","out","Female","Right-handed","3","2","no","left","d","907.912920575","1953.73901509","23","red","0"
"100","75","20","1242.94110239","1","0","1","33","0","left","in","Female","Right-handed","3","2","no","left","None","932.464664355","3000.09076252","23","red","1"
"100","69","20","1204.93289753","1","0","1","34","2","right","in","Female","Right-handed","3","2","no","right","d","680.923224849","816.745653581","23","red","3"
"100","71","20","1176.39879779","1","1","1","35","1","left","out","Female","Right-handed","3","2","no","left","d","657.486930038","953.424072337","23","green","3"
"100","73","20","1166.04152776","1","1","1","36","1","left","in","Female","Right-handed","3","2","no","left","s","976.995709145","1065.08378536","23","red","1"
"100","75","20","1139.76201938","1","1","1","37","3","right","out","Female","Right-handed","3","2","no","right","d","665.57730257","825.561484875","23","red","3"
"100","70","20","1128.61078873","1","0","1","38","0","left","out","Female","Right-handed","3","2","no","left","d","955.149843154","945.232353664","23","green","0"
"100","72","20","1128.89695774","1","1","1","39","0","right","out","Female","Right-handed","3","2","no","right","s","1065.7268202","1201.7968414","23","green","1"
"100","73","20","1115.78691809","1","1","1","40","0","right","in","Female","Right-handed","3","2","no","right","d","758.357127757","1001.25528098","23","red","3"
"100","75","20","1129.73930309","1","1","1","41","3","left","in","Female","Right-handed","3","2","no","left","d","2004.82260096","784.846635386","23","red","2"
"100","76","20","1126.8674374","1","1","1","42","3","right","out","Female","Right-handed","3","2","no","right","d","1305.51435251","833.345894698","23","green","1"
"100","77","20","1116.59366061","1","1","1","43","2","left","in","Female","Right-handed","3","2","no","left","d","872.781409525","928.907286561","23","green","1"
"100","78","20","1136.0229527","1","1","1","44","1","right","out","Female","Right-handed","3","2","no","right","d","757.470990469","2369.46376667","23","red","3"
"100","79","20","1146.79287441","1","1","1","45","3","left","in","Female","Right-handed","3","2","no","left","s","1979.99985247","809.002295362","23","red","0"
"100","80","20","1144.84413381","1","1","1","46","2","right","in","Female","Right-handed","3","2","no","right","s","1010.60446238","1185.54425603","23","green","1"
"100","76","20","1141.21714321","1","0","1","47","0","left","out","Female","Right-handed","3","2","no","left","s","996.024409025","1105.06034746","23","green","0"
"100","77","20","1130.18008456","1","1","1","48","2","right","out","Female","Right-handed","3","2","no","right","s","828.737852495","857.69526691","23","red","1"
"100","78","20","1129.48435478","1","1","1","49","1","right","out","Female","Right-handed","3","2","no","right","d","1148.23604799","1073.16325356","23","red","2"
"100","75","20","1135.0271535","1","0","1","50","1","right","in","Female","Right-handed","3","2","no","right","d","891.821334455","1688.62970077","23","green","0"
"100","76","20","1123.72035265","1","1","1","51","0","left","in","Female","Right-handed","3","2","no","left","s","758.340129833","833.306125958","23","green","3"
"100","77","20","1109.78903046","1","1","1","52","0","right","out","Female","Right-handed","3","2","no","right","d","558.868797478","824.829932517","23","green","3"
"100","78","20","1115.8565176","1","1","1","53","3","right","out","Female","Right-handed","3","2","no","right","d","1142.36502763","1465.53220995","23","green","1"
"100","75","20","1114.57128615","1","0","1","54","1","left","in","Female","Right-handed","3","2","no","left","d","1225.99034582","920.897413653","23","red","1"
"100","73","20","1117.43868799","1","0","1","55","3","right","in","Female","Right-handed","3","2","no","right","d","854.654562001","1569.47133556","23","green","3"
"100","71","20","1126.08645513","1","0","1","56","3","left","in","Female","Right-handed","3","2","no","left","d","1799.13676181","1041.08431389","23","green","0"
"100","72","20","1113.18386061","1","1","1","57","3","left","in","Female","Right-handed","3","2","no","left","d","706.60837767","616.577726876","23","green","3"
"100","70","20","1104.64347781","1","0","1","58","3","right","in","Female","Right-handed","3","2","no","right","s","561.11412762","1033.26526679","23","green","3"
"100","68","20","1093.62017189","1","0","1","59","0","left","in","Female","Right-handed","3","2","no","left","d","634.660315642","736.855389641","23","green","3"
"100","69","20","1090.49701655","1","1","1","60","0","left","in","Female","Right-handed","3","2","no","left","s","918.364722307","1025.26950536","23","green","1"
"100","70","20","1087.40645928","1","1","1","61","0","left","out","Female","Right-handed","3","2","no","left","s","1052.87670697","880.872744205","23","green","0"
"100","70","20","1085.04365961","1","1","1","62","2","left","out","Female","Right-handed","3","2","no","left","d","731.583786797","1249.47955871","23","green","0"
"100","71","20","1082.29340144","1","1","1","63","0","left","out","Female","Right-handed","3","2","no","left","s","818.046155469","1121.01947802","23","green","1"
"100","72","20","1080.55518949","1","1","1","64","3","left","in","Female","Right-handed","3","2","no","left","d","1134.5559227","880.544652115","23","red","2"
"100","72","20","1083.50051972","1","1","1","65","1","right","in","Female","Right-handed","3","2","no","right","s","771.228728936","1649.07071042","23","red","3"
"100","73","20","1078.63884936","1","1","1","66","2","right","in","Female","Right-handed","3","2","no","right","d","776.703344774","952.747362353","23","green","3"
"100","71","20","1077.01261504","1","0","1","67","1","left","out","Female","Right-handed","3","2","no","left","d","830.350089975","1177.31405148","23","red","1"
"100","70","20","1077.61516866","1","0","1","68","2","left","out","Female","Right-handed","3","2","no","left","s","913.819540372","1296.84572968","23","red","2"
"100","70","20","1074.49491497","1","1","1","69","1","left","out","Female","Right-handed","3","2","no","left","s","630.354708283","1225.3312752","23","red","3"
"100","69","20","1066.48340146","1","0","1","70","1","left","out","Female","Right-handed","3","2","no","left","d","578.873114315","784.988391697","23","red","3"
"100","70","20","1058.53665796","1","1","1","71","0","left","out","Female","Right-handed","3","2","no","left","d","489.662854106","848.629598142","23","green","3"
"100","68","20","1066.4702862","1","0","1","72","3","right","out","Female","Right-handed","3","2","no","right","d","1973.19971892","953.103677421","23","red","1"
"100","69","20","1060.85909393","1","1","1","73","2","right","in","Female","Right-handed","3","2","no","right","d","860.725388204","688.651188717","23","red","0"
"100","67","20","1065.477252","1","0","1","74","2","left","out","Female","Right-handed","3","2","no","left","s","1114.14686274","1497.09608031","23","green","0"
"100","68","20","1063.78787148","1","1","1","75","2","right","in","Female","Right-handed","3","2","no","right","d","1251.7239267","696.7774814","23","green","1"
"100","69","20","1066.66050212","1","1","1","76","1","right","out","Female","Right-handed","3","2","no","right","s","738.275197746","1705.28991571","23","green","0"
"100","69","20","1062.26364976","1","1","1","77","2","left","out","Female","Right-handed","3","2","no","left","d","727.940136505","912.933403077","23","red","3"
"100","70","20","1060.57130516","1","1","1","78","0","right","out","Female","Right-handed","3","2","no","right","d","827.351398817","1104.24861619","23","green","2"
"100","70","20","1055.70165043","1","1","1","79","3","right","out","Female","Right-handed","3","2","no","right","s","675.126610513","881.136051739","23","red","3"
"100","71","20","1050.19207252","1","1","1","80","2","right","in","Female","Right-handed","3","2","no","right","d","812.668075036","648.605031325","23","red","2"
"100","71","20","1048.64241073","1","1","1","81","1","left","out","Female","Right-handed","3","2","no","left","s","825.201641936","1089.22308883","23","red","2"
"100","72","20","1045.09681346","1","1","1","82","0","right","out","Female","Right-handed","3","2","no","right","s","495.981272772","1168.74068121","23","green","3"
"100","72","20","1045.02901013","1","1","1","83","3","right","in","Female","Right-handed","3","2","no","right","d","1113.34250794","968.443506103","23","red","0"
"100","71","20","1039.63896308","1","0","1","84","2","right","out","Female","Right-handed","3","2","no","right","d","569.912319555","840.999773256","23","green","3"
"100","71","20","1035.27044606","1","1","1","85","1","right","in","Female","Right-handed","3","2","no","right","d","591.514762382","928.592985245","23","red","3"
"100","100","20","502.948659519","1","1","2","86","3","right","out","Female","Right-handed","3","2","no","right","s","565.003446089","440.89387295","23","red","3"
"100","100","20","709.433000419","1","1","2","87","3","left","out","Female","Right-handed","3","2","no","left","d","990.469614277","841.365068362","23","green","1"
"100","100","20","680.601760878","1","1","2","88","2","left","out","Female","Right-handed","3","2","no","left","d","596.88803208","648.990531514","23","red","3"
"100","75","20","670.738940041","1","0","2","89","3","right","out","Female","Right-handed","3","2","no","right","d","632.58977552","649.71117954","23","green","3"
"100","80","20","701.246653733","1","1","2","90","1","left","in","Female","Right-handed","3","2","no","left","d","893.328056492","753.226960511","23","red","1"
"100","83","20","724.506902388","1","1","2","91","2","left","out","Female","Right-handed","3","2","no","left","d","912.768875958","768.847415369","23","green","0"
"100","85","20","731.835502753","1","1","2","92","1","left","out","Female","Right-handed","3","2","no","left","d","910.402315309","641.21189457","23","red","1"
"100","87","20","766.78773949","1","1","2","93","3","right","out","Female","Right-handed","3","2","no","right","s","789.898868738","1233.00792456","23","green","3"
"100","77","20","811.035097942","1","0","2","94","3","right","in","Female","Right-handed","3","2","no","right","d","1264.51727326","1065.51065786","23","green","1"
"100","70","20","837.449066349","1","0","2","95","0","right","out","Female","Right-handed","3","2","no","right","d","1005.13080868","1145.21875532","23","green","1"
"100","72","20","825.877185681","1","1","2","96","0","left","in","Female","Right-handed","3","2","no","left","d","755.620781987","664.695976014","23","red","1"
"100","75","20","800.576200377","1","1","2","97","1","right","out","Female","Right-handed","3","2","no","right","s","587.330064813","457.200659264","23","red","3"
"100","76","20","795.597701811","1","1","2","98","1","left","out","Female","Right-handed","3","2","no","left","d","622.950667202","848.760770834","23","red","3"
"100","71","20","794.122705068","1","0","2","99","1","right","out","Female","Right-handed","3","2","no","right","d","748.464012657","801.431482152","23","red","0"
"100","66","20","813.949237771","1","0","2","100","3","left","in","Female","Right-handed","3","2","no","left","d","742.009610567","1441.03178067","23","green","0"
"100","68","20","814.214355344","1","1","2","101","3","right","out","Female","Right-handed","3","2","no","right","d","803.645702876","832.736534994","23","red","0"
"100","70","20","816.805334987","1","1","2","102","3","left","out","Female","Right-handed","3","2","no","left","d","651.220467302","1065.30155127","23","red","1"
"100","66","20","803.501380841","1","0","2","103","3","right","out","Female","Right-handed","3","2","no","right","d","481.894800782","672.77351992","23","green","3"
"100","63","20","800.153607596","1","0","2","104","0","left","out","Female","Right-handed","3","2","no","left","d","638.398577048","841.388801313","23","green","3"
"100","65","20","814.064302522","1","1","2","105","0","right","in","Female","Right-handed","3","2","no","right","d","987.821786021","1168.91322621","23","green","0"
"100","66","20","802.655951527","1","1","2","106","0","left","in","Female","Right-handed","3","2","no","left","s","588.520240526","560.45762272","23","green","3"
"100","68","20","835.719809937","1","1","2","107","2","right","out","Female","Right-handed","3","2","no","right","d","1131.14158408","1928.98008901","23","red","2"
"100","69","20","840.96042284","1","1","2","108","1","right","in","Female","Right-handed","3","2","no","right","d","839.810880407","1072.69693303","23","red","1"
"100","66","20","834.68234346","1","0","2","109","2","right","in","Female","Right-handed","3","2","no","right","s","675.305249122","705.267786325","23","green","0"
"100","68","20","834.303885117","1","1","2","110","0","left","in","Female","Right-handed","3","2","no","left","s","929.78700954","720.654760204","23","red","0"
"100","69","20","841.714463369","1","1","2","111","1","right","out","Female","Right-handed","3","2","no","right","s","1381.52299515","672.434844211","23","green","2"
"100","70","20","836.913042434","1","1","2","112","0","left","in","Female","Right-handed","3","2","no","left","s","775.070260777","649.081935466","23","red","2"
"100","71","20","832.153267801","1","1","2","113","1","left","in","Female","Right-handed","3","2","no","left","s","678.615355158","728.663350255","23","red","3"
"100","72","20","826.535420835","1","1","2","114","2","right","in","Female","Right-handed","3","2","no","right","s","649.293928498","689.177483069","23","green","3"
"100","70","20","823.742866883","1","0","2","115","1","left","in","Female","Right-handed","3","2","no","left","d","764.808001983","720.709602581","23","green","0"
"100","70","20","825.796590124","1","1","2","116","3","right","in","Female","Right-handed","3","2","no","right","s","814.407957339","960.408617375","23","red","2"
"100","71","20","818.068184624","1","1","2","117","2","left","in","Female","Right-handed","3","2","no","left","s","644.01398705","512.961241195","23","green","1"
"100","72","20","816.141838373","1","1","2","118","3","right","out","Female","Right-handed","3","2","no","right","s","500.542169775","1008.45534692","23","green","0"
"100","73","20","817.097733316","1","1","2","119","2","left","in","Female","Right-handed","3","2","no","left","s","1000.01796008","697.266572741","23","green","1"
"100","71","20","815.100249521","1","0","2","120","1","left","out","Female","Right-handed","3","2","no","left","s","645.620772364","848.750828649","23","red","3"
"100","69","20","806.815847721","1","0","2","121","2","right","in","Female","Right-handed","3","2","no","right","d","497.348162797","536.375406628","23","red","3"
"100","70","20","806.79289404","1","1","2","122","3","left","out","Female","Right-handed","3","2","no","left","d","579.040527871","1032.89259522","23","green","1"
"100","71","20","799.381079597","1","1","2","123","0","left","out","Female","Right-handed","3","2","no","left","s","609.717619507","440.570270879","23","green","3"
"100","71","20","791.272510238","1","1","2","124","2","left","in","Female","Right-handed","3","2","no","left","d","509.11137075","457.182378472","23","green","3"
"100","70","20","792.734804734","1","0","2","125","0","right","out","Female","Right-handed","3","2","no","right","d","770.851567355","928.67701274","23","red","2"
"100","70","20","789.314305833","1","1","2","126","1","left","in","Female","Right-handed","3","2","no","left","s","688.493075912","616.495623675","23","green","1"
"100","71","20","786.472342927","1","1","2","127","0","right","in","Female","Right-handed","3","2","no","right","d","578.969970433","760.933757148","23","green","3"
"100","72","20","785.836375016","1","1","2","128","0","left","in","Female","Right-handed","3","2","no","left","d","709.540359978","808.711085567","23","red","1"
"100","70","20","784.811407692","1","0","2","129","2","right","out","Female","Right-handed","3","2","no","right","d","577.264083986","904.211541467","23","red","3"
"100","71","20","784.155079834","1","1","2","130","3","right","in","Female","Right-handed","3","2","no","right","d","741.796976101","768.756332131","23","red","3"
"100","69","20","778.378745807","1","0","2","131","3","right","in","Female","Right-handed","3","2","no","right","s","428.42637347","608.461055661","23","green","0"
"100","70","20","786.487887399","1","1","2","132","1","right","out","Female","Right-handed","3","2","no","right","d","557.999978832","1761.0168225","23","green","3"
"100","70","20","785.613088955","1","1","2","133","2","right","in","Female","Right-handed","3","2","no","right","d","672.573393364","816.421730793","23","red","2"
"100","71","20","782.89916171","1","1","2","134","1","left","out","Female","Right-handed","3","2","no","left","d","728.163033866","577.098274007","23","red","0"
"100","70","20","779.687472238","1","0","2","135","0","right","in","Female","Right-handed","3","2","no","right","d","499.807730979","744.821645228","23","red","0"
"100","68","20","784.257367578","1","0","2","136","0","left","in","Female","Right-handed","3","2","no","left","d","609.304217058","1416.20005215","23","red","0"
"100","69","20","783.164568245","1","1","2","137","1","left","out","Female","Right-handed","3","2","no","left","d","637.973308119","816.89029633","23","red","0"
"100","69","20","787.018252368","1","1","2","138","0","right","in","Female","Right-handed","3","2","no","right","d","1134.40358278","840.416070801","23","red","1"
"100","70","20","786.342470914","1","1","2","139","0","left","out","Female","Right-handed","3","2","no","left","d","749.031037896","752.021069737","23","green","3"
"100","69","20","787.902008662","1","0","2","140","3","right","in","Female","Right-handed","3","2","no","right","s","887.619318241","856.614775948","23","green","2"
"100","69","20","789.70398245","1","1","2","141","2","left","in","Female","Right-handed","3","2","no","left","s","1025.23390593","752.391175574","23","green","1"
"100","70","20","792.725315912","1","1","2","142","2","left","out","Female","Right-handed","3","2","no","left","d","1090.87926435","832.960715219","23","green","0"
"100","70","20","791.331784712","1","1","2","143","0","right","in","Female","Right-handed","3","2","no","right","d","623.355731044","800.445281584","23","red","3"
"100","71","20","790.123652347","1","1","2","144","1","left","out","Female","Right-handed","3","2","no","left","s","592.054847504","848.049102846","23","green","3"
"100","70","20","794.548074792","1","0","2","145","2","right","in","Female","Right-handed","3","2","no","right","s","822.643614054","1288.53438408","23","green","1"
"100","70","20","797.376924154","1","1","2","146","1","left","out","Female","Right-handed","3","2","no","left","d","1278.08290306","656.132868637","23","red","2"
"100","70","20","796.488889577","1","1","2","147","3","right","out","Female","Right-handed","3","2","no","right","d","659.81917411","824.818386758","23","red","3"
"100","71","20","792.787587527","1","1","2","148","2","right","out","Female","Right-handed","3","2","no","right","s","502.393340405","624.220380385","23","green","3"
"100","71","20","788.354239616","1","1","2","149","2","left","in","Female","Right-handed","3","2","no","left","s","586.074142397","432.032500041","23","red","0"
"100","100","20","836.975273145","1","1","3","150","1","right","out","Female","Right-handed","3","2","no","right","d","1169.0360603","504.914485988","23","red","2"
"100","100","20","766.782808487","1","1","3","151","1","left","in","Female","Right-handed","3","2","no","left","d","744.580467072","648.600220585","23","red","0"
"100","100","20","743.914554513","1","1","3","152","2","right","out","Female","Right-handed","3","2","no","right","d","827.146140815","569.209952319","23","green","1"
"100","75","20","793.266382876","1","0","3","153","3","right","out","Female","Right-handed","3","2","no","right","s","761.834326644","1120.80940928","23","green","3"
"100","80","20","746.183083084","1","1","3","154","2","left","in","Female","Right-handed","3","2","no","left","s","610.374124404","505.325643429","23","green","3"
"100","83","20","746.415869181","1","1","3","155","0","left","out","Female","Right-handed","3","2","no","left","d","598.080452801","897.079146525","23","red","3"
"100","85","20","729.443697202","1","1","3","156","1","right","out","Female","Right-handed","3","2","no","right","s","606.59449068","648.626839986","23","red","0"
"100","75","20","737.610554687","1","0","3","157","0","right","out","Female","Right-handed","3","2","no","right","d","516.281610133","1073.27550403","23","red","3"
"100","77","20","718.136340705","1","1","3","158","1","right","in","Female","Right-handed","3","2","no","right","d","563.873564919","560.811692776","23","red","3"
"100","70","20","703.964029176","1","0","3","159","1","left","out","Female","Right-handed","3","2","no","left","s","568.421954009","584.404496818","23","green","3"
"100","72","20","688.113202822","1","1","3","160","3","right","in","Female","Right-handed","3","2","no","right","s","426.111448043","633.098430513","23","green","3"
"100","75","20","687.988817394","1","1","3","161","3","left","out","Female","Right-handed","3","2","no","left","d","724.650876982","648.590278404","23","green","1"
"100","76","20","683.733902635","1","1","3","162","2","left","out","Female","Right-handed","3","2","no","left","d","608.17112873","657.178722315","23","green","0"
"100","78","20","689.489894457","1","1","3","163","0","right","in","Female","Right-handed","3","2","no","right","s","807.864075585","720.771500695","23","red","1"
"100","80","20","694.218983137","1","1","3","164","0","right","in","Female","Right-handed","3","2","no","right","d","544.417671816","976.434777505","23","green","3"
"100","81","20","695.706110787","1","1","3","165","0","left","out","Female","Right-handed","3","2","no","left","s","763.035085969","672.990965122","23","red","1"
"100","82","20","711.821506507","1","1","3","166","1","left","out","Female","Right-handed","3","2","no","left","s","762.599874855","1176.7358012","23","red","1"
"100","83","20","708.626641142","1","1","3","167","1","right","out","Female","Right-handed","3","2","no","right","d","828.261589781","480.36627008","23","red","1"
"100","84","20","723.73902336","1","1","3","168","0","right","in","Female","Right-handed","3","2","no","right","s","814.813341898","1176.71046466","23","red","1"
"100","80","20","722.523995142","1","0","3","169","2","right","out","Female","Right-handed","3","2","no","right","d","414.412062502","984.464855497","23","green","0"
"100","80","20","720.710740356","1","1","3","170","2","right","out","Female","Right-handed","3","2","no","right","d","512.030845144","856.860444121","23","green","3"
"100","77","20","725.84257609","1","0","3","171","3","left","out","Female","Right-handed","3","2","no","left","d","570.618214657","1096.60403839","23","green","3"
"100","73","20","742.097681866","1","0","3","172","2","right","in","Female","Right-handed","3","2","no","right","d","1318.19737289","881.222644963","23","green","2"
"100","75","20","755.518948093","1","1","3","173","3","right","out","Female","Right-handed","3","2","no","right","d","1263.73921714","864.676925503","23","green","1"
"100","76","20","754.469804142","1","1","3","174","2","right","out","Female","Right-handed","3","2","no","right","d","770.339705203","688.240993422","23","red","1"
"100","76","20","752.774147044","1","1","3","175","3","right","in","Female","Right-handed","3","2","no","right","d","619.934015966","800.831423203","23","red","0"
"100","77","20","755.55888981","1","1","3","176","2","left","out","Female","Right-handed","3","2","no","left","s","767.397780713","888.526622766","23","green","0"
"100","78","20","760.38191436","1","1","3","177","1","right","in","Female","Right-handed","3","2","no","right","d","965.137569365","816.069585027","23","red","3"
"100","79","20","767.163674889","1","1","3","178","3","right","in","Female","Right-handed","3","2","no","right","d","969.574028706","944.531910722","23","red","1"
"100","80","20","765.096239812","1","1","3","179","1","left","in","Female","Right-handed","3","2","no","left","s","706.030127385","704.251117771","23","red","3"
"100","77","20","765.990940901","1","0","3","180","3","right","out","Female","Right-handed","3","2","no","right","d","816.833850378","768.830096727","23","green","2"
"100","78","20","762.739892286","1","1","3","181","3","right","in","Female","Right-handed","3","2","no","right","d","475.422438612","848.49233185","23","green","0"
"100","78","20","765.851673821","1","1","3","182","0","left","out","Female","Right-handed","3","2","no","left","s","969.970433227","760.886932665","23","green","0"
"100","79","20","767.077956481","1","1","3","183","0","left","in","Female","Right-handed","3","2","no","left","d","614.5860828","1000.50448569","23","green","3"
"100","77","20","764.794142486","1","0","3","184","1","right","in","Female","Right-handed","3","2","no","right","s","574.056606951","800.232326405","23","green","3"
"100","75","20","762.901806352","1","0","3","185","1","left","out","Female","Right-handed","3","2","no","left","d","792.695829768","600.644253558","23","red","1"
"100","75","20","778.680049569","1","1","3","186","3","left","in","Female","Right-handed","3","2","no","left","d","1789.21382015","904.179790617","23","red","2"
"100","76","20","773.223858684","1","1","3","187","2","right","out","Female","Right-handed","3","2","no","right","d","509.80155079","632.888041058","23","green","3"
"100","76","20","777.45929619","1","1","3","188","0","left","in","Female","Right-handed","3","2","no","left","d","1076.32230254","800.489540339","23","red","2"
"100","77","20","771.513420185","1","1","3","189","0","left","out","Female","Right-handed","3","2","no","left","s","647.146737341","432.101774619","23","red","3"
"100","78","20","779.710425386","1","1","3","190","0","left","in","Female","Right-handed","3","2","no","left","d","1286.59116807","928.590098803","23","red","0"
"100","76","20","780.867046922","1","0","3","191","2","right","in","Female","Right-handed","3","2","no","right","d","920.227759416","736.349300372","23","red","1"
"100","76","20","775.876204243","1","1","3","192","0","left","in","Female","Right-handed","3","2","no","left","s","683.785291145","448.736332302","23","green","0"
"100","77","20","777.218064209","1","1","3","193","3","left","out","Female","Right-handed","3","2","no","left","s","597.429079353","1072.4070061","23","red","0"
"100","75","20","773.967907697","1","0","3","194","2","right","in","Female","Right-handed","3","2","no","right","d","789.91714953","472.004892839","23","red","3"
"100","76","20","770.863622078","1","1","3","195","0","right","in","Female","Right-handed","3","2","no","right","d","661.761427979","600.580110437","23","green","0"
"100","74","20","769.274966837","1","0","3","196","3","left","in","Female","Right-handed","3","2","no","left","d","568.146138568","824.24751293","23","red","3"
"100","75","20","768.586443045","1","1","3","197","3","left","in","Female","Right-handed","3","2","no","left","s","671.810731594","800.640918118","23","red","3"
"97","75","20","786.160607333","0","1","3","198","3","left","in","Female","Right-handed","3","2","no","right","s","1256.186364","2003.25462224","23","green","0"
"98","76","20","787.286075457","1","1","3","199","2","left","in","Female","Right-handed","3","2","no","left","d","892.949612047","791.918415074","23","green","1"
"98","76","20","785.190697232","1","1","3","200","3","right","in","Female","Right-handed","3","2","no","right","d","616.392994674","744.45057724","23","green","3"
"98","76","20","787.44684971","1","1","3","201","1","left","out","Female","Right-handed","3","2","no","left","d","733.057475129","1071.96377709","23","green","0"
"98","75","20","783.638060888","1","0","3","202","0","left","out","Female","Right-handed","3","2","no","left","d","587.552000034","583.610084199","23","red","3"
"98","75","20","781.574709358","1","1","3","203","1","left","in","Female","Right-handed","3","2","no","left","s","808.257272951","536.176883648","23","red","0"
"98","74","20","783.243704491","1","0","3","204","2","right","out","Female","Right-handed","3","2","no","right","d","610.79971405","1135.93916922","23","red","3"
"98","75","20","781.8732779","1","1","3","205","0","right","out","Female","Right-handed","3","2","no","right","d","708.444474662","704.555156193","23","red","1"
"98","75","20","780.260885737","1","1","3","206","1","right","out","Female","Right-handed","3","2","no","right","s","675.966885468","703.966963723","23","green","1"
"98","74","20","787.880320494","1","0","3","207","1","left","in","Female","Right-handed","3","2","no","left","d","1507.64602103","936.73018226","23","green","2"
"98","74","20","786.25593326","1","1","3","208","3","left","in","Female","Right-handed","3","2","no","left","s","688.095388527","695.9875588","23","green","1"
"98","75","20","786.081259613","1","1","3","209","1","left","in","Female","Right-handed","3","2","no","left","d","591.809179332","959.741849572","23","green","3"
"98","75","20","784.004399335","1","1","3","210","2","right","out","Female","Right-handed","3","2","no","right","d","510.283907097","808.501658259","23","red","3"
"98","75","20","785.1476477","1","1","3","211","0","left","out","Female","Right-handed","3","2","no","left","d","725.870237813","983.901358133","23","red","2"
"98","76","20","784.535233236","1","1","3","212","2","right","in","Female","Right-handed","3","2","no","right","s","676.642312592","816.48876036","23","green","2"
"98","76","20","785.138073191","1","1","3","213","2","left","out","Female","Right-handed","3","2","no","left","s","718.264787316","927.969193337","23","green","0"
"100","100","20","764.409192096","1","1","4","214","2","right","out","Female","Right-handed","3","2","no","right","s","679.900141982","848.918242209","23","green","2"
"100","100","20","682.925693075","1","1","4","215","3","left","in","Female","Right-handed","3","2","no","left","d","842.449728629","360.43465948","23","red","0"
"100","66","20","792.660123427","1","0","4","216","0","right","in","Female","Right-handed","3","2","no","right","d","1008.08908967","1016.16887859","23","red","1"
"100","75","20","823.277308054","1","1","4","217","1","left","in","Female","Right-handed","3","2","no","left","s","757.60601175","1072.65171213","23","green","1"
"100","80","20","781.97886035","1","1","4","218","1","right","out","Female","Right-handed","3","2","no","right","s","521.329674182","712.240464883","23","green","3"
"100","83","20","754.129775015","1","1","4","219","0","right","in","Female","Right-handed","3","2","no","right","d","596.857564094","632.911132587","23","red","2"
"100","85","20","728.897426848","1","1","4","220","2","left","in","Female","Right-handed","3","2","no","left","d","586.574138066","568.432537624","23","red","0"
"100","87","20","721.678925487","1","1","4","221","0","left","in","Female","Right-handed","3","2","no","left","s","598.06569988","744.233132042","23","green","3"
"100","88","20","719.857496779","1","1","4","222","0","left","in","Female","Right-handed","3","2","no","left","d","545.825292724","864.746841511","23","red","3"
"100","90","20","732.561087508","1","1","4","223","0","left","out","Female","Right-handed","3","2","no","left","d","765.428586732","928.358221401","23","red","1"
"100","81","20","748.275810895","1","0","4","224","0","left","out","Female","Right-handed","3","2","no","left","d","809.948406477","1000.89768305","23","red","2"
"100","75","20","757.371020734","1","0","4","225","0","right","out","Female","Right-handed","3","2","no","right","d","754.378971062","960.457686862","23","green","0"
"100","69","20","775.957199857","1","0","4","226","3","left","out","Female","Right-handed","3","2","no","left","s","629.891274191","1368.09142448","23","red","3"
"100","64","20","767.003861737","1","0","4","227","2","left","in","Female","Right-handed","3","2","no","left","d","836.592819753","464.628112586","23","green","2"
"100","66","20","767.817426426","1","1","4","228","3","left","in","Female","Right-handed","3","2","no","left","d","582.136716581","976.27794756","23","green","3"
"100","68","20","759.095876174","1","1","4","229","1","left","in","Female","Right-handed","3","2","no","left","d","479.842220735","776.703024061","23","green","3"
"100","70","20","753.698138938","1","1","4","230","2","left","in","Female","Right-handed","3","2","no","left","d","670.275465862","664.393220457","23","red","1"
"100","72","20","768.909072949","1","1","4","231","2","right","in","Female","Right-handed","3","2","no","right","s","630.907942748","1424.08195952","23","red","3"
"100","73","20","767.38762753","1","1","4","232","2","left","out","Female","Right-handed","3","2","no","left","d","871.617211782","608.386008203","23","green","1"
"100","75","20","766.407763627","1","1","4","233","2","left","out","Female","Right-handed","3","2","no","left","d","823.322569046","672.2581299","23","red","0"
"100","76","20","771.04257642","1","1","4","234","2","right","in","Female","Right-handed","3","2","no","right","s","614.805452293","1112.67221226","23","red","3"
"100","77","20","773.668303414","1","1","4","235","3","right","out","Female","Right-handed","3","2","no","right","s","705.224489717","952.392650866","23","red","1"
"100","73","20","775.069730899","1","0","4","236","2","right","in","Female","Right-handed","3","2","no","right","d","771.980165664","839.822105452","23","green","1"
"100","75","20","765.316155857","1","1","4","237","0","left","out","Female","Right-handed","3","2","no","left","s","617.531214451","464.436645354","23","red","0"
"100","76","20","758.268340845","1","1","4","238","3","right","out","Female","Right-handed","3","2","no","right","d","498.166949805","680.074611282","23","green","3"
"100","76","20","748.426371745","1","1","4","239","0","left","out","Female","Right-handed","3","2","no","left","s","491.838909671","512.915378862","23","green","3"
"100","74","20","746.942775268","1","0","4","240","3","right","out","Female","Right-handed","3","2","no","right","d","640.411709072","776.326824624","23","red","0"
"100","75","20","737.403126125","1","1","4","241","3","right","in","Female","Right-handed","3","2","no","right","s","503.893327415","455.771871122","23","green","0"
"100","75","20","751.166976358","1","1","4","242","3","left","in","Female","Right-handed","3","2","no","left","s","1424.61017816","848.499387594","23","red","2"
"100","76","20","746.367018844","1","1","4","243","2","left","out","Female","Right-handed","3","2","no","left","d","550.197608937","664.13889296","23","green","0"
"100","77","20","742.896058226","1","1","4","244","2","right","in","Female","Right-handed","3","2","no","right","s","670.801118784","606.733360553","23","green","3"
"100","75","20","739.239384192","1","0","4","245","0","left","in","Female","Right-handed","3","2","no","left","d","547.361199886","704.403778415","23","green","3"
"100","72","20","735.686871955","1","0","4","246","3","right","out","Female","Right-handed","3","2","no","right","s","811.973725693","432.039235068","23","red","1"
"100","73","20","732.214068478","1","1","4","247","3","right","in","Female","Right-handed","3","2","no","right","d","426.581296444","808.641810992","23","red","3"
"100","74","20","734.628913","1","1","4","248","0","right","in","Female","Right-handed","3","2","no","right","s","497.225970143","1136.24128335","23","red","3"
"100","75","20","733.297352603","1","1","4","249","3","left","out","Female","Right-handed","3","2","no","left","d","781.630819743","591.754657675","23","green","1"
"100","72","20","729.81142987","1","0","4","250","1","right","in","Female","Right-handed","3","2","no","right","s","512.319168502","696.317254467","23","green","3"
"100","73","20","730.382242563","1","1","4","251","1","left","out","Female","Right-handed","3","2","no","left","d","711.041950566","791.962673829","23","red","0"
"100","74","20","738.579672009","1","1","4","252","2","right","out","Female","Right-handed","3","2","no","right","d","579.596328065","1520.56765384","23","red","3"
"100","75","20","736.31993485","1","1","4","253","1","right","out","Female","Right-handed","3","2","no","right","s","744.148463116","552.23190819","23","red","0"
"100","75","20","732.966208063","1","1","4","254","1","left","out","Female","Right-handed","3","2","no","left","s","717.753887315","479.880385898","23","green","0"
"100","76","20","727.642581121","1","1","4","255","1","right","in","Female","Right-handed","3","2","no","right","d","442.358901957","576.388851027","23","green","3"
"100","76","20","721.674292824","1","1","4","256","0","right","in","Female","Right-handed","3","2","no","right","s","638.015963297","303.996405419","23","green","0"
"100","77","20","717.720124705","1","1","4","257","1","left","in","Female","Right-handed","3","2","no","left","d","639.660272347","455.721518767","23","green","0"
"100","77","20","716.487887301","1","1","4","258","3","left","out","Female","Right-handed","3","2","no","left","s","564.282798066","760.256085017","23","red","0"
"100","78","20","713.7241198","1","1","4","259","1","left","in","Female","Right-handed","3","2","no","left","d","690.80575633","487.90340815","23","red","2"
"100","76","20","723.239864674","1","0","4","260","1","right","out","Female","Right-handed","3","2","no","right","s","969.453760343","1352.47449749","23","red","1"
"100","77","20","719.119150374","1","1","4","261","1","right","out","Female","Right-handed","3","2","no","right","d","530.808745403","520.08241109","23","red","3"
"100","75","20","715.402959916","1","0","4","262","3","left","in","Female","Right-handed","3","2","no","left","s","530.509838434","543.541797426","23","red","3"
"100","76","20","716.397471863","1","1","4","263","1","left","in","Female","Right-handed","3","2","no","left","d","778.165487343","752.091627171","23","red","1"
"100","76","20","714.415979632","1","1","4","264","0","left","out","Female","Right-handed","3","2","no","left","d","462.912925384","767.769810846","23","green","3"
"100","76","20","721.081133136","1","1","4","265","0","left","out","Female","Right-handed","3","2","no","left","d","737.479181545","1384.52874205","23","red","1"
"100","77","20","726.608398123","1","1","4","266","2","right","in","Female","Right-handed","3","2","no","right","d","484.100362184","1543.95199272","23","red","3"
"100","77","20","731.006611505","1","1","4","267","1","left","in","Female","Right-handed","3","2","no","left","d","792.627838055","1135.5960035","23","green","1"
"100","78","20","729.370592365","1","1","4","268","0","left","out","Female","Right-handed","3","2","no","left","s","690.072279686","591.9788379","23","green","1"
"100","78","20","726.20697491","1","1","4","269","1","right","out","Female","Right-handed","3","2","no","right","d","408.626993932","695.789035821","23","red","3"
"100","78","20","722.877991913","1","1","4","270","3","right","out","Female","Right-handed","3","2","no","right","s","545.455828317","527.454059891","23","green","3"
"100","79","20","723.820311967","1","1","4","271","2","right","in","Female","Right-handed","3","2","no","right","s","659.021875053","896.043235032","23","red","0"
"100","79","20","726.883715519","1","1","4","272","2","right","out","Female","Right-handed","3","2","no","right","s","1201.62622069","607.496022323","23","green","1"
"100","80","20","726.430592166","1","1","4","273","1","right","out","Female","Right-handed","3","2","no","right","s","464.230425201","935.162203535","23","green","2"
"100","80","20","724.625611424","1","1","4","274","2","left","out","Female","Right-handed","3","2","no","left","s","576.829835023","655.823698769","23","green","3"
"100","80","20","725.839852594","1","1","4","275","3","right","out","Female","Right-handed","3","2","no","right","d","744.351155394","855.465972553","23","green","2"
"100","80","20","725.118928356","1","1","4","276","3","right","in","Female","Right-handed","3","2","no","right","s","840.955193784","519.888057414","23","green","1"
"100","81","20","722.167094769","1","1","4","277","0","right","in","Female","Right-handed","3","2","no","right","s","512.707875845","559.695281663","23","green","0"
"100","100","20","674.694285841","1","1","5","278","0","left","in","Female","Right-handed","3","2","no","left","d","813.129905546","536.258666136","23","red","1"
"100","50","20","826.753825415","1","0","5","279","1","left","in","Female","Right-handed","3","2","no","left","s","1060.85867762","896.768052361","23","red","2"
"100","66","20","791.44172474","1","1","5","280","1","left","in","Female","Right-handed","3","2","no","left","d","569.252928213","872.382118567","23","green","3"
"100","75","20","726.588400292","1","1","5","281","3","left","out","Female","Right-handed","3","2","no","left","d","544.041472378","520.015381521","23","red","0"
"100","80","20","683.19427638","1","1","5","282","3","right","in","Female","Right-handed","3","2","no","right","s","578.659517701","440.576043762","23","red","0"
"100","83","20","647.927973897","1","1","5","283","2","right","out","Female","Right-handed","3","2","no","right","d","511.174213694","432.018709267","23","green","3"
"100","85","20","644.486721892","1","1","5","284","2","right","out","Female","Right-handed","3","2","no","right","d","599.822900829","647.855518891","23","red","3"
"100","87","20","647.040019217","1","1","5","285","1","left","out","Female","Right-handed","3","2","no","left","d","633.412411117","696.413789876","23","red","1"
"100","88","20","620.992110289","1","1","5","286","1","right","in","Female","Right-handed","3","2","no","right","s","457.074618018","368.143059699","23","green","3"
"100","80","20","614.317515531","1","0","5","287","1","left","in","Female","Right-handed","3","2","no","left","d","579.642831828","528.849493607","23","red","0"
"100","81","20","653.81068337","1","1","5","288","3","right","in","Female","Right-handed","3","2","no","right","s","1337.28604659","760.198676922","23","red","1"
"100","75","20","657.984426797","1","0","5","289","2","right","out","Female","Right-handed","3","2","no","right","s","535.886636004","871.904572988","23","green","3"
"100","76","20","649.251149969","1","1","5","290","1","left","in","Female","Right-handed","3","2","no","left","d","568.482569262","520.421086796","23","red","3"
"100","78","20","648.807276891","1","1","5","291","0","right","in","Female","Right-handed","3","2","no","right","s","646.087092893","639.986760856","23","green","1"
"100","80","20","652.661143302","1","1","5","292","2","left","out","Female","Right-handed","3","2","no","left","d","716.683017817","696.547528292","23","green","0"
"100","75","20","656.69808985","1","0","5","293","2","right","out","Female","Right-handed","3","2","no","right","s","530.204517152","904.300058981","23","green","0"
"100","70","20","651.412434473","1","0","5","294","3","right","out","Female","Right-handed","3","2","no","right","s","557.892859811","575.791037092","23","red","3"
"94","72","20","669.468563151","0","1","5","295","2","left","in","Female","Right-handed","3","2","no","right","d","910.499492147","1042.34600919","23","red","1"
"94","73","20","672.316432627","1","1","5","296","0","right","in","Female","Right-handed","3","2","no","right","d","527.070483997","920.085682388","23","green","3"
"95","75","20","665.685239416","1","1","5","297","3","right","in","Female","Right-handed","3","2","no","right","s","647.715045445","431.670091373","23","green","2"
"95","76","20","669.016702824","1","1","5","298","2","left","in","Female","Right-handed","3","2","no","left","s","927.163555672","544.128386318","23","green","1"
"95","77","20","659.376797921","1","1","5","299","0","right","in","Female","Right-handed","3","2","no","right","s","426.02485482","487.852735077","23","green","3"
"95","78","20","658.179173812","1","1","5","300","1","right","out","Female","Right-handed","3","2","no","right","d","559.365906709","704.296980111","23","green","2"
"95","79","20","660.276721732","1","1","5","301","0","right","in","Female","Right-handed","3","2","no","right","s","624.992984343","792.047663475","23","green","1"
"96","80","20","660.814848621","1","1","5","302","0","left","out","Female","Right-handed","3","2","no","left","s","811.654613637","535.805174233","23","red","0"
"96","76","20","655.065218634","1","0","5","303","0","right","in","Female","Right-handed","3","2","no","right","d","430.279789111","592.369148821","23","red","0"
"96","77","20","651.873331484","1","1","5","304","1","right","out","Female","Right-handed","3","2","no","right","d","649.890138859","487.878392327","23","red","1"
"96","78","20","651.326990708","1","1","5","305","2","right","out","Female","Right-handed","3","2","no","right","d","601.656752813","671.494826696","23","green","2"
"96","75","20","654.611316265","1","0","5","306","3","right","out","Female","Right-handed","3","2","no","right","d","573.091573613","920.053290109","23","red","2"
"96","76","20","660.278743577","1","1","5","307","3","left","in","Female","Right-handed","3","2","no","left","d","817.638846616","831.629424633","23","green","3"
"96","77","20","661.522577599","1","1","5","308","0","right","in","Female","Right-handed","3","2","no","right","d","581.311194546","816.364001981","23","red","2"
"96","75","20","656.054353442","1","0","5","309","3","right","out","Female","Right-handed","3","2","no","right","d","396.999769404","576.079039725","23","red","1"
"96","75","20","650.31134539","1","1","5","310","1","right","in","Female","Right-handed","3","2","no","right","s","605.604120814","327.466054656","23","red","1"
"97","76","20","648.190317712","1","1","5","311","0","left","in","Female","Right-handed","3","2","no","left","d","556.177031179","600.215777474","23","green","3"
"97","77","20","645.836284108","1","1","5","312","3","right","in","Female","Right-handed","3","2","no","right","d","515.738317852","615.859965292","23","red","3"
"97","75","20","650.225509415","1","0","5","313","2","left","in","Female","Right-handed","3","2","no","left","d","792.333421104","815.363369209","23","green","0"
"97","75","20","653.405368549","1","1","5","314","1","left","out","Female","Right-handed","3","2","no","left","d","559.864940231","975.895654527","23","green","3"
"97","76","20","649.172440575","1","1","5","315","1","right","out","Female","Right-handed","3","2","no","right","s","609.460726286","375.647484769","23","green","0"
"97","76","20","649.197907062","1","1","5","316","3","left","out","Female","Right-handed","3","2","no","left","d","708.178280689","592.15298649","23","green","1"
"97","77","20","644.28905683","1","1","5","317","3","left","out","Female","Right-handed","3","2","no","left","s","585.804099835","319.883695683","23","red","0"
"97","78","20","640.245382815","1","1","5","318","3","left","out","Female","Right-handed","3","2","no","left","d","477.508693799","479.488150679","23","green","1"
"97","76","20","643.979261947","1","0","5","319","0","left","out","Female","Right-handed","3","2","no","left","d","529.973281183","1064.16333149","23","green","0"
"97","74","20","644.963115129","1","0","5","320","2","left","out","Female","Right-handed","3","2","no","left","d","644.832453341","727.737444224","23","green","1"
"97","75","20","644.36634055","1","1","5","321","0","right","out","Female","Right-handed","3","2","no","right","d","486.208746752","751.201320582","23","green","0"
"97","73","20","644.023262859","1","0","5","322","0","right","in","Female","Right-handed","3","2","no","right","d","561.945101825","695.910587044","23","green","3"
"97","73","20","641.836212869","1","1","5","323","3","right","in","Female","Right-handed","3","2","no","right","s","463.327289981","623.510636695","23","green","3"
"97","74","20","639.641698133","1","1","5","324","0","right","out","Female","Right-handed","3","2","no","right","d","517.110018609","560.278021967","23","red","1"
"97","75","20","636.905211479","1","1","5","325","1","left","out","Female","Right-handed","3","2","no","left","s","536.763151824","479.817525633","23","red","3"
"97","75","20","637.976806539","1","1","5","326","2","right","out","Female","Right-handed","3","2","no","right","d","563.335404084","815.491334742","23","red","3"
"98","74","20","636.188127941","1","0","5","327","2","left","out","Female","Right-handed","3","2","no","left","s","561.041004453","536.044748809","23","green","3"
"98","74","20","634.049267467","1","1","5","328","0","right","in","Female","Right-handed","3","2","no","right","d","470.582519011","583.629968565","23","red","3"
"98","75","20","630.014647946","1","1","5","329","1","right","out","Female","Right-handed","3","2","no","right","s","465.208607879","383.289496851","23","red","3"
"98","73","20","627.68013355","1","0","5","330","3","right","out","Female","Right-handed","3","2","no","right","d","557.837376007","454.733393908","23","green","3"
"98","74","20","627.334974613","1","1","5","331","2","left","out","Female","Right-handed","3","2","no","left","s","738.530166673","479.552935238","23","red","1"
"98","74","20","626.066982276","1","1","5","332","2","left","in","Female","Right-handed","3","2","no","left","s","571.148678315","544.042113808","23","green","3"
"98","73","20","631.480022119","1","0","5","333","0","left","out","Female","Right-handed","3","2","no","left","s","554.677044169","1303.71738282","23","green","2"
"98","71","20","631.264409732","1","0","5","334","2","left","out","Female","Right-handed","3","2","no","left","d","647.212163334","591.168068782","23","red","0"
"98","72","20","631.473569001","1","1","5","335","1","left","in","Female","Right-handed","3","2","no","left","s","662.857313295","623.933981326","23","red","0"
"98","72","20","630.821496294","1","1","5","336","0","left","out","Female","Right-handed","3","2","no","left","s","602.482274848","583.520283821","23","red","3"
"98","73","20","630.9690952","1","1","5","337","3","left","in","Female","Right-handed","3","2","no","left","d","576.196421647","703.158439617","23","red","0"
"98","73","20","627.915234774","1","1","5","338","3","left","in","Female","Right-handed","3","2","no","left","s","529.779889657","359.587328781","23","green","3"
"98","74","20","627.38142349","1","1","5","339","1","left","in","Female","Right-handed","3","2","no","left","d","670.346985451","519.29088491","23","red","1"
"98","74","20","626.626831952","1","1","5","340","2","left","in","Female","Right-handed","3","2","no","left","s","655.861543215","503.822769977","23","green","2"
"98","73","20","629.391017942","1","0","5","341","1","right","in","Female","Right-handed","3","2","no","right","d","823.533279217","783.536191317","23","red","0"
"100","100","20","670.409043925","1","1","6","342","1","left","in","Female","Right-handed","3","2","no","left","d","700.365968609","640.452119242","23","red","1"
"100","100","20","579.991048827","1","1","6","343","0","left","in","Female","Right-handed","3","2","no","left","s","491.150974638","487.995132819","23","red","0"
"100","100","20","571.052730889","1","1","6","344","2","right","out","Female","Right-handed","3","2","no","right","s","498.591577303","607.760612722","23","red","3"
"100","75","20","634.477347374","1","0","6","345","0","right","in","Female","Right-handed","3","2","no","right","d","905.189724141","744.312669518","23","red","1"
"100","80","20","631.643087119","1","1","6","346","2","right","in","Female","Right-handed","3","2","no","right","d","568.772175484","671.839916714","23","green","3"
"100","83","20","617.938844019","1","1","6","347","0","right","in","Female","Right-handed","3","2","no","right","d","547.511936235","551.323320807","23","red","0"
"100","85","20","638.249627547","1","1","6","348","0","left","out","Female","Right-handed","3","2","no","left","d","648.177517385","872.051140036","23","red","2"
"100","87","20","648.235526825","1","1","6","349","1","right","in","Female","Right-handed","3","2","no","right","d","860.600309105","575.67333445","23","red","1"
"100","77","20","649.183156885","1","0","6","350","3","right","in","Female","Right-handed","3","2","no","right","d","505.221731564","808.306663159","23","red","0"
"100","80","20","633.255565138","1","1","6","351","1","left","in","Female","Right-handed","3","2","no","left","s","563.89024213","415.924236702","23","green","3"
"100","72","20","640.736025465","1","0","6","352","3","left","in","Female","Right-handed","3","2","no","left","d","591.608090628","839.473166849","23","red","3"
"100","75","20","627.307295073","1","1","6","353","1","left","in","Female","Right-handed","3","2","no","left","s","503.11976131","456.0627602","23","red","3"
"100","69","20","618.846407582","1","0","6","354","2","right","out","Female","Right-handed","3","2","no","right","d","538.859990629","495.771524751","23","red","1"
"100","64","20","629.765622391","1","0","6","355","1","left","in","Female","Right-handed","3","2","no","left","s","863.277001772","680.153828045","23","green","0"
"100","60","20","629.703121023","1","0","6","356","2","right","out","Female","Right-handed","3","2","no","right","s","609.885674501","647.770529249","23","green","0"
"100","56","20","616.914057351","1","0","6","357","3","right","out","Female","Right-handed","3","2","no","right","d","474.517699815","375.638504735","23","green","3"
"100","58","20","626.045903199","1","1","6","358","2","left","out","Female","Right-handed","3","2","no","left","d","632.146225802","912.164647707","23","green","0"
"100","55","20","617.168217808","1","0","6","359","3","left","in","Female","Right-handed","3","2","no","left","d","460.719871895","471.775260448","23","red","1"
"100","52","20","616.231320235","1","0","6","360","2","left","in","Female","Right-handed","3","2","no","left","d","567.389249678","631.345078153","23","green","1"
"100","55","20","621.813321373","1","1","6","361","0","right","in","Female","Right-handed","3","2","no","right","d","687.869925437","767.872760563","23","green","3"
"100","52","20","640.53167199","1","0","6","362","0","right","in","Female","Right-handed","3","2","no","right","s","726.449450245","1303.34791841","23","green","0"
"100","54","20","641.375321055","1","1","6","363","0","right","in","Female","Right-handed","3","2","no","right","d","670.137878857","648.046023976","23","green","1"
"100","56","20","637.999599831","1","1","6","364","3","right","in","Female","Right-handed","3","2","no","right","d","551.679315158","575.788150647","23","red","0"
"100","58","20","633.868562289","1","1","6","365","3","right","out","Female","Right-handed","3","2","no","right","d","518.475946486","559.233451153","23","green","3"
"100","56","20","645.291833586","1","0","6","366","0","right","out","Female","Right-handed","3","2","no","right","s","646.953666531","1191.94702291","23","red","0"
"100","53","20","649.356967625","1","0","6","367","0","right","out","Female","Right-handed","3","2","no","right","d","630.478504518","871.492132686","23","green","2"
"100","55","20","648.590474397","1","1","6","368","3","left","in","Female","Right-handed","3","2","no","left","d","601.191073714","656.132227206","23","green","1"
"100","57","20","648.367610122","1","1","6","369","1","left","in","Female","Right-handed","3","2","no","left","s","628.81206609","655.888483325","23","red","3"
"100","58","20","651.485527713","1","1","6","370","3","right","in","Female","Right-handed","3","2","no","right","d","646.32185674","831.252583764","23","red","2"
"100","60","20","652.417132159","1","1","6","371","3","right","out","Female","Right-handed","3","2","no","right","d","606.886341906","751.98098028","23","green","3"
"100","61","20","645.32132225","1","1","6","372","3","left","in","Female","Right-handed","3","2","no","left","s","513.441352497","351.45269749","23","red","3"
"100","62","20","648.331576146","1","1","6","373","3","left","in","Female","Right-handed","3","2","no","left","s","595.222876516","888.076017305","23","green","1"
"100","63","20","646.497866449","1","1","6","374","0","right","in","Female","Right-handed","3","2","no","right","s","551.844483707","623.793828596","23","green","3"
"100","64","20","642.553150928","1","1","6","375","2","left","in","Female","Right-handed","3","2","no","left","d","521.314600545","503.440476943","23","green","3"
"100","65","20","642.707753516","1","1","6","376","2","left","out","Female","Right-handed","3","2","no","left","d","528.001842187","767.926640787","23","red","3"
"100","66","20","644.688679198","1","1","6","377","1","left","out","Female","Right-handed","3","2","no","left","s","636.614115272","791.428040873","23","green","0"
"100","67","20","640.678826187","1","1","6","378","2","left","out","Female","Right-handed","3","2","no","left","s","569.350105048","423.298130518","23","red","2"
"100","68","20","639.879257823","1","1","6","379","1","left","out","Female","Right-handed","3","2","no","left","s","612.789754545","607.800702175","23","red","3"
"100","69","20","635.677551615","1","1","6","380","2","right","out","Female","Right-handed","3","2","no","right","d","496.555033038","455.470398428","23","green","0"
"100","67","20","635.626130723","1","0","6","381","2","left","out","Female","Right-handed","3","2","no","left","d","628.062874377","639.178557467","23","green","0"
"100","68","20","647.721655315","1","1","6","382","1","right","out","Female","Right-handed","3","2","no","right","d","1391.64061119","871.444666773","23","red","2"
"100","69","20","651.949385209","1","1","6","383","0","left","out","Female","Right-handed","3","2","no","left","d","875.299668671","775.272953059","23","green","3"
"100","69","20","651.448611723","1","1","6","384","2","left","in","Female","Right-handed","3","2","no","left","d","548.923726445","711.908524205","23","green","2"
"100","70","20","650.073894339","1","1","6","385","3","right","in","Female","Right-handed","3","2","no","right","s","638.498319611","543.423774073","23","green","2"
"100","71","20","646.207411147","1","1","6","386","0","right","out","Female","Right-handed","3","2","no","right","s","497.01397711","455.150324229","23","green","1"
"100","69","20","653.195740936","1","0","6","387","0","right","out","Female","Right-handed","3","2","no","right","d","727.586387158","1207.7547757","23","red","3"
"100","70","20","661.198322979","1","1","6","388","2","right","in","Female","Right-handed","3","2","no","right","d","587.306652571","1471.32754142","23","green","1"
"100","70","20","661.742746294","1","1","6","389","3","left","out","Female","Right-handed","3","2","no","left","d","710.901156402","663.760127798","23","red","0"
"100","71","20","661.460802891","1","1","6","390","1","right","out","Female","Right-handed","3","2","no","right","d","584.394875347","711.460163751","23","red","3"
"100","70","20","659.020999497","1","0","6","391","0","left","out","Female","Right-handed","3","2","no","left","d","616.023209546","462.918056834","23","green","1"
"100","68","20","655.688815835","1","0","6","392","3","right","out","Female","Right-handed","3","2","no","right","d","490.678560513","487.480704946","23","red","0"
"100","69","20","652.891312482","1","1","6","393","1","left","out","Female","Right-handed","3","2","no","left","d","533.154780249","487.282502687","23","red","1"
"100","67","20","657.257197798","1","0","6","394","1","left","in","Female","Right-handed","3","2","no","left","d","681.734635396","1086.83183308","23","red","0"
"100","68","20","654.990746819","1","1","6","395","0","right","in","Female","Right-handed","3","2","no","right","s","502.31059577","567.42709412","23","green","3"
"100","67","20","656.436003222","1","0","6","396","0","left","out","Female","Right-handed","3","2","no","left","d","549.960600085","918.999097827","23","red","3"
"100","66","20","658.679811785","1","0","6","397","3","right","out","Female","Right-handed","3","2","no","right","d","700.646274072","863.532291412","23","green","1"
"100","66","20","660.216160986","1","1","6","398","2","left","out","Female","Right-handed","3","2","no","left","d","645.301339598","847.202092864","23","green","3"
"100","67","20","660.956722046","1","1","6","399","1","left","in","Female","Right-handed","3","2","no","left","d","783.673457605","622.663947426","23","green","0"
"100","67","20","661.895367525","1","1","6","400","3","left","out","Female","Right-handed","3","2","no","left","d","537.347816422","895.325794165","23","red","3"
"100","68","20","658.648105036","1","1","6","401","2","left","out","Female","Right-handed","3","2","no","left","s","519.104228413","415.015007886","23","green","1"
"100","67","20","660.550071894","1","0","6","402","1","right","in","Female","Right-handed","3","2","no","right","d","701.54652285","847.7896439","23","red","2"
"100","67","20","661.174055405","1","1","6","403","2","right","in","Female","Right-handed","3","2","no","right","s","599.274156382","799.199942783","23","red","3"
"100","68","20","657.176207496","1","1","6","404","1","right","out","Female","Right-handed","3","2","no","right","d","355.826937994","462.792336304","23","red","3"
"100","68","20","658.149445847","1","1","6","405","1","left","out","Female","Right-handed","3","2","no","left","d","767.468658865","671.458265115","23","green","1"
"100","100","20","622.192495446","1","1","7","406","0","right","out","Female","Right-handed","3","2","no","right","s","564.719612754","679.665378138","23","red","0"
"100","100","20","577.740266521","1","1","7","407","2","left","out","Female","Right-handed","3","2","no","left","d","571.278247429","495.297827762","23","green","1"
"100","100","20","648.65832357","1","1","7","408","2","right","out","Female","Right-handed","3","2","no","right","s","597.021770496","983.96710484","23","green","3"
"100","100","20","607.509171665","1","1","7","409","0","right","in","Female","Right-handed","3","2","no","right","d","400.641174693","567.482257211","23","red","3"
"100","100","20","593.626065458","1","1","7","410","0","left","in","Female","Right-handed","3","2","no","left","s","508.110737978","568.076543277","23","red","0"
"100","100","20","582.076929845","1","1","7","411","0","right","in","Female","Right-handed","3","2","no","right","s","512.784526884","535.877976679","23","red","3"
"100","100","20","572.47738027","1","1","7","412","0","left","out","Female","Right-handed","3","2","no","left","d","510.333297305","519.426868337","23","red","3"
"100","100","20","568.305854953","1","1","7","413","1","right","in","Female","Right-handed","3","2","no","right","d","574.148973054","504.06138241","23","red","3"
"100","100","20","564.684957649","1","1","7","414","3","right","out","Female","Right-handed","3","2","no","right","s","615.659518022","455.776040424","23","red","2"
"100","100","20","571.446045849","1","1","7","415","3","right","in","Female","Right-handed","3","2","no","right","s","529.340829955","735.250849335","23","green","3"
"100","100","20","574.230872163","1","1","7","416","2","left","in","Female","Right-handed","3","2","no","left","d","540.066522837","664.09174776","23","green","2"
"100","100","20","594.26407041","1","1","7","417","0","left","out","Female","Right-handed","3","2","no","left","d","541.591525667","1087.66697659","23","green","1"
"100","100","20","588.442985062","1","1","7","418","1","left","out","Female","Right-handed","3","2","no","left","d","502.014895959","535.165025831","23","green","3"
"100","92","20","584.572929796","1","0","7","419","3","left","in","Female","Right-handed","3","2","no","left","d","444.790247169","623.73417549","23","green","3"
"100","93","20","608.330192993","1","1","7","420","2","right","in","Female","Right-handed","3","2","no","right","d","546.404825873","1335.45892964","23","red","3"
"100","93","20","621.524685322","1","1","7","421","1","right","out","Female","Right-handed","3","2","no","right","d","638.913646355","999.970494162","23","red","2"
"100","94","20","619.699525675","1","1","7","422","0","left","out","Female","Right-handed","3","2","no","left","d","613.505912552","567.48803009","23","red","0"
"100","94","20","615.062764227","1","1","7","423","2","right","in","Female","Right-handed","3","2","no","right","d","481.253690232","591.221949009","23","green","3"
"100","94","20","618.628593625","1","1","7","424","3","left","in","Female","Right-handed","3","2","no","left","d","565.800745153","799.826300412","23","green","3"
"100","95","20","618.989219786","1","1","7","425","1","right","out","Female","Right-handed","3","2","no","right","s","596.318120402","655.364113267","23","red","3"
"100","95","20","629.392607202","1","1","7","426","0","right","in","Female","Right-handed","3","2","no","right","d","875.921215564","798.999495517","23","green","1"
"100","90","20","626.196046993","1","0","7","427","3","right","in","Female","Right-handed","3","2","no","right","d","478.531455949","639.605109259","23","green","3"
"100","86","20","646.022824272","1","0","7","428","1","right","out","Female","Right-handed","3","2","no","right","d","421.196801697","1743.2270471","23","green","3"
"100","87","20","643.514071559","1","1","7","429","3","left","in","Female","Right-handed","3","2","no","left","d","635.828041257","535.79747706","23","red","3"
"100","88","20","650.880444589","1","1","7","430","0","left","in","Female","Right-handed","3","2","no","left","s","624.164575867","1031.18221876","23","red","3"
"100","88","20","648.291982028","1","1","7","431","0","left","out","Female","Right-handed","3","2","no","left","s","456.030047204","711.130788797","23","red","1"
"100","85","20","648.688660893","1","0","7","432","2","right","out","Female","Right-handed","3","2","no","right","s","726.434376611","591.570246182","23","green","1"
"100","85","20","646.010504857","1","1","7","433","1","left","in","Female","Right-handed","3","2","no","left","d","532.097701525","615.302882237","23","green","1"
"100","82","20","652.778901972","1","0","7","434","2","left","in","Female","Right-handed","3","2","no","left","d","701.816244695","982.77179768","23","green","1"
"100","83","20","646.100199475","1","1","7","435","1","left","in","Female","Right-handed","3","2","no","left","s","521.418833127","383.416820958","23","red","1"
"100","83","20","645.855344815","1","1","7","436","0","right","out","Female","Right-handed","3","2","no","right","d","541.936294972","735.083115062","23","red","3"
"100","81","20","661.753174564","1","0","7","437","2","left","out","Female","Right-handed","3","2","no","left","d","613.573583552","1695.59821002","23","green","0"
"100","81","20","663.643824648","1","1","7","438","3","right","out","Female","Right-handed","3","2","no","right","s","649.185847335","799.103407378","23","green","3"
"100","82","20","662.531819943","1","1","7","439","3","left","in","Female","Right-handed","3","2","no","left","d","692.834603422","558.836725919","23","green","0"
"100","82","20","664.111732928","1","1","7","440","3","left","out","Female","Right-handed","3","2","no","left","d","524.338948955","911.318599869","23","red","1"
"100","83","20","660.135809529","1","1","7","441","1","right","out","Female","Right-handed","3","2","no","right","s","531.095144459","510.861836668","23","green","3"
"100","81","20","661.541794114","1","0","7","442","3","right","out","Female","Right-handed","3","2","no","right","s","768.67679465","655.6376837","23","green","1"
"100","81","20","661.665006513","1","1","7","443","3","right","out","Female","Right-handed","3","2","no","right","d","469.288431435","863.159299133","23","green","0"
"100","82","20","659.12868158","1","1","7","444","1","right","in","Female","Right-handed","3","2","no","right","d","470.66911223","654.827556016","23","red","0"
"100","82","20","673.660783726","1","1","7","445","1","left","in","Female","Right-handed","3","2","no","left","s","801.450404375","1679.37513049","23","red","0"
"100","82","20","675.669449099","1","1","7","446","0","right","in","Female","Right-handed","3","2","no","right","s","737.00612599","775.026002022","23","green","2"
"100","83","20","676.714286524","1","1","7","447","2","left","out","Female","Right-handed","3","2","no","left","s","592.605195529","846.500046344","23","red","0"
"100","83","20","672.057943678","1","1","7","448","0","left","in","Female","Right-handed","3","2","no","left","s","489.97683471","463.006253634","23","red","1"
"100","84","20","669.31279416","1","1","7","449","1","left","out","Female","Right-handed","3","2","no","left","s","551.774888416","550.76784133","23","red","1"
"100","84","20","669.19103366","1","1","7","450","2","left","in","Female","Right-handed","3","2","no","left","d","720.202871879","607.464271474","23","red","3"
"100","84","20","665.728879052","1","1","7","451","2","right","in","Female","Right-handed","3","2","no","right","s","492.869368994","526.994474392","23","red","0"
"100","85","20","665.811107678","1","1","7","452","3","left","out","Female","Right-handed","3","2","no","left","d","700.540437912","638.646810949","23","green","2"
"100","85","20","663.091980254","1","1","7","453","1","left","out","Female","Right-handed","3","2","no","left","s","559.235696164","511.350286575","23","red","3"
"100","85","20","660.963507123","1","1","7","454","3","right","out","Female","Right-handed","3","2","no","right","d","590.714897593","526.878696044","23","green","1"
"100","86","20","658.964794083","1","1","7","455","0","right","in","Female","Right-handed","3","2","no","right","s","547.532782748","574.52292748","23","green","0"
"100","86","20","665.763040941","1","1","7","456","2","left","out","Female","Right-handed","3","2","no","left","d","644.186852776","1367.16391487","23","green","3"
"100","84","20","673.181673736","1","0","7","457","2","left","out","Female","Right-handed","3","2","no","left","d","888.481081147","1214.5828115","23","green","1"
"100","84","20","673.059080884","1","1","7","458","2","left","in","Female","Right-handed","3","2","no","left","s","542.239371243","791.129133904","23","red","0"
"100","85","20","673.16401496","1","1","7","459","1","right","in","Female","Right-handed","3","2","no","right","s","926.772924031","430.678117925","23","green","2"
"100","85","20","672.221510007","1","1","7","460","1","right","in","Female","Right-handed","3","2","no","right","s","555.400257919","687.252227129","23","green","0"
"100","85","20","676.70970869","1","1","7","461","1","right","out","Female","Right-handed","3","2","no","right","d","584.042408871","1263.07886365","23","red","0"
"100","85","20","675.138538885","1","1","7","462","3","left","out","Female","Right-handed","3","2","no","left","d","623.62833933","550.677720236","23","red","0"
"100","86","20","672.336719055","1","1","7","463","2","right","out","Female","Right-handed","3","2","no","right","s","538.171734883","487.094242606","23","red","3"
"100","86","20","693.099185663","1","1","7","464","0","right","in","Female","Right-handed","3","2","no","right","d","891.889967596","2902.75453035","23","red","2"
"100","86","20","690.643447496","1","1","7","465","1","left","in","Female","Right-handed","3","2","no","left","d","556.20493344","535.304857847","23","green","1"
"100","85","20","696.163019167","1","0","7","466","3","right","in","Female","Right-handed","3","2","no","right","d","439.850585001","1614.8240538","23","red","0"
"100","85","20","692.707755215","1","1","7","467","0","left","in","Female","Right-handed","3","2","no","left","s","541.463880847","422.409427498","23","green","3"
"100","85","20","690.032195319","1","1","7","468","3","right","out","Female","Right-handed","3","2","no","right","d","601.151304978","447.143658475","23","red","1"
"100","84","20","686.371549521","1","0","7","469","2","left","out","Female","Right-handed","3","2","no","left","s","488.726685176","422.77504332","23","green","2"
"100","100","20","534.129435056","1","1","8","470","0","right","in","Female","Right-handed","3","2","no","right","d","524.811042371","543.447827742","23","red","3"
"100","50","20","448.461559184","1","0","8","471","0","right","out","Female","Right-handed","3","2","no","right","s","406.246963226","319.340403399","23","green","3"
"66","33","20","657.087211453","0","0","8","472","0","right","out","Female","Right-handed","3","2","no","left","d","778.830972278","1369.8460597","23","green","1"
"75","50","20","625.417611842","1","1","8","473","3","right","out","Female","Right-handed","3","2","no","right","d","549.353164679","511.464461338","23","red","1"
"80","60","20","608.240082591","1","1","8","474","1","left","in","Female","Right-handed","3","2","no","left","s","551.971487097","527.088444073","23","red","1"
"83","66","20","627.561569116","1","1","8","475","3","left","in","Female","Right-handed","3","2","no","left","d","872.667876192","575.670127295","23","red","0"
"85","71","20","628.944590373","1","1","8","476","1","left","in","Female","Right-handed","3","2","no","left","d","595.216462207","679.268973618","23","red","3"
"87","75","20","670.183540746","1","1","8","477","1","left","out","Female","Right-handed","3","2","no","left","s","758.898816464","1158.81357025","23","green","2"
"88","77","20","671.719006924","1","1","8","478","3","right","in","Female","Right-handed","3","2","no","right","d","624.58310977","743.422362924","23","green","3"
"90","80","20","656.346593535","1","1","8","479","2","right","in","Female","Right-handed","3","2","no","right","s","453.016603129","582.973142951","23","green","3"
"90","81","20","664.869585216","1","1","8","480","3","right","in","Female","Right-handed","3","2","no","right","d","516.624775861","983.57422819","23","red","0"
"91","75","20","664.228733427","1","0","8","481","1","left","out","Female","Right-handed","3","2","no","left","d","595.192729248","719.165998242","23","green","0"
"92","69","20","697.506110312","1","0","8","482","0","right","in","Female","Right-handed","3","2","no","right","d","490.840201193","1702.82906466","23","red","0"
"92","71","20","727.393110176","1","1","8","483","3","right","in","Female","Right-handed","3","2","no","right","d","912.458423227","1319.38979361","23","red","1"
"93","73","20","713.895015449","1","1","8","484","0","right","in","Female","Right-handed","3","2","no","right","d","474.843867611","574.999510911","23","red","3"
"93","68","20","726.933891208","1","0","8","485","3","left","in","Female","Right-handed","3","2","no","left","d","621.531500532","1223.50255466","23","green","3"
"94","64","20","745.64886517","1","0","8","486","0","right","in","Female","Right-handed","3","2","no","right","s","563.057343636","1527.11955349","23","red","0"
"94","61","20","743.150378251","1","0","8","487","2","left","in","Female","Right-handed","3","2","no","left","s","570.599933872","830.752267382","23","green","0"
"94","63","20","737.836458761","1","1","8","488","0","left","out","Female","Right-handed","3","2","no","left","d","533.119180814","751.25263508","23","green","3"
"95","65","20","724.712374204","1","1","8","489","2","right","in","Female","Right-handed","3","2","no","right","s","511.781969817","438.92756541","23","green","3"
"95","66","20","717.794137126","1","1","8","490","1","left","in","Female","Right-handed","3","2","no","left","d","583.468648602","575.390142549","23","red","3"
"95","68","20","711.988885338","1","1","8","491","2","right","in","Female","Right-handed","3","2","no","right","s","749.061826598","431.09536896","23","green","2"
"95","69","20","713.166468523","1","1","8","492","2","left","out","Female","Right-handed","3","2","no","left","d","543.624862774","934.52173442","23","red","3"
"95","70","20","706.967458909","1","1","8","493","0","left","out","Female","Right-handed","3","2","no","left","d","481.422065943","647.35840966","23","red","3"
"96","72","20","699.905792991","1","1","8","494","1","right","out","Female","Right-handed","3","2","no","right","d","501.87602609","558.975595785","23","red","3"
"96","73","20","696.510960543","1","1","8","495","3","left","in","Female","Right-handed","3","2","no","left","s","768.666211039","454.614087688","23","red","0"
"96","74","20","691.997084244","1","1","8","496","2","right","out","Female","Right-handed","3","2","no","right","d","526.108016384","623.164584529","23","red","0"
"96","71","20","687.970469788","1","0","8","497","3","left","out","Female","Right-handed","3","2","no","left","d","591.752412664","566.751346287","23","green","3"
"96","72","20","685.328912073","1","1","8","498","0","left","out","Female","Right-handed","3","2","no","left","s","783.346969092","439.383623041","23","red","1"
"96","73","20","690.818686518","1","1","8","499","1","left","in","Female","Right-handed","3","2","no","left","d","637.023669136","1063.0206217","23","green","0"
"96","70","20","701.975433452","1","0","8","500","3","left","in","Female","Right-handed","3","2","no","left","d","570.628798276","1502.72688466","23","green","0"
"96","68","20","698.042699558","1","0","8","501","0","right","out","Female","Right-handed","3","2","no","right","d","609.150914988","543.104982731","23","green","0"
"96","69","20","696.200207842","1","1","8","502","2","left","in","Female","Right-handed","3","2","no","left","s","731.712393765","542.768552037","23","red","1"
"97","70","20","692.928238236","1","1","8","503","3","right","in","Female","Right-handed","3","2","no","right","d","554.463126842","615.443355687","23","green","1"
"97","71","20","693.330942933","1","1","8","504","2","right","in","Female","Right-handed","3","2","no","right","s","663.024406138","751.021399108","23","green","1"
"97","72","20","688.990813208","1","1","8","505","1","right","out","Female","Right-handed","3","2","no","right","s","451.64169521","622.530850437","23","green","3"
"97","72","20","683.159635625","1","1","8","506","3","right","out","Female","Right-handed","3","2","no","right","s","499.125889542","447.34859576","23","red","1"
"97","73","20","679.297234572","1","1","8","507","0","right","in","Female","Right-handed","3","2","no","right","d","433.790663134","638.986128088","23","green","3"
"97","74","20","681.826175039","1","1","8","508","2","left","in","Female","Right-handed","3","2","no","left","s","1053.46842731","502.383398219","23","red","0"
"97","75","20","679.504771768","1","1","8","509","3","right","out","Female","Right-handed","3","2","no","right","d","539.068135073","638.871953324","23","red","3"
"97","75","20","679.826991439","1","1","8","510","2","right","out","Female","Right-handed","3","2","no","right","d","474.657211114","910.774345445","23","green","0"
"97","76","20","681.420586068","1","1","8","511","2","left","out","Female","Right-handed","3","2","no","left","s","791.161846901","702.354084809","23","red","3"
"97","76","20","682.571278061","1","1","8","512","1","left","in","Female","Right-handed","3","2","no","left","d","822.930013117","638.87067046","23","green","1"
"97","77","20","679.533516635","1","1","8","513","1","right","in","Female","Right-handed","3","2","no","right","d","475.427249348","622.392301284","23","red","3"
"97","77","20","688.78933163","1","1","8","514","0","left","out","Female","Right-handed","3","2","no","left","d","816.947383715","1375.14299908","23","red","2"
"97","78","20","686.213983478","1","1","8","515","3","left","out","Female","Right-handed","3","2","no","left","d","581.696374022","558.950259252","23","green","3"
"97","78","20","684.439093847","1","1","8","516","1","left","out","Female","Right-handed","3","2","no","left","d","527.242708293","678.345633314","23","green","0"
"97","79","20","682.293789738","1","1","8","517","2","left","out","Female","Right-handed","3","2","no","left","s","531.907517157","631.021476082","23","red","1"
"97","79","20","685.164869074","1","1","8","518","3","right","out","Female","Right-handed","3","2","no","right","s","727.479588855","918.473765621","23","red","2"
"98","80","20","689.605138121","1","1","8","519","1","left","in","Female","Right-handed","3","2","no","left","s","536.138077059","1278.21856578","23","green","2"
"98","80","20","688.105745755","1","1","8","520","2","right","out","Female","Right-handed","3","2","no","right","s","595.590095916","630.682158942","23","green","2"
"98","80","20","688.032207547","1","1","8","521","0","left","out","Female","Right-handed","3","2","no","left","s","858.307513055","510.25600484","23","red","0"
"98","81","20","686.275405981","1","1","8","522","2","right","out","Female","Right-handed","3","2","no","right","d","630.982028055","558.861421021","23","green","1"
"98","81","20","689.389437497","1","1","8","523","0","left","out","Female","Right-handed","3","2","no","left","s","878.403233837","830.462981877","23","green","1"
"98","81","20","688.557149062","1","1","8","524","1","left","in","Female","Right-handed","3","2","no","left","s","576.07968116","711.147466009","23","green","1"
"98","82","20","685.75610016","1","1","8","525","0","right","out","Female","Right-handed","3","2","no","right","s","552.746015349","510.65080578","23","red","2"
"98","82","20","685.976476611","1","1","8","526","1","left","out","Female","Right-handed","3","2","no","left","d","854.313641287","542.321474444","23","red","3"
"98","82","20","686.381766197","1","1","8","527","1","left","out","Female","Right-handed","3","2","no","left","s","731.945874748","687.020670445","23","green","0"
"98","83","20","684.834324801","1","1","8","528","2","left","in","Female","Right-handed","3","2","no","left","s","783.58429866","406.581148912","23","red","3"
"98","81","20","683.732530753","1","0","8","529","0","right","out","Female","Right-handed","3","2","no","right","s","663.177708211","574.275655727","23","red","1"
"98","81","20","681.95273517","1","1","8","530","3","right","out","Female","Right-handed","3","2","no","right","d","431.653414162","718.676586188","23","green","3"
"98","82","20","680.740416937","1","1","8","531","2","left","in","Female","Right-handed","3","2","no","left","s","807.253433021","406.324576409","23","green","3"
"98","82","20","682.77776808","1","1","8","532","1","right","in","Female","Right-handed","3","2","no","right","d","627.102651776","991.084426143","23","green","1"
"98","81","20","687.297285171","1","0","8","533","3","right","in","Female","Right-handed","3","2","no","right","d","889.548422769","1054.50530095","23","red","2"
dis_reply=No
dis_loc=0
tar_loc=3
