"acc_1","acc_2","age","avg_rt","correct_1","correct_2","count_block_loop","count_trial_sequence","cue_position","detection","dis_shape","gender","hand","high_loc","low_loc","practice","response_keyboard_response_1","response_keyboard_response_2","response_time_keyboard_response_1","response_time_keyboard_response_2","subject_nr","tar_color","tar_position"
"0","100","20","1944.51541146","0","1","0","0","1","right","in","Female","Right-handed","0","2","yes","None","s","3000.12539941","888.905423511","25","green","1"
"50","50","20","2047.95525197","1","0","0","1","2","left","out","Female","Right-handed","0","2","yes","left","d","1948.83800289","2353.95218209","25","red","1"
"66","66","20","1810.40475145","1","1","0","2","0","left","out","Female","Right-handed","0","2","yes","left","d","1245.37393238","1425.23356843","25","red","1"
"75","50","20","1636.93198638","1","0","0","3","2","right","out","Female","Right-handed","0","2","yes","right","s","1078.99970398","1154.02767831","25","red","0"
"80","60","20","1587.73228156","1","1","0","4","3","right","in","Female","Right-handed","0","2","yes","right","s","1668.48725657","1113.37966804","25","red","3"
"83","66","20","1481.9421108","1","1","0","5","0","left","in","Female","Right-handed","0","2","yes","left","s","1343.97827864","562.004235355","25","green","3"
"85","71","20","1439.02610612","1","1","0","6","3","left","out","Female","Right-handed","0","2","yes","left","s","1321.45000204","1041.61015408","25","green","3"
"87","75","20","1373.90590218","1","1","0","7","3","right","in","Female","Right-handed","0","2","yes","right","d","994.021238363","842.107710716","25","red","0"
"88","66","20","1325.49444481","1","0","0","8","1","left","in","Female","Right-handed","0","2","yes","left","d","770.662759936","1105.7428119","25","red","3"
"90","70","20","1271.12070832","1","1","0","9","3","right","in","Female","Right-handed","0","2","yes","right","s","826.348115817","737.166043891","25","green","0"
"90","72","20","1249.23198328","1","1","0","10","3","right","in","Female","Right-handed","0","2","yes","right","d","1082.91915715","977.770308691","25","red","1"
"91","66","20","1237.65947667","1","0","0","11","3","right","out","Female","Right-handed","0","2","yes","right","d","1315.26437948","905.459428479","25","green","2"
"92","69","20","1214.98913481","1","1","0","12","0","left","out","Female","Right-handed","0","2","yes","left","s","1179.8981218","705.991943007","25","red","0"
"92","71","20","1198.63310062","1","1","0","13","1","left","out","Female","Right-handed","0","2","yes","left","d","850.444686832","1121.56462543","25","green","3"
"93","73","20","1161.69668074","1","1","0","14","2","right","out","Female","Right-handed","0","2","yes","right","d","551.993129011","737.180476051","25","red","3"
"93","75","20","1150.69731774","1","1","0","15","1","left","in","Female","Right-handed","0","2","yes","left","s","1185.7113947","785.702350549","25","red","2"
"94","76","20","1132.48707063","1","1","0","16","0","right","out","Female","Right-handed","0","2","yes","right","d","921.12922329","761.117010476","25","green","1"
"94","77","20","1097.03256853","1","1","0","17","0","left","out","Female","Right-handed","0","2","yes","left","s","578.814491295","409.797574564","25","green","3"
"94","78","20","1075.8440242","1","1","0","18","0","left","in","Female","Right-handed","0","2","yes","left","d","803.451979562","585.44847287","25","green","2"
"95","75","20","1077.80875435","1","0","0","19","3","left","in","Female","Right-handed","0","2","yes","left","d","1301.10258473","929.174669833","25","red","1"
"95","71","20","1070.22616656","1","0","0","20","1","left","out","Female","Right-handed","0","2","yes","left","s","683.533261472","1153.61556005","25","red","1"
"95","72","20","1055.99297221","1","1","0","21","1","right","in","Female","Right-handed","0","2","yes","right","d","624.990979904","889.200801659","25","green","0"
"100","100","20","918.922386105","1","1","1","22","2","right","in","Female","Right-handed","0","2","no","right","s","907.854204426","929.990567784","25","red","1"
"100","50","20","1009.48176689","1","0","1","23","3","right","in","Female","Right-handed","0","2","no","right","s","1054.57760764","1145.50468772","25","green","0"
"100","66","20","969.954707615","1","1","1","24","1","right","out","Female","Right-handed","0","2","no","right","s","715.953338589","1065.84783952","25","red","0"
"100","75","20","928.135634696","1","1","1","25","3","left","in","Female","Right-handed","0","2","no","left","d","979.598381931","625.758449947","25","red","0"
"100","80","20","889.456667769","1","1","1","26","2","right","out","Female","Right-handed","0","2","no","right","d","684.140053501","785.34154662","25","green","3"
"100","66","20","877.200168995","1","0","1","27","0","left","in","Female","Right-handed","0","2","no","left","d","893.985863539","737.849486712","25","red","3"
"100","71","20","839.59035307","1","1","1","28","2","right","in","Female","Right-handed","0","2","no","right","s","554.431522141","673.431392894","25","green","3"
"100","75","20","810.83713487","1","1","1","29","2","left","in","Female","Right-handed","0","2","no","left","d","616.969586954","602.159627997","25","green","2"
"100","66","20","802.993963474","1","0","1","30","3","right","out","Female","Right-handed","0","2","no","right","d","702.693393312","777.803791294","25","red","0"
"100","70","20","781.857206954","1","1","1","31","2","right","in","Female","Right-handed","0","2","no","right","s","806.080556453","377.1722401","25","red","2"
"100","72","20","755.638884336","1","1","1","32","3","left","in","Female","Right-handed","0","2","no","left","s","592.846396627","394.064919688","25","red","3"
"100","75","20","753.085087402","1","1","1","33","2","right","in","Female","Right-handed","0","2","no","right","d","544.517913033","905.468729205","25","red","0"
"100","76","20","762.692557973","1","1","1","34","3","left","in","Female","Right-handed","0","2","no","left","s","467.056677007","1288.90773265","25","red","0"
"100","78","20","765.901763101","1","1","1","35","0","left","out","Female","Right-handed","0","2","no","left","s","909.573234698","705.669624833","25","green","1"
"100","80","20","758.721443438","1","1","1","36","3","left","out","Female","Right-handed","0","2","no","left","s","571.136583691","745.257352621","25","green","3"
"100","81","20","752.698793343","1","1","1","37","0","left","out","Female","Right-handed","0","2","no","left","d","770.748390732","553.969693112","25","green","1"
"100","76","20","745.388138151","1","0","1","38","3","left","out","Female","Right-handed","0","2","no","left","s","615.373390374","641.461919793","25","red","2"
"100","72","20","753.311431733","1","0","1","39","0","right","out","Female","Right-handed","0","2","no","right","s","470.968433023","1305.04641221","25","green","0"
"100","73","20","760.746829867","1","1","1","40","3","left","in","Female","Right-handed","0","2","no","left","d","795.547326732","993.620665824","25","red","0"
"100","75","20","746.674037223","1","1","1","41","0","left","out","Female","Right-handed","0","2","no","left","s","621.338040568","337.243913396","25","green","1"
"100","76","20","738.546338457","1","1","1","42","3","right","out","Female","Right-handed","0","2","no","right","s","734.94285026","417.041876026","25","red","1"
"100","77","20","732.817263204","1","1","1","43","2","right","in","Female","Right-handed","0","2","no","right","d","599.499621076","625.513744704","25","red","0"
"100","78","20","730.590376601","1","1","1","44","2","right","in","Female","Right-handed","0","2","no","right","d","602.097409366","761.100333319","25","green","0"
"100","79","20","733.722517832","1","1","1","45","0","right","out","Female","Right-handed","0","2","no","right","d","977.743047952","633.780484324","25","red","3"
"100","76","20","738.528048256","1","0","1","46","3","left","in","Female","Right-handed","0","2","no","left","d","834.38041306","873.341143804","25","green","1"
"100","76","20","736.699780367","1","1","1","47","2","left","out","Female","Right-handed","0","2","no","left","d","572.968505505","809.017660791","25","green","0"
"100","77","20","736.766647306","1","1","1","48","2","right","in","Female","Right-handed","0","2","no","right","s","763.476187101","713.534188337","25","red","1"
"100","75","20","735.300326776","1","0","1","49","1","right","out","Female","Right-handed","0","2","no","right","d","766.204826945","625.214517979","25","green","1"
"100","72","20","740.742199726","1","0","1","50","2","left","in","Female","Right-handed","0","2","no","left","d","656.495737541","1129.7335471","25","green","0"
"100","73","20","738.759728209","1","1","1","51","1","left","out","Female","Right-handed","0","2","no","left","d","593.2674949","769.268613552","25","green","1"
"100","74","20","738.793634295","1","1","1","52","2","left","out","Female","Right-handed","0","2","no","left","d","694.826584804","784.795048934","25","green","3"
"100","75","20","739.893711572","1","1","1","53","0","left","in","Female","Right-handed","0","2","no","left","s","498.521666035","1049.4705483","25","red","1"
"100","72","20","739.109749324","1","0","1","54","3","left","in","Female","Right-handed","0","2","no","left","s","834.872068546","593.173846235","25","red","1"
"100","73","20","743.535751915","1","1","1","55","3","right","out","Female","Right-handed","0","2","no","right","d","786.785724482","992.401950331","25","green","1"
"100","74","20","745.128681924","1","1","1","56","1","left","in","Female","Right-handed","0","2","no","left","s","765.205800959","833.370803492","25","green","0"
"100","75","20","759.549148141","1","1","1","57","3","right","out","Female","Right-handed","0","2","no","right","s","839.751741241","1688.77919024","25","red","2"
"100","72","20","756.339745426","1","0","1","58","3","left","out","Female","Right-handed","0","2","no","left","s","560.348065144","721.254430271","25","green","3"
"100","73","20","756.108258598","1","1","1","59","1","left","out","Female","Right-handed","0","2","no","left","d","550.034524927","945.051966992","25","red","0"
"100","71","20","760.171223112","1","0","1","60","3","right","out","Female","Right-handed","0","2","no","right","d","491.63752707","1337.49022221","25","red","3"
"100","72","20","753.195949086","1","1","1","61","3","right","in","Female","Right-handed","0","2","no","right","s","489.228639686","473.091884414","25","green","0"
"100","73","20","748.807542037","1","1","1","62","1","left","out","Female","Right-handed","0","2","no","left","s","689.757690496","456.784829687","25","red","3"
"100","73","20","750.571356884","1","1","1","63","0","right","out","Female","Right-handed","0","2","no","right","s","740.327007021","905.448524183","25","green","2"
"100","74","20","753.859697698","1","1","1","64","1","right","in","Female","Right-handed","0","2","no","right","d","622.988437917","1160.95158589","25","red","3"
"100","75","20","751.148446194","1","1","1","65","1","right","out","Female","Right-handed","0","2","no","right","d","452.649535589","816.479727469","25","green","0"
"100","75","20","748.736354173","1","1","1","66","0","right","in","Female","Right-handed","0","2","no","right","s","740.067869625","545.140740793","25","green","2"
"100","73","20","751.551083889","1","0","1","67","1","right","out","Female","Right-handed","0","2","no","right","d","787.699440385","968.728401876","25","red","2"
"100","74","20","751.089455566","1","1","1","68","1","right","in","Female","Right-handed","0","2","no","right","s","690.338504642","769.370600799","25","green","2"
"100","72","20","756.898470897","1","0","1","69","2","left","out","Female","Right-handed","0","2","no","left","d","955.006306853","1104.83807601","25","red","1"
"100","73","20","756.603354964","1","1","1","70","0","left","in","Female","Right-handed","0","2","no","left","d","859.474406494","625.401173878","25","green","3"
"100","72","20","760.980527171","1","0","1","71","0","left","in","Female","Right-handed","0","2","no","left","s","797.944989106","1152.97894156","25","green","0"
"100","72","20","757.855588213","1","1","1","72","1","left","in","Female","Right-handed","0","2","no","left","d","546.565034347","656.652246271","25","red","3"
"100","73","20","759.728784982","1","1","1","73","0","right","in","Female","Right-handed","0","2","no","right","s","549.309068494","1161.21457186","25","green","0"
"100","73","20","759.06127828","1","1","1","74","1","left","out","Female","Right-handed","0","2","no","left","d","823.885348378","624.816511157","25","red","1"
"100","74","20","772.065532945","1","1","1","75","1","right","out","Female","Right-handed","0","2","no","right","d","2057.29919177","865.282868675","25","red","1"
"100","74","20","771.968642742","1","1","1","76","1","right","in","Female","Right-handed","0","2","no","right","d","564.700803745","968.772339777","25","green","0"
"100","73","20","779.851224733","1","0","1","77","0","right","in","Female","Right-handed","0","2","no","right","s","914.419553072","1512.36691547","25","red","0"
"100","71","20","778.82807778","1","0","1","78","2","right","out","Female","Right-handed","0","2","no","right","s","794.128164609","648.935532194","25","green","1"
"100","72","20","781.818034983","1","1","1","79","2","left","out","Female","Right-handed","0","2","no","left","d","863.776472186","1040.71471891","25","red","3"
"100","72","20","780.654925095","1","1","1","80","0","right","out","Female","Right-handed","0","2","no","right","d","377.201425126","1049.18767802","25","green","0"
"98","71","20","784.962932341","0","0","1","81","0","left","in","Female","Right-handed","0","2","no","right","s","490.709699727","1587.56101997","25","green","3"
"98","72","20","782.237565536","1","1","1","82","1","left","out","Female","Right-handed","0","2","no","left","s","549.137486181","688.293628333","25","red","0"
"98","72","20","779.669905425","1","1","1","83","0","left","in","Female","Right-handed","0","2","no","left","s","485.022146946","761.063130423","25","green","0"
"98","73","20","773.922146815","1","1","1","84","2","right","in","Female","Right-handed","0","2","no","right","s","402.59785243","432.524373508","25","red","0"
"98","73","20","769.511091333","1","1","1","85","1","left","out","Female","Right-handed","0","2","no","left","s","510.213637619","473.015554337","25","red","3"
"100","100","20","505.879821183","1","1","2","86","2","right","in","Female","Right-handed","0","2","no","right","d","458.378781266","553.3808611","25","red","0"
"100","100","20","517.654938027","1","1","2","87","0","right","in","Female","Right-handed","0","2","no","right","s","433.899597727","624.960512014","25","red","0"
"100","100","20","610.78465928","1","1","2","88","3","left","out","Female","Right-handed","0","2","no","left","s","664.537014796","929.551188776","25","green","3"
"100","100","20","569.90940935","1","1","2","89","2","right","in","Female","Right-handed","0","2","no","right","d","405.239257903","489.328061216","25","green","3"
"100","100","20","686.479602391","1","1","2","90","2","left","in","Female","Right-handed","0","2","no","left","d","1120.63840166","1184.88234745","25","green","1"
"100","100","20","658.458858357","1","1","2","91","1","right","out","Female","Right-handed","0","2","no","right","d","427.304422625","609.405853746","25","red","3"
"100","100","20","658.67932292","1","1","2","92","2","right","in","Female","Right-handed","0","2","no","right","s","615.004889292","704.999331312","25","red","2"
"100","87","20","654.991726365","1","0","2","93","2","left","out","Female","Right-handed","0","2","no","left","d","592.70015077","665.65695019","25","red","3"
"100","88","20","654.176507705","1","1","2","94","2","right","in","Female","Right-handed","0","2","no","right","d","638.08511573","657.224401122","25","green","2"
"100","90","20","647.940932067","1","1","2","95","1","right","in","Female","Right-handed","0","2","no","right","s","726.782587892","456.85891476","25","red","0"
"100","90","20","635.752602155","1","1","2","96","0","left","in","Female","Right-handed","0","2","no","left","s","530.346496853","497.392109202","25","green","3"
"100","91","20","631.032401155","1","1","2","97","0","right","out","Female","Right-handed","0","2","no","right","d","557.11109265","601.109287669","25","red","1"
"100","92","20","643.506882449","1","1","2","98","3","left","in","Female","Right-handed","0","2","no","left","s","705.689509137","880.711806818","25","red","1"
"100","92","20","646.923517677","1","1","2","99","1","left","out","Female","Right-handed","0","2","no","left","s","533.314389791","849.365161477","25","red","0"
"100","93","20","636.622176068","1","1","2","100","0","left","in","Female","Right-handed","0","2","no","left","d","439.972649459","544.834137632","25","green","2"
"100","93","20","634.365467761","1","1","2","101","3","left","out","Female","Right-handed","0","2","no","left","d","599.396671685","601.633014619","25","green","0"
"100","94","20","644.201067757","1","1","2","102","2","right","in","Female","Right-handed","0","2","no","right","s","842.091033559","761.05030184","25","green","1"
"100","94","20","633.170182251","1","1","2","103","2","left","out","Female","Right-handed","0","2","no","left","s","498.45591954","392.834337759","25","red","0"
"100","94","20","642.312117325","1","1","2","104","1","right","out","Female","Right-handed","0","2","no","right","s","612.423457449","1001.31043987","25","green","1"
"100","95","20","634.842755234","1","1","2","105","2","left","in","Female","Right-handed","0","2","no","left","d","456.815297573","529.034453408","25","red","0"
"100","95","20","640.397338209","1","1","2","106","3","right","out","Female","Right-handed","0","2","no","right","s","558.562326234","944.415669219","25","red","3"
"100","95","20","634.187135863","1","1","2","107","1","right","out","Female","Right-handed","0","2","no","right","s","502.245483294","505.300289893","25","green","0"
"100","95","20","627.265390261","1","1","2","108","0","right","out","Female","Right-handed","0","2","no","right","s","604.908152145","345.065821861","25","red","1"
"100","95","20","631.852060821","1","1","2","109","0","right","out","Female","Right-handed","0","2","no","right","d","537.313700897","937.377266531","25","red","1"
"100","92","20","632.401661687","1","0","2","110","0","left","out","Female","Right-handed","0","2","no","left","s","450.106910215","841.077254696","25","red","1"
"100","92","20","624.967376541","1","1","2","111","3","right","in","Female","Right-handed","0","2","no","right","s","461.630185917","416.590309866","25","green","0"
"100","92","20","625.739985102","1","1","2","112","3","left","out","Female","Right-handed","0","2","no","left","d","530.327895405","761.327719974","25","red","2"
"100","92","20","621.77814691","1","1","2","113","1","right","out","Female","Right-handed","0","2","no","right","d","492.819681101","536.797350382","25","green","3"
"100","93","20","621.389255373","1","1","2","114","0","left","out","Female","Right-handed","0","2","no","left","s","684.49604671","536.504537951","25","red","0"
"100","93","20","617.951449368","1","1","2","115","3","right","in","Female","Right-handed","0","2","no","right","s","395.211153682","641.298996772","25","green","0"
"100","93","20","620.120483786","1","1","2","116","1","left","out","Female","Right-handed","0","2","no","left","d","505.748007483","864.635025176","25","green","3"
"100","93","20","623.641427884","1","1","2","117","1","right","in","Female","Right-handed","0","2","no","right","s","793.366788144","672.214601687","25","red","2"
"100","93","20","621.178694004","1","1","2","118","3","left","in","Female","Right-handed","0","2","no","left","s","523.758056752","560.984362917","25","green","3"
"100","94","20","623.249999543","1","1","2","119","2","left","in","Female","Right-handed","0","2","no","left","s","718.620721946","664.585442701","25","green","1"
"97","91","20","624.447689364","0","0","2","120","3","left","out","Female","Right-handed","0","2","no","right","s","551.112767422","779.225519134","25","red","0"
"97","91","20","627.969251523","1","1","2","121","3","right","in","Female","Right-handed","0","2","no","right","d","885.726500361","616.721353854","25","green","1"
"97","91","20","624.643086903","1","1","2","122","0","left","in","Female","Right-handed","0","2","no","left","s","584.408395411","425.393925729","25","red","0"
"97","92","20","623.585870145","1","1","2","123","1","right","out","Female","Right-handed","0","2","no","right","s","743.927349162","425.010351064","25","red","2"
"97","92","20","619.624602241","1","1","2","124","2","left","in","Female","Right-handed","0","2","no","left","d","441.665701852","496.527141917","25","green","0"
"97","92","20","620.379115931","1","1","2","125","1","right","out","Female","Right-handed","0","2","no","right","d","675.364981238","624.245318446","25","red","1"
"97","92","20","620.08527066","1","1","2","126","1","left","out","Female","Right-handed","0","2","no","left","d","639.807673866","576.855245781","25","green","0"
"97","92","20","624.486163662","1","1","2","127","0","left","out","Female","Right-handed","0","2","no","left","d","681.427128671","928.418424795","25","red","3"
"97","90","20","626.183993476","1","0","2","128","0","left","in","Female","Right-handed","0","2","no","left","s","497.970036919","897.015654402","25","red","2"
"97","90","20","628.593895046","1","1","2","129","3","right","out","Female","Right-handed","0","2","no","right","d","855.716593483","608.722731638","25","green","1"
"97","91","20","631.375010766","1","1","2","130","2","left","in","Female","Right-handed","0","2","no","left","s","755.229652503","752.258552413","25","red","3"
"97","91","20","634.125977616","1","1","2","131","3","right","in","Female","Right-handed","0","2","no","right","d","842.899555071","672.93941669","25","red","1"
"97","89","20","634.103798763","1","0","2","132","3","left","out","Female","Right-handed","0","2","no","left","s","473.644154961","792.522988024","25","green","2"
"97","89","20","631.737208245","1","1","2","133","3","right","out","Female","Right-handed","0","2","no","right","s","480.001680546","561.013227234","25","green","0"
"97","89","20","630.482006625","1","1","2","134","0","right","in","Female","Right-handed","0","2","no","right","s","539.676726094","600.787931638","25","green","3"
"98","90","20","628.447962612","1","1","2","135","0","right","out","Female","Right-handed","0","2","no","right","s","489.193040364","568.366571661","25","green","0"
"98","88","20","628.839790963","1","0","2","136","1","left","in","Female","Right-handed","0","2","no","left","s","743.876996967","552.985419996","25","green","1"
"98","88","20","628.844328857","1","1","2","137","2","right","out","Female","Right-handed","0","2","no","right","s","649.481067736","608.67045516","25","green","0"
"98","88","20","626.311954944","1","1","2","138","0","left","out","Female","Right-handed","0","2","no","left","d","467.970713627","521.286309304","25","green","0"
"98","88","20","625.305084221","1","1","2","139","0","right","out","Female","Right-handed","0","2","no","right","s","463.005410133","680.876461694","25","green","0"
"98","87","20","625.160299719","1","0","2","140","1","left","in","Female","Right-handed","0","2","no","left","s","586.447498859","648.23637436","25","green","3"
"98","87","20","624.576802763","1","1","2","141","2","left","out","Female","Right-handed","0","2","no","left","s","720.068748385","464.900192012","25","green","1"
"98","87","20","623.042596486","1","1","2","142","2","right","in","Female","Right-handed","0","2","no","right","d","601.583945281","472.670144711","25","green","0"
"98","87","20","622.054779647","1","1","2","143","1","right","out","Female","Right-handed","0","2","no","right","s","667.226527461","464.271912104","25","red","1"
"98","88","20","621.866752182","1","1","2","144","3","left","out","Female","Right-handed","0","2","no","left","d","540.960867365","680.961451068","25","green","0"
"98","88","20","621.127063812","1","1","2","145","0","right","in","Female","Right-handed","0","2","no","right","d","522.468142615","632.502757344","25","red","3"
"98","88","20","621.608032317","1","1","2","146","3","right","in","Female","Right-handed","0","2","no","right","s","484.952872593","815.979412688","25","red","3"
"98","88","20","621.61749679","1","1","2","147","1","left","in","Female","Right-handed","0","2","no","left","d","627.608011066","616.781648198","25","red","0"
"98","88","20","620.881966585","1","1","2","148","1","left","in","Female","Right-handed","0","2","no","left","d","470.189737967","680.368449764","25","red","0"
"98","89","20","620.688375511","1","1","2","149","2","left","in","Female","Right-handed","0","2","no","left","s","583.931172081","633.053103604","25","red","3"
"100","0","20","442.934769535","1","0","3","150","0","left","out","Female","Right-handed","0","2","no","left","d","412.907544072","472.961994997","25","red","0"
"100","50","20","469.218533969","1","1","3","151","2","right","out","Female","Right-handed","0","2","no","right","s","453.483393561","537.521203245","25","green","3"
"100","66","20","480.860447348","1","1","3","152","3","right","out","Female","Right-handed","0","2","no","right","d","399.127078992","609.161469219","25","red","3"
"100","75","20","511.315372461","1","1","3","153","1","left","out","Female","Right-handed","0","2","no","left","d","580.539935861","624.820359735","25","red","2"
"100","80","20","526.924664461","1","1","3","154","1","right","in","Female","Right-handed","0","2","no","right","d","641.351914681","537.371750241","25","red","1"
"100","83","20","534.08939663","1","1","3","155","0","left","in","Female","Right-handed","0","2","no","left","d","538.974681825","600.85143313","25","red","3"
"100","85","20","531.207775918","1","1","3","156","2","left","out","Female","Right-handed","0","2","no","left","s","587.498801328","440.337301963","25","red","0"
"100","87","20","530.653280413","1","1","3","157","0","right","in","Female","Right-handed","0","2","no","right","d","444.194215783","609.349407976","25","red","3"
"100","88","20","534.176541915","1","1","3","158","1","right","out","Female","Right-handed","0","2","no","right","d","483.859877226","640.865390629","25","green","3"
"100","90","20","570.253736566","1","1","3","159","3","left","out","Female","Right-handed","0","2","no","left","s","613.478287782","1176.41868907","25","green","0"
"100","90","20","561.508614671","1","1","3","160","0","left","out","Female","Right-handed","0","2","no","left","d","515.003189506","433.111601949","25","green","0"
"100","91","20","573.272222235","1","1","3","161","3","right","out","Female","Right-handed","0","2","no","right","s","620.743435695","784.600375169","25","green","2"
"100","84","20","586.309307871","1","0","3","162","3","left","out","Female","Right-handed","0","2","no","left","d","516.395732317","969.112938685","25","red","3"
"100","85","20","597.136962408","1","1","3","163","0","right","in","Female","Right-handed","0","2","no","right","d","778.863753058","696.92918974","25","red","2"
"100","86","20","593.887083444","1","1","3","164","1","right","out","Female","Right-handed","0","2","no","right","s","648.245995799","448.53156008","25","green","1"
"100","87","20","609.240515347","1","1","3","165","3","right","in","Female","Right-handed","0","2","no","right","d","534.009057621","1145.07493016","25","green","1"
"100","88","20","599.621134179","1","1","3","166","2","right","in","Female","Right-handed","0","2","no","right","s","442.756131502","448.665939501","25","green","3"
"100","88","20","594.829152302","1","1","3","167","0","right","out","Female","Right-handed","0","2","no","right","s","529.285252229","497.445668541","25","green","0"
"100","89","20","586.231978646","1","1","3","168","3","left","in","Female","Right-handed","0","2","no","left","s","461.860138286","401.105567384","25","green","0"
"100","85","20","589.376625422","1","0","3","169","3","left","in","Female","Right-handed","0","2","no","left","s","681.621481719","616.628346615","25","green","3"
"100","85","20","602.531702753","1","1","3","170","2","right","out","Female","Right-handed","0","2","no","right","s","722.231647665","1009.03485109","25","red","1"
"100","86","20","600.400887423","1","1","3","171","3","right","in","Female","Right-handed","0","2","no","right","s","542.627621162","568.679909826","25","green","0"
"100","86","20","602.769250681","1","1","3","172","2","right","out","Female","Right-handed","0","2","no","right","s","701.413421331","608.333063399","25","green","2"
"100","87","20","596.13100192","1","1","3","173","1","left","in","Female","Right-handed","0","2","no","left","s","493.877718578","393.024842233","25","red","3"
"100","88","20","594.711884432","1","1","3","174","2","right","out","Female","Right-handed","0","2","no","right","d","424.626455682","696.679673783","25","red","0"
"100","88","20","595.500828048","1","1","3","175","0","left","in","Female","Right-handed","0","2","no","left","d","574.164770977","656.284065903","25","red","3"
"100","88","20","598.030486869","1","1","3","176","0","left","out","Female","Right-handed","0","2","no","left","d","430.842866841","896.760365576","25","red","1"
"100","89","20","593.898718511","1","1","3","177","2","right","in","Female","Right-handed","0","2","no","right","s","636.378914041","328.303031682","25","red","2"
"100","89","20","592.852844097","1","1","3","178","0","left","in","Female","Right-handed","0","2","no","left","d","535.040475788","592.096245167","25","red","3"
"100","86","20","590.849467149","1","0","3","179","1","right","in","Female","Right-handed","0","2","no","right","s","696.620020866","368.883050458","25","green","2"
"100","87","20","596.122672177","1","1","3","180","0","right","out","Female","Right-handed","0","2","no","right","d","820.338244863","688.299401194","25","red","1"
"100","87","20","595.430875259","1","1","3","181","1","left","out","Female","Right-handed","0","2","no","left","s","778.991076757","368.97926484","25","green","3"
"100","87","20","594.632193851","1","1","3","182","2","left","in","Female","Right-handed","0","2","no","left","d","497.573633667","640.575143913","25","green","3"
"100","88","20","597.176798396","1","1","3","183","1","right","in","Female","Right-handed","0","2","no","right","s","650.118006939","712.179489852","25","green","0"
"100","85","20","599.050588559","1","0","3","184","3","left","in","Female","Right-handed","0","2","no","left","s","636.700590789","688.818317423","25","red","0"
"100","83","20","600.46456223","1","0","3","185","3","left","out","Female","Right-handed","0","2","no","left","s","507.557158558","792.350122847","25","red","0"
"100","83","20","595.966004911","1","1","3","186","1","right","out","Female","Right-handed","0","2","no","right","s","523.091611805","344.94427103","25","green","0"
"100","84","20","593.394286888","1","1","3","187","1","right","in","Female","Right-handed","0","2","no","right","s","451.659489609","544.821950476","25","green","0"
"100","84","20","591.787207867","1","1","3","188","2","left","in","Female","Right-handed","0","2","no","left","d","437.154530238","624.281879915","25","red","0"
"100","82","20","591.000495664","1","0","3","189","0","left","out","Female","Right-handed","0","2","no","left","d","503.711469752","616.925969767","25","green","0"
"100","82","20","591.95043736","1","1","3","190","2","left","in","Female","Right-handed","0","2","no","left","s","555.41162597","704.48458437","25","green","0"
"100","83","20","594.750666311","1","1","3","191","2","left","out","Female","Right-handed","0","2","no","left","d","635.034478422","784.085628235","25","green","1"
"100","83","20","602.049104523","1","1","3","192","3","right","in","Female","Right-handed","0","2","no","right","d","704.633716661","1112.5333022","25","red","1"
"100","84","20","609.056107183","1","1","3","193","2","right","in","Female","Right-handed","0","2","no","right","s","692.293260152","1128.42118294","25","red","3"
"100","82","20","611.749693085","1","0","3","194","0","right","in","Female","Right-handed","0","2","no","right","d","683.807472458","776.727473087","25","green","1"
"100","82","20","613.730146354","1","1","3","195","1","left","in","Female","Right-handed","0","2","no","left","d","581.347815947","824.353270986","25","green","0"
"100","82","20","609.905956993","1","1","3","196","1","left","in","Female","Right-handed","0","2","no","left","s","451.952943469","416.033549314","25","red","1"
"100","83","20","608.940236277","1","1","3","197","2","left","in","Female","Right-handed","0","2","no","left","d","614.480841632","512.621883576","25","green","0"
"100","81","20","609.630049618","1","0","3","198","2","left","out","Female","Right-handed","0","2","no","left","s","397.167512765","888.314667209","25","green","0"
"100","82","20","609.063154158","1","1","3","199","0","left","out","Female","Right-handed","0","2","no","left","s","546.808456733","615.762096473","25","red","0"
"100","82","20","609.748983786","1","1","3","200","3","right","out","Female","Right-handed","0","2","no","right","s","687.591263348","600.489667057","25","red","1"
"100","82","20","610.882158575","1","1","3","201","1","left","in","Female","Right-handed","0","2","no","left","s","481.192173152","856.155972491","25","green","0"
"100","83","20","613.276606706","1","1","3","202","0","right","out","Female","Right-handed","0","2","no","right","d","770.769237184","704.806581835","25","green","2"
"100","83","20","612.147393447","1","1","3","203","0","right","in","Female","Right-handed","0","2","no","right","d","520.347898375","584.250283111","25","green","1"
"100","83","20","612.116586056","1","1","3","204","3","right","out","Female","Right-handed","0","2","no","right","s","548.962055291","671.943918562","25","red","2"
"100","83","20","613.767818617","1","1","3","205","1","right","out","Female","Right-handed","0","2","no","right","d","496.669859916","912.501359031","25","red","0"
"100","84","20","610.899205032","1","1","3","206","3","right","out","Female","Right-handed","0","2","no","right","s","436.127602075","464.386086504","25","red","0"
"100","84","20","610.56907179","1","1","3","207","1","left","out","Female","Right-handed","0","2","no","left","d","559.733575967","623.769377977","25","red","1"
"100","84","20","615.4384139","1","1","3","208","3","right","in","Female","Right-handed","0","2","no","right","s","499.292984656","1296.42752796","25","red","3"
"100","85","20","616.097454371","1","1","3","209","2","left","out","Female","Right-handed","0","2","no","left","s","526.024226139","783.937458087","25","green","1"
"100","85","20","615.875734595","1","1","3","210","0","left","out","Female","Right-handed","0","2","no","left","d","460.602937041","744.542159056","25","green","0"
"100","83","20","615.06707689","1","0","3","211","1","right","in","Female","Right-handed","0","2","no","right","s","723.240936524","408.236977302","25","red","3"
"98","84","20","621.61016691","0","1","3","212","3","left","in","Female","Right-handed","0","2","no","right","d","683.75968598","1370.80381022","25","green","1"
"98","84","20","624.542117264","1","1","3","213","2","left","in","Female","Right-handed","0","2","no","left","s","554.23716909","1064.2728101","25","red","1"
"100","100","20","527.194674083","1","1","4","214","0","right","out","Female","Right-handed","0","2","no","right","s","629.222809093","425.166539073","25","red","2"
"100","100","20","598.185492987","1","1","4","215","3","left","out","Female","Right-handed","0","2","no","left","d","793.795262853","544.557360929","25","red","3"
"100","66","20","595.053447622","1","0","4","216","2","right","in","Female","Right-handed","0","2","no","right","s","777.194433547","400.384280238","25","red","1"
"100","75","20","618.155509379","1","1","4","217","3","right","out","Female","Right-handed","0","2","no","right","d","893.961489233","480.961900066","25","green","1"
"100","80","20","669.338016193","1","1","4","218","3","left","out","Female","Right-handed","0","2","no","left","s","571.673780651","1176.46230625","25","red","3"
"100","83","20","656.315709744","1","1","4","219","2","right","out","Female","Right-handed","0","2","no","right","s","590.196331857","592.212023141","25","red","3"
"100","85","20","636.168364903","1","1","4","220","1","left","out","Female","Right-handed","0","2","no","left","d","621.764911706","408.803680009","25","green","1"
"100","87","20","636.873937031","1","1","4","221","1","left","in","Female","Right-handed","0","2","no","left","s","643.264656577","640.36122727","25","red","2"
"100","88","20","636.733660027","1","1","4","222","0","right","out","Female","Right-handed","0","2","no","right","d","502.086088138","769.136799852","25","red","3"
"100","90","20","641.732939666","1","1","4","223","2","left","in","Female","Right-handed","0","2","no","left","d","668.705663211","704.747249631","25","red","1"
"100","81","20","651.905772183","1","0","4","224","1","right","in","Female","Right-handed","0","2","no","right","d","603.229852626","904.038342072","25","red","0"
"100","83","20","649.310701465","1","1","4","225","3","left","out","Female","Right-handed","0","2","no","left","d","440.77411525","800.755731889","25","green","0"
"100","84","20","646.197135223","1","1","4","226","2","left","out","Female","Right-handed","0","2","no","left","d","537.411198136","680.257482509","25","red","0"
"100","78","20","647.261905945","1","0","4","227","0","right","in","Female","Right-handed","0","2","no","right","d","602.058282184","720.149568464","25","red","3"
"100","80","20","643.325795471","1","1","4","228","3","right","out","Female","Right-handed","0","2","no","right","d","519.711279885","656.729217775","25","green","3"
"100","81","20","632.579959362","1","1","4","229","1","left","out","Female","Right-handed","0","2","no","left","s","478.406446105","464.378389352","25","red","2"
"100","76","20","651.926450557","1","0","4","230","3","left","out","Female","Right-handed","0","2","no","left","s","561.793205146","1361.14741422","25","red","2"
"100","77","20","659.797636924","1","1","4","231","3","right","in","Female","Right-handed","0","2","no","right","s","546.668945877","1040.54666446","25","green","0"
"100","78","20","663.17750559","1","1","4","232","3","right","out","Female","Right-handed","0","2","no","right","s","896.033305569","551.996977585","25","green","1"
"100","75","20","678.696580572","1","0","4","233","2","right","in","Female","Right-handed","0","2","no","right","s","794.473894952","1152.64411551","25","red","0"
"100","71","20","670.343430513","1","0","4","234","1","left","in","Female","Right-handed","0","2","no","left","s","566.268456725","440.292401916","25","red","3"
"100","72","20","664.072969919","1","1","4","235","3","left","out","Female","Right-handed","0","2","no","left","s","528.873775391","535.912819505","25","green","1"
"100","73","20","665.593971602","1","1","4","236","2","right","in","Female","Right-handed","0","2","no","right","d","637.534448757","760.577568515","25","green","0"
"100","75","20","664.596266817","1","1","4","237","0","right","in","Female","Right-handed","0","2","no","right","d","539.05293619","744.245177335","25","red","1"
"100","76","20","663.540843165","1","1","4","238","2","left","out","Female","Right-handed","0","2","no","left","d","451.638322447","824.783028555","25","red","2"
"100","76","20","656.376518056","1","1","4","239","0","left","in","Female","Right-handed","0","2","no","left","d","506.27269657","448.264084101","25","green","0"
"100","74","20","654.339614837","1","0","4","240","3","left","out","Female","Right-handed","0","2","no","left","s","498.778237721","703.982024588","25","green","0"
"100","71","20","655.848037219","1","0","4","241","0","left","in","Female","Right-handed","0","2","no","left","d","608.64191156","784.508971508","25","red","2"
"100","72","20","651.601759873","1","1","4","242","2","left","in","Female","Right-handed","0","2","no","left","d","497.226941181","568.185047196","25","green","1"
"100","73","20","659.524437971","1","1","4","243","0","left","out","Female","Right-handed","0","2","no","left","s","466.711267378","1311.85293824","25","red","0"
"100","74","20","657.552993924","1","1","4","244","3","left","in","Female","Right-handed","0","2","no","left","s","620.410213221","576.409131772","25","green","0"
"100","75","20","654.30134308","1","1","4","245","1","right","out","Female","Right-handed","0","2","no","right","d","483.056807858","623.943526007","25","red","0"
"100","72","20","691.498106603","1","0","4","246","0","left","in","Female","Right-handed","0","2","no","left","None","763.504730701","3000.08434794","25","green","1"
"100","73","20","694.068995596","1","1","4","247","0","left","out","Female","Right-handed","0","2","no","left","d","541.944819772","1015.87184501","25","green","0"
"100","71","20","691.85180108","1","0","4","248","1","left","in","Female","Right-handed","0","2","no","left","s","408.46051538","824.473859677","25","red","0"
"100","72","20","688.402943012","1","1","4","249","2","right","out","Female","Right-handed","0","2","no","right","s","671.070933411","464.31488786","25","green","3"
"100","72","20","691.859376632","1","1","4","250","1","right","in","Female","Right-handed","0","2","no","right","s","736.915565787","895.666408062","25","green","1"
"100","73","20","685.852125113","1","1","4","251","1","right","out","Female","Right-handed","0","2","no","right","s","462.596819732","464.570818116","25","green","3"
"100","74","20","680.167065664","1","1","4","252","0","left","out","Female","Right-handed","0","2","no","left","s","440.145835346","488.123777879","25","green","0"
"100","75","20","676.532602884","1","1","4","253","2","right","out","Female","Right-handed","0","2","no","right","s","485.825537027","583.751571903","25","red","0"
"100","75","20","676.562642989","1","1","4","254","1","left","in","Female","Right-handed","0","2","no","left","d","435.278029094","920.250465279","25","green","0"
"100","76","20","673.881840371","1","1","4","255","3","left","out","Female","Right-handed","0","2","no","left","s","591.884573532","536.053292505","25","red","2"
"100","76","20","668.900154242","1","1","4","256","0","right","out","Female","Right-handed","0","2","no","right","d","479.677438078","439.661235577","25","green","0"
"97","77","20","668.371941443","0","1","4","257","3","right","out","Female","Right-handed","0","2","no","left","s","648.282557264","643.035024921","25","red","1"
"97","77","20","665.037347394","1","1","4","258","2","right","out","Female","Right-handed","0","2","no","right","s","524.760931319","511.869487116","25","red","2"
"97","78","20","664.338129908","1","1","4","259","2","right","in","Female","Right-handed","0","2","no","right","d","665.325331291","600.421354844","25","green","3"
"97","78","20","660.246044465","1","1","4","260","0","left","in","Female","Right-handed","0","2","no","left","s","455.872717354","488.147510758","25","red","1"
"97","79","20","657.559958798","1","1","4","261","3","left","in","Female","Right-handed","0","2","no","left","d","526.785923325","535.841941583","25","green","0"
"97","79","20","658.687717134","1","1","4","262","2","left","in","Female","Right-handed","0","2","no","left","s","633.331483877","792.308750664","25","green","0"
"98","80","20","659.841948636","1","1","4","263","1","right","in","Female","Right-handed","0","2","no","right","d","440.927416832","991.871167662","25","red","0"
"98","80","20","659.187841078","1","1","4","264","1","left","in","Female","Right-handed","0","2","no","left","d","533.39520987","719.569716461","25","red","3"
"98","80","20","655.610361706","1","1","4","265","2","right","in","Female","Right-handed","0","2","no","right","s","594.095900724","352.221926809","25","green","0"
"98","79","20","653.791009088","1","0","4","266","0","right","in","Female","Right-handed","0","2","no","right","s","422.730711664","695.638634181","25","green","0"
"98","79","20","654.876788042","1","1","4","267","2","right","out","Female","Right-handed","0","2","no","right","d","552.458806615","872.387338572","25","red","1"
"98","78","20","654.80501179","1","0","4","268","0","right","in","Female","Right-handed","0","2","no","right","d","413.921322935","887.936865405","25","green","3"
"98","78","20","651.7570361","1","1","4","269","1","left","in","Female","Right-handed","0","2","no","left","s","480.565817532","487.670928858","25","green","1"
"98","78","20","648.792158701","1","1","4","270","0","right","out","Female","Right-handed","0","2","no","right","s","453.212389719","512.30565898","25","green","3"
"98","77","20","647.345230127","1","0","4","271","0","right","in","Female","Right-handed","0","2","no","right","d","529.798074876","599.94252794","25","red","1"
"98","76","20","644.057071696","1","0","4","272","1","left","in","Female","Right-handed","0","2","no","left","s","507.253762546","399.434002869","25","red","3"
"98","76","20","641.932480275","1","1","4","273","1","left","out","Female","Right-handed","0","2","no","left","s","513.178323414","519.984849441","25","green","1"
"98","77","20","642.738145722","1","1","4","274","1","right","in","Female","Right-handed","0","2","no","right","d","582.504954237","799.651190799","25","red","0"
"98","77","20","642.619081358","1","1","4","275","3","left","out","Female","Right-handed","0","2","no","left","d","534.309567203","736.402743139","25","green","0"
"98","77","20","641.177669929","1","1","4","276","3","right","in","Female","Right-handed","0","2","no","right","s","495.722789692","607.897532966","25","green","3"
"98","78","20","637.942066996","1","1","4","277","2","right","out","Female","Right-handed","0","2","no","right","s","428.577980314","439.620184108","25","green","3"
"100","100","20","506.18594327","1","1","5","278","3","left","in","Female","Right-handed","0","2","no","left","s","652.168014683","360.203871856","25","green","0"
"100","100","20","508.532852559","1","1","5","279","3","left","out","Female","Right-handed","0","2","no","left","s","412.948595542","608.810928155","25","green","0"
"100","66","20","549.361238069","1","0","5","280","1","left","out","Female","Right-handed","0","2","no","left","d","549.632669528","712.403348647","25","green","2"
"100","75","20","538.903884078","1","1","5","281","0","left","out","Female","Right-handed","0","2","no","left","d","519.050928517","496.012715692","25","red","1"
"100","80","20","530.25602326","1","1","5","282","3","right","in","Female","Right-handed","0","2","no","right","s","422.56971293","568.759447051","25","green","3"
"83","83","20","554.83540873","0","1","5","283","3","right","out","Female","Right-handed","0","2","no","left","d","632.185570601","723.279101563","25","green","1"
"85","85","20","566.692670512","1","1","5","284","3","left","out","Female","Right-handed","0","2","no","left","d","787.82227408","487.850208319","25","red","0"
"87","87","20","577.463982146","1","1","5","285","2","left","out","Female","Right-handed","0","2","no","left","d","529.410651637","776.315675536","25","green","0"
"88","88","20","561.691431713","1","1","5","286","2","right","out","Female","Right-handed","0","2","no","right","s","391.112741767","479.909314738","25","red","0"
"90","90","20","564.204209251","1","1","5","287","3","left","in","Female","Right-handed","0","2","no","left","s","549.79912041","623.839293759","25","red","2"
"90","90","20","565.075660802","1","1","5","288","2","left","out","Female","Right-handed","0","2","no","left","s","643.178384351","504.40196829","25","green","1"
"91","91","20","591.322681546","1","1","5","289","0","left","out","Female","Right-handed","0","2","no","left","s","824.032877096","936.046942355","25","red","3"
"92","92","20","593.535809673","1","1","5","290","3","right","out","Female","Right-handed","0","2","no","right","d","479.561018681","760.625675706","25","green","3"
"92","92","20","593.44494171","1","1","5","291","2","left","in","Female","Right-handed","0","2","no","left","d","600.229888227","584.297428159","25","green","3"
"93","86","20","609.331105863","1","0","5","292","2","left","in","Female","Right-handed","0","2","no","left","d","423.764374831","1239.7104332","25","red","3"
"93","87","20","599.556808498","1","1","5","293","2","left","out","Female","Right-handed","0","2","no","left","s","513.342208575","392.542487469","25","red","0"
"94","88","20","597.728748229","1","1","5","294","2","right","out","Female","Right-handed","0","2","no","right","s","537.076051373","599.883516454","25","green","2"
"94","88","20","591.502157002","1","1","5","295","1","right","in","Female","Right-handed","0","2","no","right","d","419.529338491","551.77087379","25","red","3"
"94","89","20","600.334145793","1","1","5","296","0","right","out","Female","Right-handed","0","2","no","right","d","502.337207672","1016.28268042","25","red","3"
"95","85","20","601.81237426","1","0","5","297","3","right","out","Female","Right-handed","0","2","no","right","s","435.964358345","823.833071899","25","green","3"
"95","85","20","601.34110324","1","1","5","298","1","left","out","Female","Right-handed","0","2","no","left","d","615.376276805","568.455088891","25","green","1"
"95","86","20","596.58347981","1","1","5","299","0","left","out","Female","Right-handed","0","2","no","left","d","505.117161855","488.229613697","25","red","0"
"95","86","20","604.25837739","1","1","5","300","1","right","out","Female","Right-handed","0","2","no","right","d","674.579230461","871.633017825","25","green","1"
"95","87","20","628.175876361","1","1","5","301","0","right","in","Female","Right-handed","0","2","no","right","d","500.288482784","1856.2682226","25","red","1"
"96","88","20","624.701182186","1","1","5","302","1","right","in","Female","Right-handed","0","2","no","right","d","554.863203997","527.753839997","25","red","3"
"96","88","20","622.03536663","1","1","5","303","1","left","in","Female","Right-handed","0","2","no","left","s","630.3847581","480.395197363","25","red","2"
"96","88","20","627.107268665","1","1","5","304","2","right","in","Female","Right-handed","0","2","no","right","s","654.128543054","863.824900091","25","green","3"
"96","89","20","628.376907147","1","1","5","305","3","left","in","Female","Right-handed","0","2","no","left","d","781.633444374","543.68084792","25","red","0"
"96","89","20","624.529156402","1","1","5","306","0","right","out","Female","Right-handed","0","2","no","right","d","449.306085847","584.278185281","25","green","0"
"96","90","20","624.890318278","1","1","5","307","1","left","out","Female","Right-handed","0","2","no","left","d","486.793132986","783.93489237","25","red","3"
"96","90","20","623.74660724","1","1","5","308","0","left","in","Female","Right-handed","0","2","no","left","d","515.433909219","663.43664299","25","green","2"
"96","90","20","627.914393735","1","1","5","309","1","left","out","Female","Right-handed","0","2","no","left","d","474.045368927","1040.18618124","25","green","0"
"96","90","20","636.935679452","1","1","5","310","2","right","in","Female","Right-handed","0","2","no","right","s","1139.55126254","711.682382214","25","red","1"
"97","91","20","636.827914486","1","1","5","311","1","left","out","Female","Right-handed","0","2","no","left","d","506.188990061","760.35435115","25","green","1"
"97","91","20","632.948765979","1","1","5","312","0","left","in","Female","Right-handed","0","2","no","left","s","474.078081818","528.037351705","25","red","1"
"97","91","20","631.105617626","1","1","5","313","1","right","out","Female","Right-handed","0","2","no","right","s","437.667352886","695.523497638","25","red","0"
"97","91","20","626.663762264","1","1","5","314","0","left","in","Female","Right-handed","0","2","no","left","s","453.283267645","480.230670772","25","red","0"
"97","92","20","628.323529566","1","1","5","315","3","right","in","Female","Right-handed","0","2","no","right","s","739.741061443","639.728778074","25","green","1"
"97","92","20","633.570510828","1","1","5","316","3","right","out","Female","Right-handed","0","2","no","right","d","722.549475839","943.362121743","25","red","1"
"97","92","20","632.234355301","1","1","5","317","0","left","out","Female","Right-handed","0","2","no","left","s","680.086541627","480.162037846","25","green","1"
"97","92","20","630.928025174","1","1","5","318","0","right","in","Female","Right-handed","0","2","no","right","d","445.656032949","711.693607231","25","green","0"
"97","92","20","633.364708385","1","1","5","319","2","left","in","Female","Right-handed","0","2","no","left","d","530.395245471","936.142194591","25","red","0"
"97","93","20","628.074311453","1","1","5","320","3","left","in","Female","Right-handed","0","2","no","left","s","467.914267854","343.841012793","25","green","2"
"97","93","20","629.050946156","1","1","5","321","2","right","in","Female","Right-handed","0","2","no","right","s","734.553182021","607.539294753","25","green","3"
"97","91","20","624.720100784","1","0","5","322","1","left","in","Female","Right-handed","0","2","no","left","s","524.204491481","344.121317354","25","red","1"
"97","91","20","623.558368684","1","1","5","323","3","left","in","Female","Right-handed","0","2","no","left","s","582.813160974","559.747687406","25","green","0"
"97","91","20","622.097393805","1","1","5","324","0","right","in","Female","Right-handed","0","2","no","right","s","438.447651519","671.337447246","25","green","0"
"97","91","20","619.582762862","1","1","5","325","2","left","in","Female","Right-handed","0","2","no","left","d","506.82657069","495.963646357","25","green","0"
"97","91","20","618.033230392","1","1","5","326","0","right","out","Female","Right-handed","0","2","no","right","s","655.712231768","431.599111878","25","red","2"
"98","92","20","616.828783622","1","1","5","327","2","left","out","Female","Right-handed","0","2","no","left","d","572.29436341","543.327420426","25","red","0"
"98","92","20","615.536077572","1","1","5","328","3","right","in","Female","Right-handed","0","2","no","right","s","741.901395013","359.90015513","25","red","1"
"98","92","20","614.363638947","1","1","5","329","1","right","out","Female","Right-handed","0","2","no","right","d","461.503503648","647.635034478","25","red","0"
"98","92","20","619.159616881","1","1","5","330","1","right","out","Female","Right-handed","0","2","no","right","s","457.03466636","1280.06627247","25","green","0"
"98","92","20","615.949574946","1","1","5","331","0","left","out","Female","Right-handed","0","2","no","left","s","443.845278296","447.789426486","25","red","3"
"98","92","20","615.175092534","1","1","5","332","3","right","in","Female","Right-handed","0","2","no","right","s","483.490414001","663.215670629","25","green","3"
"98","92","20","615.760263818","1","1","5","333","2","right","out","Female","Right-handed","0","2","no","right","d","743.970966348","551.918402511","25","green","1"
"98","92","20","612.336448142","1","1","5","334","1","right","in","Female","Right-handed","0","2","no","right","s","465.564391958","375.641148585","25","green","0"
"98","93","20","608.221485129","1","1","5","335","0","right","out","Female","Right-handed","0","2","no","right","s","412.080741826","335.256445","25","red","0"
"98","91","20","606.469186994","1","0","5","336","3","right","out","Female","Right-handed","0","2","no","right","s","449.878882133","559.792908163","25","red","0"
"98","91","20","607.360576542","1","1","5","337","0","left","in","Female","Right-handed","0","2","no","left","d","648.470175307","671.434944485","25","green","3"
"98","91","20","608.615973111","1","1","5","338","2","right","in","Female","Right-handed","0","2","no","right","d","656.948265849","710.931268615","25","red","2"
"98","91","20","607.286659585","1","1","5","339","1","left","in","Female","Right-handed","0","2","no","left","s","532.763402102","519.633666954","25","green","0"
"98","92","20","605.517700796","1","1","5","340","1","right","in","Female","Right-handed","0","2","no","right","s","472.381180851","519.303330908","25","red","3"
"98","90","20","607.273993622","1","0","5","341","2","right","in","Female","Right-handed","0","2","no","right","s","804.012267977","631.828615249","25","red","1"
"100","100","20","503.282032894","1","1","6","342","2","left","out","Female","Right-handed","0","2","no","left","d","646.159747303","360.404318486","25","green","0"
"100","50","20","730.235240954","1","0","6","343","0","right","in","Female","Right-handed","0","2","no","right","d","1306.73369174","607.643206287","25","red","1"
"100","33","20","686.316369348","1","0","6","344","3","left","in","Female","Right-handed","0","2","no","left","d","645.467645187","551.489607085","25","red","1"
"100","50","20","643.382078211","1","1","6","345","0","right","in","Female","Right-handed","0","2","no","right","d","453.077368868","576.08104073","25","green","3"
"100","60","20","653.855839427","1","1","6","346","0","right","in","Female","Right-handed","0","2","no","right","d","671.711079758","719.790688821","25","red","2"
"100","66","20","613.600132604","1","1","6","347","0","right","in","Female","Right-handed","0","2","no","right","s","424.239994587","400.403202399","25","green","0"
"100","71","20","623.850976935","1","1","6","348","0","right","in","Female","Right-handed","0","2","no","right","s","522.888920175","847.823165666","25","red","3"
"100","75","20","626.946577285","1","1","6","349","1","left","in","Female","Right-handed","0","2","no","left","s","809.660372855","487.571186615","25","green","3"
"100","66","20","610.135158755","1","0","6","350","0","right","out","Female","Right-handed","0","2","no","right","s","583.150232022","368.137389007","25","green","1"
"100","60","20","619.461715816","1","0","6","351","2","right","in","Female","Right-handed","0","2","no","right","s","518.946054839","887.855403896","25","green","0"
"100","63","20","610.828587462","1","1","6","352","3","left","out","Female","Right-handed","0","2","no","left","s","465.478440441","583.516167386","25","red","3"
"100","66","20","597.476246005","1","1","6","353","3","left","in","Female","Right-handed","0","2","no","left","s","469.196484839","432.004495135","25","green","3"
"100","69","20","584.567062792","1","1","6","354","2","right","out","Female","Right-handed","0","2","no","right","s","411.651625687","447.66210279","25","green","3"
"100","71","20","584.938296114","1","1","6","355","2","left","in","Female","Right-handed","0","2","no","left","d","475.380824537","704.14783404","25","red","2"
"100","73","20","580.105346195","1","1","6","356","0","right","in","Female","Right-handed","0","2","no","right","s","664.929890183","359.958204474","25","green","0"
"100","75","20","585.06617104","1","1","6","357","2","right","out","Female","Right-handed","0","2","no","right","d","791.421654074","527.535433353","25","red","1"
"100","76","20","576.0090969","1","1","6","358","3","right","in","Female","Right-handed","0","2","no","right","s","406.02340511","456.168416218","25","red","0"
"100","77","20","572.35525464","1","1","6","359","1","right","in","Female","Right-handed","0","2","no","right","d","540.770362892","479.709509542","25","green","1"
"100","78","20","565.751971175","1","1","6","360","1","right","out","Female","Right-handed","0","2","no","right","s","502.351639829","391.434097797","25","green","2"
"100","80","20","568.719429885","1","1","6","361","3","left","out","Female","Right-handed","0","2","no","left","s","538.079246653","712.123044079","25","red","2"
"100","80","20","567.358076953","1","1","6","362","3","left","out","Female","Right-handed","0","2","no","left","d","632.615007453","447.647029203","25","green","0"
"100","81","20","558.94695051","1","1","6","363","1","right","out","Female","Right-handed","0","2","no","right","s","460.292164589","304.334425793","25","green","0"
"100","82","20","562.707541566","1","1","6","364","2","left","out","Female","Right-handed","0","2","no","left","s","602.982260952","687.898828652","25","red","1"
"100","83","20","560.203162278","1","1","6","365","3","left","out","Female","Right-handed","0","2","no","left","s","493.644879775","511.559997521","25","green","0"
"100","84","20","558.040331144","1","1","6","366","3","left","in","Female","Right-handed","0","2","no","left","d","525.148033844","487.116734021","25","red","1"
"100","80","20","557.72162224","1","0","6","367","2","left","out","Female","Right-handed","0","2","no","left","s","451.656282461","647.851516838","25","red","3"
"100","81","20","556.93406413","1","1","6","368","3","left","in","Female","Right-handed","0","2","no","left","s","497.464590702","575.450515818","25","green","2"
"100","78","20","555.02691162","1","0","6","369","0","right","in","Female","Right-handed","0","2","no","right","s","447.130999408","559.93658831","25","green","0"
"100","79","20","551.235523703","1","1","6","370","2","left","in","Female","Right-handed","0","2","no","left","s","490.553832428","399.599491604","25","red","2"
"100","80","20","553.735400403","1","1","6","371","2","right","out","Female","Right-handed","0","2","no","right","d","565.318820783","687.144828622","25","red","0"
"100","80","20","549.757070585","1","1","6","372","1","left","in","Female","Right-handed","0","2","no","left","s","508.99941213","351.814939979","25","green","0"
"100","81","20","554.312521989","1","1","6","373","1","right","out","Female","Right-handed","0","2","no","right","d","447.598922012","943.464108991","25","red","3"
"100","81","20","552.453286436","1","1","6","374","0","left","in","Female","Right-handed","0","2","no","left","d","450.894264563","535.02123291","25","red","1"
"100","82","20","552.241347964","1","1","6","375","3","left","in","Female","Right-handed","0","2","no","left","d","426.636374101","663.858382693","25","green","0"
"100","82","20","550.889229345","1","1","6","376","2","left","in","Female","Right-handed","0","2","no","left","d","426.366011692","583.468380908","25","green","0"
"100","80","20","562.530977912","1","0","6","377","3","right","out","Female","Right-handed","0","2","no","right","d","629.082336097","1310.90201945","25","green","3"
"100","81","20","568.817275359","1","1","6","378","1","right","in","Female","Right-handed","0","2","no","right","s","694.659171782","895.588795131","25","red","0"
"100","81","20","567.877144295","1","1","6","379","1","left","in","Female","Right-handed","0","2","no","left","s","507.076728081","559.107861773","25","red","1"
"100","82","20","566.578127232","1","1","6","380","0","right","out","Female","Right-handed","0","2","no","right","s","474.648953812","559.782003867","25","green","0"
"100","82","20","564.274994972","1","1","6","381","3","left","out","Female","Right-handed","0","2","no","left","s","461.508314366","487.397359299","25","green","3"
"100","82","20","562.00099301","1","1","6","382","2","right","out","Female","Right-handed","0","2","no","right","s","477.976367823","464.105461226","25","green","3"
"100","80","20","562.885123831","1","0","6","383","2","right","in","Female","Right-handed","0","2","no","right","d","742.667261485","455.601713514","25","green","1"
"100","79","20","562.324733664","1","0","6","384","3","left","out","Female","Right-handed","0","2","no","left","s","534.226502124","543.350191161","25","red","0"
"100","79","20","560.782644366","1","1","6","385","1","right","in","Female","Right-handed","0","2","no","right","d","412.946671255","575.998937791","25","green","0"
"100","80","20","560.410793357","1","1","6","386","0","left","out","Female","Right-handed","0","2","no","left","s","592.546849188","495.551848806","25","red","2"
"100","80","20","559.793838935","1","1","6","387","1","left","out","Female","Right-handed","0","2","no","left","d","561.105272325","502.956507571","25","red","2"
"100","80","20","560.696821805","1","1","6","388","3","right","in","Female","Right-handed","0","2","no","right","s","828.732308179","375.73575939","25","red","1"
"100","81","20","566.700836803","1","1","6","389","0","left","out","Female","Right-handed","0","2","no","left","d","466.366178465","1231.41290498","25","red","3"
"100","81","20","568.236338623","1","1","6","390","2","right","out","Female","Right-handed","0","2","no","right","d","572.884798992","710.996052967","25","red","1"
"100","80","20","565.90269134","1","0","6","391","3","right","out","Female","Right-handed","0","2","no","right","s","511.527605351","391.580343658","25","red","0"
"100","80","20","565.964494742","1","1","6","392","1","left","out","Female","Right-handed","0","2","no","left","s","547.129812763","590.979516921","25","green","3"
"100","80","20","564.836503025","1","1","6","393","1","left","in","Female","Right-handed","0","2","no","left","d","518.778000391","495.839850522","25","green","0"
"100","81","20","565.582069986","1","1","6","394","2","left","in","Female","Right-handed","0","2","no","left","s","425.412527177","783.290576732","25","red","3"
"100","81","20","563.240875233","1","1","6","395","0","left","in","Female","Right-handed","0","2","no","left","d","503.119109879","375.195996712","25","green","3"
"100","81","20","566.558954181","1","1","6","396","0","right","in","Female","Right-handed","0","2","no","right","d","491.697500703","999.772934061","25","red","0"
"100","80","20","568.348814952","1","0","6","397","3","right","out","Female","Right-handed","0","2","no","right","d","622.244380036","711.337934732","25","red","1"
"100","80","20","568.340306822","1","1","6","398","1","right","out","Female","Right-handed","0","2","no","right","d","416.817055091","718.910647949","25","red","0"
"100","81","20","565.447656816","1","1","6","399","1","left","in","Female","Right-handed","0","2","no","left","s","457.605538355","343.527674621","25","red","1"
"100","81","20","564.391012461","1","1","6","400","0","left","out","Female","Right-handed","0","2","no","left","d","503.05528767","503.155992057","25","green","1"
"100","81","20","565.123858376","1","1","6","401","0","left","out","Female","Right-handed","0","2","no","left","d","505.767250357","710.956284354","25","green","0"
"100","80","20","566.021325092","1","0","6","402","2","left","out","Female","Right-handed","0","2","no","left","s","440.46815352","799.270502564","25","green","0"
"100","80","20","569.06251459","1","1","6","403","1","right","out","Female","Right-handed","0","2","no","right","s","710.037116299","799.113031695","25","green","1"
"100","80","20","568.174756328","1","1","6","404","2","right","in","Female","Right-handed","0","2","no","right","d","458.541062853","567.72642531","25","red","0"
"100","81","20","568.854989934","1","1","6","405","1","right","out","Female","Right-handed","0","2","no","right","d","568.094926392","655.324487809","25","red","3"
"100","100","20","552.968261762","1","1","7","406","0","right","out","Female","Right-handed","0","2","no","right","d","625.900526517","480.035997007","25","red","2"
"100","100","20","481.830074498","1","1","7","407","2","left","out","Female","Right-handed","0","2","no","left","s","445.699970846","375.683803624","25","red","2"
"100","100","20","449.810837182","1","1","7","408","0","left","out","Female","Right-handed","0","2","no","left","s","403.272315241","368.272409854","25","green","3"
"100","100","20","464.839977844","1","1","7","409","0","left","in","Female","Right-handed","0","2","no","left","s","507.948109658","511.906690008","25","green","1"
"100","100","20","486.674019583","1","1","7","410","2","right","in","Female","Right-handed","0","2","no","right","s","652.470448556","495.549924523","25","green","1"
"100","100","20","481.407426104","1","1","7","411","3","right","in","Female","Right-handed","0","2","no","right","s","461.929091926","448.219825488","25","red","2"
"100","100","20","481.100242602","1","1","7","412","0","left","in","Female","Right-handed","0","2","no","left","s","494.664431498","463.849851687","25","red","3"
"100","100","20","480.88925821","1","1","7","413","2","left","out","Female","Right-handed","0","2","no","left","d","519.406921729","439.417813195","25","red","0"
"100","100","20","505.023085572","1","1","7","414","2","right","in","Female","Right-handed","0","2","no","right","d","868.168658679","528.018750258","25","red","1"
"100","100","20","501.982898215","1","1","7","415","3","right","in","Female","Right-handed","0","2","no","right","d","469.585190942","479.65723306","25","red","0"
"100","100","20","499.514277733","1","1","7","416","3","right","out","Female","Right-handed","0","2","no","right","d","406.319745406","543.336400434","25","green","0"
"100","100","20","515.459686656","1","1","7","417","0","right","out","Female","Right-handed","0","2","no","right","d","677.773227195","703.94514241","25","red","2"
"100","100","20","510.49619952","1","1","7","418","1","right","in","Female","Right-handed","0","2","no","right","d","470.481267541","431.38744024","25","red","0"
"100","100","20","516.680939231","1","1","7","419","0","right","out","Female","Right-handed","0","2","no","right","s","483.098500757","711.06661018","25","red","3"
"100","100","20","520.377179617","1","1","7","420","2","right","out","Female","Right-handed","0","2","no","right","d","608.712148059","535.536941992","25","green","1"
"100","100","20","522.095201645","1","1","7","421","1","left","in","Female","Right-handed","0","2","no","left","s","536.529232974","559.201831155","25","red","3"
"100","100","20","534.113252137","1","1","7","422","3","right","in","Female","Right-handed","0","2","no","right","d","748.788099692","704.016020336","25","green","1"
"100","100","20","533.467317205","1","1","7","423","2","left","in","Female","Right-handed","0","2","no","left","s","549.442165054","495.530681641","25","red","2"
"100","100","20","541.690425571","1","1","7","424","1","left","in","Female","Right-handed","0","2","no","left","d","476.217889653","903.194862666","25","red","1"
"100","100","20","534.347138921","1","1","7","425","0","left","in","Female","Right-handed","0","2","no","left","s","445.865459584","343.783925593","25","red","1"
"100","100","20","532.90208826","1","1","7","426","1","left","out","Female","Right-handed","0","2","no","left","d","520.519480684","487.482669385","25","green","3"
"100","100","20","556.911076074","1","1","7","427","2","right","out","Female","Right-handed","0","2","no","right","d","587.082513775","1535.11712658","25","green","1"
"100","100","20","556.396421991","1","1","7","428","3","right","in","Female","Right-handed","0","2","no","right","s","522.537416971","567.61064734","25","red","0"
"100","100","20","555.306725567","1","1","7","429","0","right","in","Female","Right-handed","0","2","no","right","d","517.301430355","543.185985283","25","green","1"
"100","100","20","554.629204208","1","1","7","430","3","right","in","Female","Right-handed","0","2","no","right","d","460.93166951","615.805713656","25","green","0"
"100","100","20","551.744655372","1","1","7","431","2","left","in","Female","Right-handed","0","2","no","left","s","439.616656251","519.645212676","25","green","0"
"100","100","20","551.778951047","1","1","7","432","1","left","in","Female","Right-handed","0","2","no","left","s","465.999601671","639.341675546","25","green","0"
"100","100","20","553.726270728","1","1","7","433","1","left","in","Female","Right-handed","0","2","no","left","s","580.758663225","631.849140984","25","red","2"
"100","96","20","551.45630253","1","0","7","434","2","right","out","Female","Right-handed","0","2","no","right","s","480.372747341","495.42163868","25","green","0"
"100","96","20","550.607032566","1","1","7","435","1","right","out","Female","Right-handed","0","2","no","right","d","500.952362014","551.004045174","25","red","0"
"100","96","20","550.736993365","1","1","7","436","3","right","in","Female","Right-handed","0","2","no","right","s","485.727077645","623.544557038","25","green","0"
"100","96","20","556.909368178","1","1","7","437","3","left","out","Female","Right-handed","0","2","no","left","s","777.29353436","719.212440392","25","green","1"
"100","96","20","557.711057348","1","1","7","438","0","left","out","Female","Right-handed","0","2","no","left","d","471.879903926","694.850317683","25","red","0"
"100","97","20","569.80634441","1","1","7","439","3","right","out","Female","Right-handed","0","2","no","right","d","1146.50595872","791.395676191","25","red","3"
"100","97","20","571.02990485","1","1","7","440","2","left","out","Female","Right-handed","0","2","no","left","s","746.227835014","479.034084586","25","green","0"
"100","97","20","570.826020595","1","1","7","441","0","right","in","Female","Right-handed","0","2","no","right","d","487.635008819","639.745134518","25","red","0"
"100","97","20","569.16312272","1","1","7","442","3","right","in","Female","Right-handed","0","2","no","right","s","443.374148541","575.223449883","25","green","3"
"100","97","20","565.844003607","1","1","7","443","2","left","in","Female","Right-handed","0","2","no","left","d","422.997866928","463.075325919","25","green","0"
"100","94","20","561.543158774","1","0","7","444","0","left","in","Female","Right-handed","0","2","no","left","s","372.586662699","423.635447558","25","green","0"
"100","95","20","564.371822721","1","1","7","445","1","right","out","Female","Right-handed","0","2","no","right","d","646.19149805","703.187935229","25","green","3"
"100","92","20","564.894480163","1","0","7","446","1","left","in","Female","Right-handed","0","2","no","left","s","411.845658022","759.755897699","25","red","0"
"100","92","20","562.90835655","1","1","7","447","1","left","out","Female","Right-handed","0","2","no","left","s","515.457962814","447.496614055","25","red","2"
"100","93","20","561.851985422","1","1","7","448","1","right","in","Female","Right-handed","0","2","no","right","s","451.858332664","583.110463412","25","green","3"
"100","93","20","564.334813713","1","1","7","449","3","left","out","Female","Right-handed","0","2","no","left","s","854.574849495","487.61801095","25","green","1"
"100","93","20","561.664199481","1","1","7","450","0","left","in","Female","Right-handed","0","2","no","left","s","521.165720613","367.148625883","25","green","3"
"100","93","20","561.571960876","1","1","7","451","1","right","out","Female","Right-handed","0","2","no","right","s","667.850638078","446.991809269","25","green","1"
"100","93","20","561.817405453","1","1","7","452","2","right","in","Female","Right-handed","0","2","no","right","s","498.706718361","647.508993639","25","red","3"
"100","93","20","562.543613845","1","1","7","453","2","left","in","Female","Right-handed","0","2","no","left","d","658.195204225","535.155612328","25","red","3"
"100","91","20","561.343370191","1","0","7","454","0","left","out","Female","Right-handed","0","2","no","left","s","568.627633347","438.835716188","25","green","0"
"100","92","20","560.741601206","1","1","7","455","2","left","in","Female","Right-handed","0","2","no","left","d","455.176766663","607.333075266","25","green","0"
"100","90","20","565.510299979","1","0","7","456","3","right","out","Female","Right-handed","0","2","no","right","s","825.125231036","782.765246211","25","red","1"
"100","90","20","567.375239737","1","1","7","457","1","left","out","Female","Right-handed","0","2","no","left","s","470.541241171","854.433093642","25","green","0"
"100","90","20","566.967859635","1","1","7","458","3","right","in","Female","Right-handed","0","2","no","right","d","532.270463759","559.29772482","25","red","3"
"100","88","20","568.030637961","1","0","7","459","3","right","in","Female","Right-handed","0","2","no","right","d","521.731461173","726.984317378","25","green","3"
"100","89","20","567.564586892","1","1","7","460","0","left","out","Female","Right-handed","0","2","no","left","s","533.282639048","551.513019247","25","red","1"
"100","89","20","565.209265248","1","1","7","461","1","left","in","Female","Right-handed","0","2","no","left","s","472.116591304","399.216558366","25","green","1"
"100","89","20","565.88540533","1","1","7","462","2","right","out","Female","Right-handed","0","2","no","right","d","424.682260022","782.816239833","25","red","3"
"100","89","20","566.74529022","1","1","7","463","3","left","out","Female","Right-handed","0","2","no","left","d","504.333976794","727.183481144","25","red","2"
"100","89","20","569.694726935","1","1","7","464","1","left","out","Female","Right-handed","0","2","no","left","s","402.648204625","1078.87590814","25","green","1"
"100","90","20","567.676407197","1","1","7","465","0","left","out","Female","Right-handed","0","2","no","left","s","418.680727649","478.51035764","25","red","0"
"100","88","20","568.265533416","1","0","7","466","3","left","out","Female","Right-handed","0","2","no","left","s","568.04617777","639.180035389","25","red","0"
"100","88","20","572.344265567","1","1","7","467","0","right","out","Female","Right-handed","0","2","no","right","s","419.543449934","1222.75040354","25","green","0"
"100","87","20","573.671634093","1","0","7","468","2","right","out","Female","Right-handed","0","2","no","right","s","497.450158546","814.486806921","25","red","3"
"100","87","20","572.027546398","1","1","7","469","1","right","out","Female","Right-handed","0","2","no","right","s","401.932690343","534.967352855","25","green","0"
"100","100","20","613.73277482","1","1","8","470","1","right","out","Female","Right-handed","0","2","no","right","d","539.677688237","687.787861403","25","green","0"
"100","100","20","610.037260623","1","1","8","471","2","left","in","Female","Right-handed","0","2","no","left","s","453.389744896","759.293747957","25","red","3"
"100","100","20","665.021828371","1","1","8","472","3","right","in","Female","Right-handed","0","2","no","right","d","1022.96925919","527.01266855","25","red","1"
"100","100","20","615.668568077","1","1","8","473","3","left","in","Female","Right-handed","0","2","no","left","d","495.522663779","439.694910612","25","green","0"
"100","100","20","587.391394009","1","1","8","474","2","left","out","Female","Right-handed","0","2","no","left","d","501.253833743","447.311561729","25","green","1"
"100","100","20","555.717186808","1","1","8","475","1","right","in","Female","Right-handed","0","2","no","right","s","410.77831982","383.913981779","25","green","0"
"100","100","20","542.913973485","1","1","8","476","3","right","out","Female","Right-handed","0","2","no","right","d","380.530121994","551.659265107","25","green","0"
"100","87","20","687.876538989","1","0","8","477","0","right","in","Female","Right-handed","0","2","no","right","None","405.134063512","3000.09493153","25","green","3"
"100","88","20","670.717630641","1","1","8","478","0","right","out","Female","Right-handed","0","2","no","right","d","491.495771217","575.396956483","25","green","0"
"100","90","20","674.915435577","1","1","8","479","1","right","out","Female","Right-handed","0","2","no","right","s","658.246839277","767.144520734","25","red","3"
"100","90","20","678.398635249","1","1","8","480","2","right","out","Female","Right-handed","0","2","no","right","d","706.68725227","719.774011664","25","green","1"
"100","91","20","668.767547766","1","1","8","481","1","right","out","Female","Right-handed","0","2","no","right","d","662.346854766","463.304316145","25","red","2"
"100","92","20","682.832006656","1","1","8","482","0","left","out","Female","Right-handed","0","2","no","left","s","752.051050069","951.159976612","25","red","0"
"100","85","20","682.284524801","1","0","8","483","0","right","out","Female","Right-handed","0","2","no","right","s","438.630138127","911.704383237","25","red","0"
"100","86","20","676.377605526","1","1","8","484","3","left","in","Female","Right-handed","0","2","no","left","d","516.120559187","671.240912154","25","red","1"
"100","81","20","679.283472262","1","0","8","485","0","left","in","Female","Right-handed","0","2","no","left","s","461.892851177","983.850095429","25","red","1"
"100","76","20","689.904549486","1","0","8","486","0","right","out","Female","Right-handed","0","2","no","right","d","592.33934684","1127.34422331","25","red","3"
"100","77","20","679.712534949","1","1","8","487","0","left","out","Female","Right-handed","0","2","no","left","d","437.971069619","574.925506015","25","red","1"
"100","78","20","677.547562271","1","1","8","488","0","right","in","Female","Right-handed","0","2","no","right","d","501.633880547","775.522227607","25","green","3"
"100","75","20","687.654564394","1","0","8","489","0","right","in","Female","Right-handed","0","2","no","right","d","536.193444783","1223.18176468","25","red","1"
"100","76","20","689.614224163","1","1","8","490","2","right","in","Female","Right-handed","0","2","no","right","d","714.840779634","742.774059447","25","green","1"
"100","77","20","680.448570104","1","1","8","491","3","right","out","Female","Right-handed","0","2","no","right","s","488.470149649","487.469520085","25","red","3"
"100","73","20","684.099866568","1","0","8","492","0","right","out","Female","Right-handed","0","2","no","right","d","721.963209548","806.893567973","25","red","0"
"100","75","20","675.435351366","1","1","8","493","2","left","in","Female","Right-handed","0","2","no","left","s","449.720128399","502.582875059","25","green","0"
"100","76","20","672.686129126","1","1","8","494","2","left","out","Female","Right-handed","0","2","no","left","s","398.074493667","815.33509705","25","red","0"
"100","76","20","664.615435683","1","1","8","495","1","left","in","Female","Right-handed","0","2","no","left","s","510.920492605","414.775706638","25","red","1"
"100","77","20","658.650066622","1","1","8","496","1","right","out","Female","Right-handed","0","2","no","right","s","639.483752118","367.617189917","25","green","2"
"100","78","20","652.294084158","1","1","8","497","3","right","in","Female","Right-handed","0","2","no","right","s","442.211878821","519.153236473","25","red","0"
"100","79","20","647.22156147","1","1","8","498","3","left","in","Female","Right-handed","0","2","no","left","s","467.758079841","542.623772584","25","green","0"
"100","80","20","642.840351157","1","1","8","499","1","left","in","Female","Right-handed","0","2","no","left","s","448.349073471","583.221430664","25","green","0"
"100","80","20","637.217686186","1","1","8","500","3","right","out","Female","Right-handed","0","2","no","right","s","529.991465784","407.084008304","25","red","2"
"100","81","20","632.873333046","1","1","8","501","0","left","out","Female","Right-handed","0","2","no","left","d","477.616205324","518.780566105","25","green","2"
"100","81","20","626.686073205","1","1","8","502","2","left","in","Female","Right-handed","0","2","no","left","d","426.163320062","431.224196505","25","green","0"
"100","82","20","622.253095929","1","1","8","503","1","left","out","Female","Right-handed","0","2","no","left","s","504.943334541","446.986357121","25","red","3"
"100","82","20","635.231887425","1","1","8","504","1","left","in","Female","Right-handed","0","2","no","left","s","554.477063615","1598.54453299","25","red","1"
"100","83","20","634.480965107","1","1","8","505","0","left","out","Female","Right-handed","0","2","no","left","d","689.126203441","527.271164516","25","red","1"
"100","83","20","630.110854829","1","1","8","506","2","left","out","Female","Right-handed","0","2","no","left","s","482.729678962","462.844090689","25","red","3"
"100","84","20","630.209149978","1","1","8","507","1","left","out","Female","Right-handed","0","2","no","left","d","469.360690717","798.331450205","25","green","0"
"100","82","20","635.983662075","1","0","8","508","1","left","out","Female","Right-handed","0","2","no","left","d","431.94291793","1278.88732558","25","green","0"
"100","82","20","632.995266734","1","1","8","509","1","left","in","Female","Right-handed","0","2","no","left","d","482.511593029","550.384103848","25","green","1"
"100","82","20","627.464463903","1","1","8","510","0","left","in","Female","Right-handed","0","2","no","left","s","333.300406634","479.164294716","25","green","0"
"100","80","20","627.068290387","1","0","8","511","1","right","in","Female","Right-handed","0","2","no","right","d","542.706516954","678.943835497","25","red","3"
"100","81","20","629.971379354","1","1","8","512","2","right","out","Female","Right-handed","0","2","no","right","d","432.410199108","1071.39203287","25","green","3"
"100","81","20","632.279211976","1","1","8","513","3","left","out","Female","Right-handed","0","2","no","left","d","656.040322807","806.991706639","25","green","1"
"100","82","20","630.409666937","1","1","8","514","2","left","in","Female","Right-handed","0","2","no","left","s","465.583634828","630.715735573","25","green","2"
"100","82","20","629.460350549","1","1","8","515","3","left","out","Female","Right-handed","0","2","no","left","s","686.23848915","487.243737003","25","green","1"
"100","82","20","628.574542525","1","1","8","516","3","left","out","Female","Right-handed","0","2","no","left","s","528.930862591","646.723884289","25","green","0"
"100","83","20","627.030113417","1","1","8","517","0","right","in","Female","Right-handed","0","2","no","right","d","582.469996345","526.413894382","25","green","2"
"100","83","20","622.552694767","1","1","8","518","1","right","out","Female","Right-handed","0","2","no","right","s","488.112552866","327.160646266","25","red","3"
"100","84","20","620.216055807","1","1","8","519","2","left","in","Female","Right-handed","0","2","no","left","d","452.765634276","558.675859204","25","red","2"
"100","82","20","619.81720563","1","0","8","520","0","left","out","Female","Right-handed","0","2","no","left","s","409.389304874","790.360088737","25","red","3"
"100","82","20","620.415104118","1","1","8","521","2","right","in","Female","Right-handed","0","2","no","right","s","510.919530461","790.896323553","25","green","3"
"100","83","20","618.134991209","1","1","8","522","0","right","out","Female","Right-handed","0","2","no","right","d","520.561173584","478.577066275","25","green","0"
"100","83","20","615.035449238","1","1","8","523","1","right","in","Female","Right-handed","0","2","no","right","s","439.263228756","462.256220821","25","green","0"
"100","83","20","614.595975259","1","1","8","524","2","left","out","Female","Right-handed","0","2","no","left","d","622.882922813","558.845837943","25","red","0"
"100","83","20","612.494338242","1","1","8","525","2","right","in","Female","Right-handed","0","2","no","right","d","459.360809382","534.447795202","25","red","0"
"100","84","20","613.379237608","1","1","8","526","3","right","in","Female","Right-handed","0","2","no","right","s","711.044801584","614.822402684","25","red","2"
"100","84","20","612.662102293","1","1","8","527","3","left","out","Female","Right-handed","0","2","no","left","d","448.722064553","694.848714109","25","green","3"
"100","84","20","612.19038219","1","1","8","528","2","right","in","Female","Right-handed","0","2","no","right","s","683.226016881","486.435215491","25","green","1"
"100","85","20","614.029967679","1","1","8","529","3","right","in","Female","Right-handed","0","2","no","right","d","438.034250397","1007.09677274","25","red","3"
"100","85","20","612.711530143","1","1","8","530","1","left","in","Female","Right-handed","0","2","no","left","d","484.61900869","582.59154718","25","red","1"
"100","85","20","618.201612104","1","1","8","531","3","right","out","Female","Right-handed","0","2","no","right","s","364.196127244","1541.99709625","25","green","3"
"100","84","20","620.414481779","1","0","8","532","3","left","in","Female","Right-handed","0","2","no","left","s","892.624750766","622.600052531","25","red","0"
"100","84","20","619.226996825","1","1","8","533","2","right","in","Female","Right-handed","0","2","no","right","s","474.46614649","614.364742945","25","red","0"
dis_reply=No
dis_loc=3
tar_loc=1
