"acc_1","acc_2","age","avg_rt","correct_1","correct_2","count_block_loop","count_trial_sequence","cue_position","detection","dis_shape","gender","hand","high_loc","low_loc","practice","response_keyboard_response_1","response_keyboard_response_2","response_time_keyboard_response_1","response_time_keyboard_response_2","subject_nr","tar_color","tar_position"
"100","0","19","1415.22602545","1","0","0","0","2","left","out","Female","Right-handed","0","2","yes","left","s","1918.96745921","911.484591681","13","green","1"
"100","50","19","1097.81751835","1","1","0","1","1","left","out","Female","Right-handed","0","2","yes","left","d","879.401139684","681.416882826","13","green","0"
"66","66","19","1237.04732479","0","1","0","2","0","right","in","Female","Right-handed","0","2","yes","left","d","2065.98791042","965.025964895","13","red","1"
"75","75","19","1134.17711228","1","1","0","3","0","left","out","Female","Right-handed","0","2","yes","left","s","1153.75541684","497.377532667","13","green","0"
"80","80","19","1110.67062298","1","1","0","4","1","right","in","Female","Right-handed","0","2","yes","right","d","1024.21252216","1009.0768094","13","red","3"
"83","83","19","1112.75438927","1","1","0","5","2","right","out","Female","Right-handed","0","2","yes","right","s","1524.65574704","721.690694458","13","red","0"
"85","85","19","1084.82840407","1","1","0","6","3","left","in","Female","Right-handed","0","2","yes","left","s","993.301916322","841.243069401","13","red","0"
"87","75","19","1027.69806732","1","0","0","7","0","left","out","Female","Right-handed","0","2","yes","left","s","893.747257907","361.824162235","13","red","0"
"88","77","19","1020.49113294","1","1","0","8","0","left","out","Female","Right-handed","0","2","yes","left","s","1316.32562084","609.345694882","13","green","2"
"90","80","19","1012.83408637","1","1","0","9","2","right","in","Female","Right-handed","0","2","yes","right","d","1158.08407546","729.757259011","13","green","3"
"90","81","19","991.585389335","1","1","0","10","0","right","in","Female","Right-handed","0","2","yes","right","d","708.612994762","849.583843266","13","green","3"
"91","83","19","989.625600588","1","1","0","11","2","right","in","Female","Right-handed","0","2","yes","right","s","983.113516884","953.022331863","13","green","2"
"92","84","19","968.927582294","1","1","0","12","3","right","out","Female","Right-handed","0","2","yes","right","s","863.379939296","577.722786249","13","green","0"
"92","85","19","963.563286135","1","1","0","13","0","left","in","Female","Right-handed","0","2","yes","left","d","682.283127693","1105.37174445","13","green","3"
"93","86","19","932.45269916","1","1","0","14","3","right","in","Female","Right-handed","0","2","yes","right","s","527.907452592","465.901510428","13","red","3"
"93","87","19","930.897679115","1","1","0","15","1","left","out","Female","Right-handed","0","2","yes","left","s","837.541083291","977.603673571","13","green","2"
"94","88","19","935.468058982","1","1","0","16","3","right","out","Female","Right-handed","0","2","yes","right","s","1368.14637069","649.041903032","13","green","1"
"94","88","19","920.394942304","1","1","0","17","3","right","in","Female","Right-handed","0","2","yes","right","s","758.62332171","569.68059586","13","green","2"
"94","84","19","916.157982646","1","0","0","18","1","right","out","Female","Right-handed","0","2","yes","right","d","862.377391553","817.408026025","13","red","1"
"95","85","19","910.342774472","1","1","0","19","1","left","in","Female","Right-handed","0","2","yes","left","s","653.775621733","945.932016615","13","red","3"
"95","85","19","903.304571212","1","1","0","20","0","right","in","Female","Right-handed","0","2","yes","right","d","867.46389417","657.617117846","13","red","1"
"95","81","19","901.178753102","1","0","0","21","3","left","out","Female","Right-handed","0","2","yes","left","s","624.047162719","1089.02598286","13","red","3"
"100","100","19","660.216493866","1","1","1","22","3","right","out","Female","Right-handed","0","2","no","right","d","655.219790791","665.21319694","13","green","3"
"100","100","19","747.02138127","1","1","1","23","1","right","in","Female","Right-handed","0","2","no","right","s","649.890829414","1017.76170794","13","green","2"
"100","100","19","710.156264031","1","1","1","24","2","right","out","Female","Right-handed","0","2","no","right","d","607.369784249","665.482274853","13","red","2"
"100","100","19","710.00488766","1","1","1","25","0","right","in","Female","Right-handed","0","2","no","right","s","713.109065391","705.992451707","13","red","3"
"100","100","19","745.102204707","1","1","1","26","2","left","in","Female","Right-handed","0","2","no","left","d","1065.42249402","705.560451768","13","green","0"
"100","100","19","759.683036481","1","1","1","27","1","left","in","Female","Right-handed","0","2","no","left","d","968.039060235","697.135330474","13","green","3"
"100","100","19","772.325334393","1","1","1","28","3","left","in","Female","Right-handed","0","2","no","left","d","830.779177795","865.57906593","13","red","3"
"100","100","19","763.332305449","1","1","1","29","1","left","in","Female","Right-handed","0","2","no","left","d","735.423930808","665.338274875","13","red","3"
"100","88","19","784.569937166","1","0","1","30","1","left","out","Female","Right-handed","0","2","no","left","s","994.935305844","914.006675956","13","red","0"
"100","90","19","803.806313934","1","1","1","31","1","right","in","Female","Right-handed","0","2","no","right","s","928.491983466","1025.37542623","13","green","0"
"100","90","19","813.467123571","1","1","1","32","0","left","out","Female","Right-handed","0","2","no","left","d","915.070159099","905.080280789","13","green","3"
"100","91","19","820.442756106","1","1","1","33","3","left","out","Female","Right-handed","0","2","no","left","d","880.725041499","913.624386478","13","green","0"
"100","92","19","817.99682978","1","1","1","34","2","left","out","Female","Right-handed","0","2","no","left","s","864.20128439","713.090143345","13","green","2"
"100","92","19","847.769651988","1","1","1","35","2","right","out","Female","Right-handed","0","2","no","right","s","1067.777487","1401.85519439","13","red","1"
"100","93","19","843.067464685","1","1","1","36","1","left","out","Female","Right-handed","0","2","no","left","d","905.249617068","649.224067816","13","green","1"
"100","93","19","831.961314598","1","1","1","37","2","left","out","Female","Right-handed","0","2","no","left","s","817.714948033","513.023178546","13","red","0"
"100","94","19","822.410068023","1","1","1","38","0","right","in","Female","Right-handed","0","2","no","right","s","825.564390119","513.61585552","13","red","0"
"100","94","19","826.64178863","1","1","1","39","0","left","in","Female","Right-handed","0","2","no","left","s","908.200814867","888.961263045","13","red","1"
"100","89","19","832.959686217","1","0","1","40","3","right","in","Female","Right-handed","0","2","no","right","d","1043.60729891","849.756386671","13","red","0"
"100","90","19","828.146848549","1","1","1","41","3","right","out","Female","Right-handed","0","2","no","right","d","776.301002932","697.104862775","13","green","3"
"100","90","19","829.11241125","1","1","1","42","0","right","in","Female","Right-handed","0","2","no","right","d","895.928745347","800.91858517","13","red","3"
"100","90","19","818.703887352","1","1","1","43","2","right","out","Female","Right-handed","0","2","no","right","s","542.707699926","657.542071085","13","red","0"
"100","91","19","815.835188447","1","1","1","44","2","right","out","Female","Right-handed","0","2","no","right","s","920.149926749","585.29769831","13","red","1"
"100","91","19","811.683585862","1","1","1","45","2","right","out","Female","Right-handed","0","2","no","right","s","806.619893932","625.77355891","13","red","3"
"100","92","19","818.028656316","1","1","1","46","2","left","in","Female","Right-handed","0","2","no","left","d","1371.38877557","569.231918862","13","red","1"
"100","92","19","818.486379136","1","1","1","47","1","left","out","Female","Right-handed","0","2","no","left","d","930.889310519","728.969588745","13","green","0"
"100","92","19","818.171785383","1","1","1","48","2","left","out","Female","Right-handed","0","2","no","left","s","786.511210832","833.473484761","13","red","0"
"100","92","19","806.15453988","1","1","1","49","3","left","out","Female","Right-handed","0","2","no","left","s","570.186038993","393.191783598","13","red","0"
"100","93","19","801.620525627","1","1","1","50","2","left","in","Female","Right-handed","0","2","no","left","s","892.711356049","456.624897051","13","red","3"
"100","90","19","795.545001971","1","0","1","51","3","right","out","Female","Right-handed","0","2","no","right","s","733.44224735","505.267384549","13","green","1"
"100","90","19","795.798014594","1","1","1","52","1","left","out","Female","Right-handed","0","2","no","left","d","630.008569442","976.76821712","13","red","3"
"100","90","19","788.635826898","1","1","1","53","0","left","in","Female","Right-handed","0","2","no","left","s","691.695723233","441.520293412","13","green","0"
"100","90","19","789.893946935","1","1","1","54","0","right","out","Female","Right-handed","0","2","no","right","d","555.158085679","1105.14949058","13","red","0"
"100","91","19","783.684369363","1","1","1","55","2","right","in","Female","Right-handed","0","2","no","right","d","508.769887392","648.76673158","13","green","0"
"100","88","19","777.545867407","1","0","1","56","3","right","in","Female","Right-handed","0","2","no","right","d","424.351903877","713.32169788","13","red","0"
"100","88","19","772.752638182","1","1","1","57","0","right","out","Female","Right-handed","0","2","no","right","d","552.961524745","657.017705904","13","green","0"
"100","89","19","780.722182824","1","1","1","58","1","left","out","Female","Right-handed","0","2","no","left","d","750.660668058","1384.59091177","13","green","1"
"100","89","19","785.863139185","1","1","1","59","0","right","out","Female","Right-handed","0","2","no","right","s","943.180943512","1008.97610562","13","green","0"
"100","87","19","784.538071486","1","0","1","60","1","left","in","Female","Right-handed","0","2","no","left","d","827.653512317","640.71748551","13","green","1"
"100","85","19","787.344085546","1","0","1","61","0","left","in","Female","Right-handed","0","2","no","left","d","824.331891408","969.225376324","13","red","0"
"100","85","19","786.247526367","1","1","1","62","1","right","out","Female","Right-handed","0","2","no","right","d","619.969942811","864.800375617","13","green","0"
"100","83","19","779.931752654","1","0","1","63","3","right","in","Female","Right-handed","0","2","no","right","d","392.380380596","649.589680237","13","red","0"
"100","83","19","777.85369966","1","1","1","64","2","left","out","Female","Right-handed","0","2","no","left","d","636.03604297","745.114904928","13","green","0"
"100","84","19","777.633316166","1","1","1","65","0","left","out","Female","Right-handed","0","2","no","left","s","591.726062648","944.587589191","13","green","1"
"100","84","19","775.267053859","1","1","1","66","3","right","out","Female","Right-handed","0","2","no","right","s","661.144956986","681.158067719","13","green","0"
"100","84","19","770.911311825","1","1","1","67","0","left","out","Female","Right-handed","0","2","no","left","s","532.879460792","616.926379771","13","red","1"
"100","85","19","768.222032943","1","1","1","68","3","right","out","Female","Right-handed","0","2","no","right","d","712.436851678","576.593557011","13","red","1"
"100","85","19","766.709426349","1","1","1","69","2","right","out","Female","Right-handed","0","2","no","right","d","606.106817839","785.127015039","13","red","1"
"100","85","19","769.799830276","1","1","1","70","3","right","in","Female","Right-handed","0","2","no","right","d","787.811059199","1048.46737839","13","green","3"
"100","84","19","772.005894057","1","0","1","71","0","right","in","Female","Right-handed","0","2","no","right","s","935.142601671","825.063436961","13","red","2"
"100","84","19","769.813671485","1","1","1","72","0","left","in","Female","Right-handed","0","2","no","left","s","687.689380818","632.715704915","13","red","1"
"100","82","19","768.248694675","1","0","1","73","1","left","in","Female","Right-handed","0","2","no","left","d","840.468548353","536.401206393","13","green","3"
"100","83","19","768.874977181","1","1","1","74","0","left","in","Female","Right-handed","0","2","no","left","d","962.10395195","640.779383051","13","green","2"
"100","81","19","766.647290871","1","0","1","75","1","right","in","Female","Right-handed","0","2","no","right","s","632.579402038","664.580430884","13","green","1"
"100","81","19","768.057370012","1","1","1","76","1","right","in","Female","Right-handed","0","2","no","right","s","1119.11556431","569.287722863","13","green","0"
"100","80","19","770.453864409","1","0","1","77","0","left","in","Female","Right-handed","0","2","no","left","s","859.839913075","944.682199421","13","red","3"
"100","80","19","768.645091235","1","1","1","78","3","left","in","Female","Right-handed","0","2","no","left","d","766.372060029","568.335527009","13","green","1"
"100","81","19","764.582533211","1","1","1","79","2","left","in","Female","Right-handed","0","2","no","left","s","624.98075724","441.052694372","13","green","3"
"100","81","19","761.69930119","1","1","1","80","3","right","out","Female","Right-handed","0","2","no","right","s","812.607919806","376.335768184","13","green","2"
"100","81","19","760.997712464","1","1","1","81","3","right","in","Female","Right-handed","0","2","no","right","s","822.016987508","617.190967707","13","green","1"
"100","81","19","761.019179268","1","1","1","82","3","left","out","Female","Right-handed","0","2","no","left","s","939.816667822","584.79770729","13","red","2"
"100","82","19","760.195726688","1","1","1","83","1","right","in","Female","Right-handed","0","2","no","right","s","851.427299573","568.50293901","13","green","2"
"100","82","19","759.48471007","1","1","1","84","2","left","out","Female","Right-handed","0","2","no","left","d","701.999899938","728.803459591","13","red","3"
"100","82","19","763.032679657","1","1","1","85","1","right","in","Female","Right-handed","0","2","no","right","d","1252.59039607","720.51913115","13","red","0"
"100","100","19","793.509962617","1","1","2","86","2","right","in","Female","Right-handed","0","2","no","right","d","905.492075832","681.527849403","13","green","0"
"100","100","19","867.045283985","1","1","2","87","0","left","out","Female","Right-handed","0","2","no","left","d","1040.1663729","840.99483781","13","red","0"
"100","66","19","792.080653245","1","0","2","88","1","left","out","Female","Right-handed","0","2","no","left","d","650.676896117","633.625887413","13","green","0"
"100","75","19","791.8611388","1","1","2","89","2","right","in","Female","Right-handed","0","2","no","right","d","909.134409389","673.270781539","13","green","1"
"100","80","19","764.959000095","1","1","2","90","3","right","out","Female","Right-handed","0","2","no","right","d","665.88124139","648.819649166","13","green","0"
"100","66","19","784.637367001","1","0","2","91","3","left","out","Female","Right-handed","0","2","no","left","d","1036.5282086","729.530194454","13","green","2"
"100","71","19","780.19649331","1","1","2","92","0","left","in","Female","Right-handed","0","2","no","left","s","818.048489186","689.054013143","13","green","2"
"100","75","19","805.311085657","1","1","2","93","1","left","in","Female","Right-handed","0","2","no","left","s","937.66661022","1024.55985396","13","red","0"
"100","77","19","792.080938323","1","1","2","94","0","right","in","Female","Right-handed","0","2","no","right","d","571.281914115","801.197605173","13","red","3"
"100","80","19","769.812088045","1","1","2","95","3","right","out","Female","Right-handed","0","2","no","right","d","497.841283159","640.943587927","13","red","3"
"100","81","19","755.78004372","1","1","2","96","0","left","in","Female","Right-handed","0","2","no","left","d","597.510115278","633.40908566","13","red","0"
"100","83","19","762.631160783","1","1","2","97","1","left","out","Female","Right-handed","0","2","no","left","d","730.915031674","945.07186529","13","red","0"
"100","84","19","746.489294316","1","1","2","98","1","left","out","Female","Right-handed","0","2","no","left","s","520.786990355","584.78680306","13","red","3"
"100","85","19","773.08738201","1","1","2","99","3","left","in","Female","Right-handed","0","2","no","left","s","908.436538663","1329.2885054","13","green","0"
"100","86","19","764.462985912","1","1","2","100","3","right","out","Female","Right-handed","0","2","no","right","s","598.716636263","688.726244814","13","red","3"
"100","87","19","754.399105164","1","1","2","101","2","right","in","Female","Right-handed","0","2","no","right","s","757.439892035","449.441895849","13","green","3"
"100","88","19","747.117151728","1","1","2","102","1","right","out","Female","Right-handed","0","2","no","right","d","492.045043451","769.166750051","13","red","3"
"100","88","19","750.454440915","1","1","2","103","2","right","in","Female","Right-handed","0","2","no","right","d","909.706560755","704.670153455","13","red","0"
"100","89","19","747.332759494","1","1","2","104","1","left","in","Female","Right-handed","0","2","no","left","s","837.195355054","545.089632771","13","green","2"
"100","90","19","733.460792558","1","1","2","105","1","left","in","Female","Right-handed","0","2","no","left","s","506.900453358","432.886388186","13","red","3"
"100","85","19","727.823262467","1","0","2","106","2","right","in","Female","Right-handed","0","2","no","right","s","549.552349283","680.592972032","13","red","3"
"100","86","19","727.452224311","1","1","2","107","2","right","out","Female","Right-handed","0","2","no","right","s","894.15937366","545.161472404","13","green","1"
"100","86","19","725.400405559","1","1","2","108","0","right","out","Female","Right-handed","0","2","no","right","d","607.691138324","752.829647703","13","green","3"
"100","83","19","726.10758247","1","0","2","109","0","left","in","Female","Right-handed","0","2","no","left","s","723.355513819","761.389789022","13","red","1"
"100","84","19","733.838455756","1","1","2","110","3","left","out","Female","Right-handed","0","2","no","left","s","917.823156478","920.935672739","13","green","0"
"100","84","19","730.32683234","1","1","2","111","1","left","out","Female","Right-handed","0","2","no","left","s","852.531192511","432.541301374","13","green","2"
"100","85","19","736.241801515","1","1","2","112","3","left","out","Female","Right-handed","0","2","no","left","d","1059.02940807","721.032592102","13","green","1"
"100","85","19","746.919721088","1","1","2","113","3","left","out","Female","Right-handed","0","2","no","left","s","1021.76901249","1048.6780866","13","red","0"
"100","82","19","752.810427063","1","0","2","114","2","right","in","Female","Right-handed","0","2","no","right","s","803.26588105","1032.23450765","13","red","1"
"100","83","19","750.2809229","1","1","2","115","0","right","in","Female","Right-handed","0","2","no","right","s","712.982704608","640.867899743","13","red","3"
"100","83","19","762.186951348","1","1","2","116","1","left","in","Female","Right-handed","0","2","no","left","d","822.464060941","1416.27154868","13","green","0"
"100","84","19","764.52140773","1","1","2","117","2","right","out","Female","Right-handed","0","2","no","right","s","832.918331165","840.860779921","13","green","1"
"100","84","19","763.613391864","1","1","2","118","0","left","in","Female","Right-handed","0","2","no","left","d","708.493689657","760.620078665","13","green","1"
"100","85","19","768.261189589","1","1","2","119","2","left","out","Female","Right-handed","0","2","no","left","d","954.081645743","889.195383277","13","green","3"
"100","85","19","765.886762228","1","1","2","120","1","left","out","Female","Right-handed","0","2","no","left","s","617.711163623","752.601300297","13","red","1"
"100","86","19","764.760153798","1","1","2","121","2","left","in","Female","Right-handed","0","2","no","left","d","658.343211282","792.314506218","13","red","0"
"100","86","19","759.955115658","1","1","2","122","3","left","in","Female","Right-handed","0","2","no","left","s","509.042813856","664.904671372","13","red","3"
"100","86","19","753.461008532","1","1","2","123","3","left","out","Female","Right-handed","0","2","no","left","s","609.706817324","416.651272459","13","green","2"
"100","87","19","751.143587296","1","1","2","124","0","right","in","Female","Right-handed","0","2","no","right","s","837.052958637","489.110201997","13","green","0"
"100","85","19","751.771504424","1","0","2","125","2","right","in","Female","Right-handed","0","2","no","right","s","679.758798431","872.761746421","13","green","2"
"100","85","19","750.309475973","1","1","2","126","2","right","in","Female","Right-handed","0","2","no","right","d","543.343673109","840.313002716","13","red","0"
"100","83","19","750.168041974","1","0","2","127","2","right","in","Female","Right-handed","0","2","no","right","s","767.889030858","720.84946518","13","red","3"
"100","83","19","751.038337035","1","1","2","128","2","right","out","Female","Right-handed","0","2","no","right","d","542.602506177","1032.57895304","13","red","0"
"100","84","19","748.860394979","1","1","2","129","1","right","in","Female","Right-handed","0","2","no","right","s","645.219008253","665.198764871","13","red","3"
"100","84","19","752.855860617","1","1","2","130","3","left","out","Female","Right-handed","0","2","no","left","d","840.773225369","1016.53947203","13","green","1"
"100","84","19","754.037936095","1","1","2","131","0","right","in","Female","Right-handed","0","2","no","right","d","798.17777487","816.284890329","13","green","1"
"100","85","19","752.79219256","1","1","2","132","2","left","in","Female","Right-handed","0","2","no","left","s","765.981752733","624.994227172","13","red","2"
"100","85","19","752.942585326","1","1","2","133","1","right","out","Female","Right-handed","0","2","no","right","d","879.435776651","640.586314035","13","green","0"
"100","85","19","753.29471377","1","1","2","134","1","left","in","Female","Right-handed","0","2","no","left","s","596.223416129","944.170342034","13","green","1"
"100","86","19","752.39296536","1","1","2","135","0","right","out","Female","Right-handed","0","2","no","right","d","591.732797615","824.68178891","13","red","0"
"100","86","19","748.636895779","1","1","2","136","1","left","in","Female","Right-handed","0","2","no","left","s","641.370777175","480.296056261","13","red","1"
"100","84","19","745.489876606","1","0","2","137","0","right","out","Female","Right-handed","0","2","no","right","d","522.018847641","647.964949956","13","green","0"
"100","84","19","742.067820099","1","1","2","138","2","right","out","Female","Right-handed","0","2","no","right","d","431.620535359","696.621228099","13","red","0"
"100","83","19","742.255003331","1","0","2","139","1","left","out","Female","Right-handed","0","2","no","left","d","632.093201661","872.258227562","13","red","1"
"100","83","19","740.527235851","1","1","2","140","0","left","in","Female","Right-handed","0","2","no","left","s","685.782423407","608.673160455","13","green","1"
"100","83","19","737.835532437","1","1","2","141","0","right","out","Female","Right-handed","0","2","no","right","s","779.180040385","400.403648941","13","red","2"
"100","84","19","738.442970584","1","1","2","142","3","right","out","Female","Right-handed","0","2","no","right","d","776.029038607","768.889975037","13","green","0"
"100","84","19","733.928215485","1","1","2","143","3","right","in","Female","Right-handed","0","2","no","right","s","568.593700691","384.580648968","13","green","1"
"100","84","19","735.101870079","1","1","2","144","1","right","in","Female","Right-handed","0","2","no","right","s","726.27784748","880.069825558","13","green","0"
"100","85","19","731.82396072","1","1","2","145","3","right","out","Female","Right-handed","0","2","no","right","s","531.929509925","544.925107182","13","red","3"
"100","85","19","729.081341329","1","1","2","146","0","right","out","Female","Right-handed","0","2","no","right","d","472.510435989","656.537919782","13","green","0"
"100","85","19","727.920232474","1","1","2","147","0","left","in","Female","Right-handed","0","2","no","left","d","642.14369466","672.041489954","13","green","3"
"100","84","19","730.757739936","1","0","2","148","3","left","out","Female","Right-handed","0","2","no","left","s","684.711884585","1128.65452064","13","red","1"
"100","84","19","728.0070474","1","1","2","149","3","left","out","Female","Right-handed","0","2","no","left","s","453.264469912","656.162365269","13","red","0"
"100","100","19","672.138986599","1","1","3","150","1","left","in","Female","Right-handed","0","2","no","left","d","767.587560967","576.69041223","13","red","2"
"100","100","19","721.388021895","1","1","3","151","0","left","out","Female","Right-handed","0","2","no","left","d","660.178008348","881.096106035","13","green","2"
"100","100","19","788.355896536","1","1","3","152","3","left","out","Female","Right-handed","0","2","no","left","s","843.710311808","1000.87297983","13","red","1"
"100","100","19","755.256039339","1","1","3","153","2","left","in","Female","Right-handed","0","2","no","left","s","591.485207449","720.427728047","13","red","2"
"100","100","19","751.02406756","1","1","3","154","2","right","in","Female","Right-handed","0","2","no","right","s","1043.10923216","425.083128719","13","green","1"
"100","100","19","735.707547694","1","1","3","155","0","right","in","Female","Right-handed","0","2","no","right","s","821.685370627","496.564526102","13","red","1"
"100","100","19","710.20821948","1","1","3","156","2","right","out","Female","Right-handed","0","2","no","right","s","713.114517506","401.309982888","13","red","1"
"100","100","19","702.733449944","1","1","3","157","2","left","out","Female","Right-handed","0","2","no","left","s","843.839559007","456.980567378","13","green","0"
"100","100","19","687.875358521","1","1","3","158","2","left","out","Female","Right-handed","0","2","no","left","s","569.467001234","568.554253035","13","red","3"
"100","100","19","676.108527236","1","1","3","159","0","left","in","Female","Right-handed","0","2","no","left","s","707.182616348","433.231474995","13","green","3"
"100","100","19","708.342036308","1","1","3","160","2","right","in","Female","Right-handed","0","2","no","right","s","932.645212273","1128.70904179","13","green","0"
"100","100","19","698.550782389","1","1","3","161","1","right","in","Female","Right-handed","0","2","no","right","s","748.403171719","433.290806836","13","red","3"
"100","100","19","692.312404316","1","1","3","162","1","left","out","Female","Right-handed","0","2","no","left","s","753.933540642","480.970194248","13","red","1"
"100","100","19","699.93195623","1","1","3","163","3","right","in","Female","Right-handed","0","2","no","right","d","701.476817607","896.495444598","13","red","0"
"100","100","19","709.277735871","1","1","3","164","2","left","in","Female","Right-handed","0","2","no","left","s","831.098928305","849.138373396","13","green","0"
"100","100","19","709.331471275","1","1","3","165","0","right","out","Female","Right-handed","0","2","no","right","d","627.506690067","792.768314617","13","green","0"
"100","100","19","703.857241216","1","1","3","166","2","right","out","Female","Right-handed","0","2","no","right","d","584.278152797","648.260967731","13","green","3"
"100","100","19","698.359695557","1","1","3","167","3","right","out","Female","Right-handed","0","2","no","right","d","432.771252345","777.031586347","13","red","3"
"100","100","19","699.5705185","1","1","3","168","3","left","in","Female","Right-handed","0","2","no","left","d","754.469451478","688.261211473","13","red","1"
"100","100","19","696.644960834","1","1","3","169","2","right","out","Female","Right-handed","0","2","no","right","s","841.106125099","441.01260529","13","green","1"
"100","100","19","684.698750638","1","1","3","170","1","right","out","Female","Right-handed","0","2","no","right","s","570.706555623","320.842537785","13","green","0"
"100","100","19","685.024163949","1","1","3","171","1","left","out","Female","Right-handed","0","2","no","left","d","599.277241974","784.43844498","13","green","1"
"100","95","19","677.497174661","1","0","3","172","3","right","in","Female","Right-handed","0","2","no","right","s","510.926679957","512.880140704","13","red","0"
"100","95","19","676.729874586","1","1","3","173","3","right","out","Female","Right-handed","0","2","no","right","d","637.660773251","680.503172489","13","red","3"
"100","96","19","687.366897836","1","1","3","174","1","left","in","Female","Right-handed","0","2","no","left","d","533.160725785","1352.15018588","13","red","3"
"100","96","19","696.374341034","1","1","3","175","3","right","in","Female","Right-handed","0","2","no","right","d","1106.5291964","736.591645564","13","green","0"
"100","96","19","691.536881384","1","1","3","176","3","right","in","Female","Right-handed","0","2","no","right","s","539.259397521","592.266463464","13","red","3"
"100","96","19","699.816430952","1","1","3","177","3","right","in","Female","Right-handed","0","2","no","right","d","1205.90297288","640.825565673","13","red","2"
"100","96","19","698.340115189","1","1","3","178","1","left","in","Female","Right-handed","0","2","no","left","d","577.417147093","736.589400576","13","green","3"
"100","96","19","691.699881807","1","1","3","179","1","left","out","Female","Right-handed","0","2","no","left","s","630.035188591","368.231038827","13","red","0"
"100","93","19","691.021823192","1","0","3","180","3","left","out","Female","Right-handed","0","2","no","left","s","668.74937461","672.610754907","13","green","0"
"100","93","19","690.502822512","1","1","3","181","0","left","in","Female","Right-handed","0","2","no","left","d","516.321387428","832.506215413","13","green","0"
"100","93","19","692.760916845","1","1","3","182","3","right","in","Female","Right-handed","0","2","no","right","d","841.110294363","688.929576632","13","green","1"
"100","94","19","687.433650212","1","1","3","183","1","right","out","Female","Right-handed","0","2","no","right","s","550.562273416","472.70542928","13","red","0"
"100","94","19","684.658627958","1","1","3","184","2","left","in","Female","Right-handed","0","2","no","left","s","716.243710825","464.372031803","13","green","3"
"100","94","19","691.633990502","1","1","3","185","0","left","out","Female","Right-handed","0","2","no","left","d","894.878732133","976.664626935","13","green","0"
"100","94","19","689.23489941","1","1","3","186","2","right","out","Female","Right-handed","0","2","no","right","s","773.426134747","432.309105417","13","red","1"
"100","94","19","684.086085588","1","1","3","187","0","left","out","Female","Right-handed","0","2","no","left","s","563.112400803","424.047547575","13","green","1"
"100","94","19","684.922444774","1","1","3","188","0","right","in","Female","Right-handed","0","2","no","right","d","672.660144655","760.74804301","13","green","0"
"100","95","19","680.38208342","1","1","3","189","2","left","out","Female","Right-handed","0","2","no","left","s","558.218325777","448.397655462","13","green","0"
"100","95","19","684.611798771","1","1","3","190","2","left","in","Female","Right-handed","0","2","no","left","d","907.682222514","799.918603129","13","red","2"
"100","95","19","680.014876027","1","1","3","191","1","left","in","Female","Right-handed","0","2","no","left","s","502.521122135","480.56096491","13","green","1"
"100","93","19","679.899777745","1","0","3","192","2","left","out","Female","Right-handed","0","2","no","left","d","557.989657658","792.1416421","13","red","3"
"100","93","19","678.134275884","1","1","3","193","0","left","in","Female","Right-handed","0","2","no","left","d","619.571296987","584.864094808","13","green","3"
"100","93","19","674.427727476","1","1","3","194","3","left","in","Female","Right-handed","0","2","no","left","s","622.211724227","400.467470758","13","red","1"
"100","93","19","681.386111843","1","1","3","195","1","left","in","Female","Right-handed","0","2","no","left","s","637.001708758","1352.02510795","13","red","0"
"100","93","19","677.961695337","1","1","3","196","0","right","out","Female","Right-handed","0","2","no","right","s","568.434947929","472.442124195","13","green","0"
"100","93","19","677.111245356","1","1","3","197","1","right","out","Female","Right-handed","0","2","no","right","s","674.213997439","600.066195091","13","green","1"
"100","93","19","674.439399525","1","1","3","198","1","left","in","Female","Right-handed","0","2","no","left","s","635.511357077","456.870242229","13","red","3"
"100","92","19","673.686021034","1","0","3","199","2","right","in","Female","Right-handed","0","2","no","right","s","633.327303936","640.213645938","13","green","0"
"100","92","19","673.661557324","1","1","3","200","1","right","in","Female","Right-handed","0","2","no","right","s","856.865303253","488.011440462","13","red","2"
"100","92","19","677.159703033","1","1","3","201","0","left","out","Female","Right-handed","0","2","no","left","d","686.693568045","1024.4367003","13","red","1"
"100","92","19","682.405152804","1","1","3","202","3","right","out","Female","Right-handed","0","2","no","right","d","550.171324698","1360.16575713","13","green","3"
"100","92","19","688.318826906","1","1","3","203","0","right","in","Female","Right-handed","0","2","no","right","d","587.788352743","1415.69875589","13","green","3"
"100","92","19","694.526776241","1","1","3","204","2","left","in","Female","Right-handed","0","2","no","left","d","803.219698428","1256.29238218","13","green","0"
"100","92","19","695.327690898","1","1","3","205","0","right","in","Female","Right-handed","0","2","no","right","d","846.958168808","631.797825312","13","green","2"
"100","92","19","693.839647907","1","1","3","206","0","left","out","Female","Right-handed","0","2","no","left","d","588.504183375","632.514297369","13","red","0"
"100","93","19","697.782205124","1","1","3","207","3","right","out","Female","Right-handed","0","2","no","right","s","941.052373657","903.963559345","13","red","0"
"100","93","19","699.043067925","1","1","3","208","0","right","out","Female","Right-handed","0","2","no","right","s","936.733336412","607.61288444","13","green","1"
"100","93","19","695.979949793","1","1","3","209","3","right","out","Female","Right-handed","0","2","no","right","s","582.196406993","448.315553025","13","red","0"
"100","91","19","692.37090748","1","0","3","210","0","left","out","Female","Right-handed","0","2","no","left","s","479.720697769","471.936039634","13","green","3"
"100","91","19","694.881967193","1","1","3","211","1","right","out","Female","Right-handed","0","2","no","right","d","592.631113745","1103.48210552","13","red","0"
"100","92","19","697.146993216","1","1","3","212","3","right","in","Female","Right-handed","0","2","no","right","d","931.053515397","744.103697945","13","red","2"
"100","92","19","695.187454639","1","1","3","213","1","left","out","Female","Right-handed","0","2","no","left","d","607.763298671","535.709749922","13","red","0"
"100","100","19","604.81354408","1","1","4","214","0","left","in","Female","Right-handed","0","2","no","left","d","632.782413144","576.844675015","13","red","3"
"100","100","19","642.146741431","1","1","4","215","3","left","out","Female","Right-handed","0","2","no","left","d","766.517984283","592.441893283","13","red","1"
"100","100","19","661.618008143","1","1","4","216","0","left","in","Female","Right-handed","0","2","no","left","d","744.0620053","657.059077836","13","green","2"
"100","75","19","749.619153729","1","0","4","217","3","left","out","Female","Right-handed","0","2","no","left","s","858.689516801","1168.55566417","13","red","0"
"100","80","19","784.034924324","1","1","4","218","1","right","in","Female","Right-handed","0","2","no","right","d","1083.25475873","760.141254679","13","green","2"
"100","83","19","740.96229082","1","1","4","219","2","left","out","Female","Right-handed","0","2","no","left","s","586.591773848","464.606472751","13","red","3"
"100","85","19","718.446342391","1","1","4","220","2","left","out","Female","Right-handed","0","2","no","left","s","758.305174762","408.396128871","13","green","2"
"100","87","19","725.024682847","1","1","4","221","3","left","in","Female","Right-handed","0","2","no","left","d","925.010006235","617.136125842","13","red","0"
"100","88","19","736.748224606","1","1","4","222","2","right","out","Female","Right-handed","0","2","no","right","d","996.546886907","664.526230447","13","red","0"
"100","90","19","706.13882496","1","1","4","223","0","left","out","Female","Right-handed","0","2","no","left","s","517.127338317","344.181117978","13","green","0"
"100","90","19","698.46967003","1","1","4","224","0","left","in","Female","Right-handed","0","2","no","left","d","650.862909453","592.693331999","13","green","0"
"100","91","19","689.245572134","1","1","4","225","3","right","in","Female","Right-handed","0","2","no","right","s","807.214495186","368.346495381","13","red","2"
"100","84","19","690.845871718","1","0","4","226","2","left","in","Female","Right-handed","0","2","no","left","s","563.982814932","856.116118504","13","red","1"
"100","85","19","686.041467596","1","1","4","227","1","right","out","Female","Right-handed","0","2","no","right","d","566.660124128","680.508303893","13","red","1"
"100","86","19","678.282012895","1","1","4","228","1","right","out","Female","Right-handed","0","2","no","right","s","659.15269001","480.146604166","13","red","0"
"100","87","19","682.847601999","1","1","4","229","2","left","out","Female","Right-handed","0","2","no","left","d","806.895065387","695.76781174","13","green","1"
"100","88","19","697.853934329","1","1","4","230","3","left","in","Female","Right-handed","0","2","no","left","s","1427.39610835","448.514394868","13","red","1"
"100","83","19","693.698511366","1","0","4","231","3","left","in","Female","Right-handed","0","2","no","left","d","621.972793304","624.139848675","13","green","1"
"100","84","19","690.797348024","1","1","4","232","3","right","out","Female","Right-handed","0","2","no","right","d","580.619462897","696.533352833","13","red","3"
"100","85","19","695.038342801","1","1","4","233","1","right","out","Female","Right-handed","0","2","no","right","d","702.972942116","848.261545016","13","green","0"
"100","85","19","701.405695759","1","1","4","234","3","right","out","Female","Right-handed","0","2","no","right","s","968.848538961","688.656970882","13","red","3"
"100","86","19","702.064312158","1","1","4","235","0","left","in","Female","Right-handed","0","2","no","left","d","791.411058686","640.379454379","13","green","0"
"100","86","19","698.582162844","1","1","4","236","1","left","out","Female","Right-handed","0","2","no","left","d","508.045397517","735.904358356","13","green","1"
"100","83","19","709.145912282","1","0","4","237","2","right","out","Female","Right-handed","0","2","no","right","s","631.538048066","1272.68625066","13","red","3"
"100","84","19","709.468014686","1","1","4","238","1","right","in","Female","Right-handed","0","2","no","right","s","834.195729647","600.201215117","13","green","3"
"100","84","19","705.247010662","1","1","4","239","0","left","in","Female","Right-handed","0","2","no","left","d","502.693024117","696.750796009","13","red","3"
"100","85","19","703.106168525","1","1","4","240","2","left","in","Female","Right-handed","0","2","no","left","s","798.489828278","496.398717662","13","green","2"
"100","85","19","705.855358504","1","1","4","241","1","right","out","Female","Right-handed","0","2","no","right","d","712.156869537","848.010106296","13","green","0"
"100","86","19","700.468181855","1","1","4","242","2","right","in","Female","Right-handed","0","2","no","right","s","626.677968579","472.576502796","13","red","0"
"100","86","19","693.528163061","1","1","4","243","2","right","in","Female","Right-handed","0","2","no","right","s","576.286955718","408.248280339","13","red","3"
"100","87","19","692.344887017","1","1","4","244","0","right","in","Female","Right-handed","0","2","no","right","s","945.90219034","367.791021072","13","red","2"
"100","87","19","687.285588561","1","1","4","245","3","right","out","Female","Right-handed","0","2","no","right","s","684.435750993","376.458921841","13","green","2"
"100","87","19","687.050045013","1","1","4","246","0","left","out","Female","Right-handed","0","2","no","left","s","950.959508104","408.065794842","13","red","1"
"100","88","19","681.069352941","1","1","4","247","1","right","in","Female","Right-handed","0","2","no","right","s","511.608835763","455.804193381","13","green","3"
"100","88","19","679.249076073","1","1","4","248","2","left","out","Female","Right-handed","0","2","no","left","s","859.364296215","375.355028904","13","green","1"
"100","88","19","679.826308444","1","1","4","249","1","right","out","Female","Right-handed","0","2","no","right","d","752.03492176","648.023961083","13","green","1"
"100","89","19","682.440679948","1","1","4","250","3","left","in","Female","Right-handed","0","2","no","left","s","912.628894414","640.487213828","13","red","0"
"100","89","19","680.105328448","1","1","4","251","0","left","out","Female","Right-handed","0","2","no","left","s","691.15051173","496.244134165","13","green","0"
"100","89","19","676.022023223","1","1","4","252","0","right","out","Female","Right-handed","0","2","no","right","s","617.825658037","423.887191249","13","green","3"
"100","90","19","672.892236381","1","1","4","253","3","left","in","Female","Right-handed","0","2","no","left","s","605.320751136","496.34034796","13","green","1"
"100","90","19","671.857784184","1","1","4","254","3","left","in","Female","Right-handed","0","2","no","left","d","564.974137733","695.985254915","13","green","3"
"100","88","19","666.54468132","1","0","4","255","0","left","in","Female","Right-handed","0","2","no","left","s","561.741674941","335.673252823","13","green","3"
"100","88","19","667.108537842","1","1","4","256","2","right","in","Female","Right-handed","0","2","no","right","d","541.262889441","840.318134118","13","green","3"
"100","88","19","667.547423779","1","1","4","257","1","right","in","Female","Right-handed","0","2","no","right","s","604.977909312","767.861128857","13","green","0"
"100","88","19","667.201743651","1","1","4","258","0","left","in","Female","Right-handed","0","2","no","left","d","711.533083435","592.450552525","13","red","1"
"100","89","19","668.340664685","1","1","4","259","1","right","out","Female","Right-handed","0","2","no","right","d","791.028769208","648.155453269","13","red","2"
"100","89","19","666.932315684","1","1","4","260","0","right","out","Female","Right-handed","0","2","no","right","d","548.543387291","655.753135929","13","green","0"
"100","89","19","664.148033395","1","1","4","261","1","right","in","Female","Right-handed","0","2","no","right","s","482.355031469","584.218500244","13","red","3"
"100","89","19","668.112180756","1","1","4","262","2","left","out","Female","Right-handed","0","2","no","left","d","668.97804273","1047.80446535","13","green","0"
"100","88","19","668.029361885","1","0","4","263","2","right","out","Female","Right-handed","0","2","no","right","s","736.438344917","591.504129497","13","green","0"
"100","88","19","669.10225914","1","1","4","264","3","left","out","Female","Right-handed","0","2","no","left","d","837.242499814","608.251744034","13","green","0"
"100","86","19","669.413370061","1","0","4","265","0","left","in","Female","Right-handed","0","2","no","left","d","778.68453934","591.875514745","13","red","1"
"100","86","19","670.996072613","1","1","4","266","3","right","in","Female","Right-handed","0","2","no","right","s","491.281426632","1015.31178401","13","red","3"
"100","87","19","671.829712701","1","1","4","267","1","right","out","Female","Right-handed","0","2","no","right","s","560.020410154","872.004864568","13","red","0"
"100","87","19","669.305741083","1","1","4","268","0","left","out","Female","Right-handed","0","2","no","left","s","650.555666736","415.466880646","13","red","0"
"100","87","19","667.543815762","1","1","4","269","1","right","in","Female","Right-handed","0","2","no","right","s","685.152864476","456.122981756","13","red","1"
"100","87","19","668.309382175","1","1","4","270","0","left","out","Female","Right-handed","0","2","no","left","d","526.718570802","895.6436318","13","red","1"
"100","87","19","666.25123596","1","1","4","271","1","right","in","Female","Right-handed","0","2","no","right","s","483.441926635","614.431876786","13","green","0"
"100","88","19","663.282028442","1","1","4","272","2","right","in","Female","Right-handed","0","2","no","right","s","542.097383753","440.038600975","13","green","0"
"100","88","19","663.881849246","1","1","4","273","2","left","out","Female","Right-handed","0","2","no","left","d","518.774518481","879.768034955","13","red","0"
"100","86","19","662.099831581","1","0","4","274","3","right","in","Female","Right-handed","0","2","no","right","s","502.230877188","608.126666102","13","red","0"
"100","87","19","659.700715508","1","1","4","275","3","right","in","Female","Right-handed","0","2","no","right","s","562.806761649","463.902508487","13","green","0"
"100","87","19","659.465939726","1","1","4","276","1","left","out","Female","Right-handed","0","2","no","left","s","866.284633759","423.535048761","13","red","3"
"100","85","19","664.185924259","1","0","4","277","2","right","out","Female","Right-handed","0","2","no","right","s","1147.07497236","776.014927249","13","green","1"
"100","100","19","628.641371419","1","1","5","278","3","left","out","Female","Right-handed","0","2","no","left","d","609.210354143","648.072388694","13","green","2"
"100","100","19","559.219991559","1","1","5","279","2","right","out","Female","Right-handed","0","2","no","right","s","523.71734183","455.879881567","13","red","3"
"100","100","19","564.642788113","1","1","5","280","0","left","out","Female","Right-handed","0","2","no","left","d","542.488011762","608.488750682","13","green","3"
"100","100","19","574.259209905","1","1","5","281","2","left","in","Female","Right-handed","0","2","no","left","s","750.163242739","456.053707824","13","green","0"
"100","100","19","588.164260039","1","1","5","282","1","left","out","Female","Right-handed","0","2","no","left","d","606.828742011","680.740179137","13","green","3"
"100","100","19","623.528196201","1","1","5","283","2","right","in","Female","Right-handed","0","2","no","right","s","1152.30130568","448.394448336","13","green","1"
"100","100","19","610.003339077","1","1","5","284","0","left","in","Female","Right-handed","0","2","no","left","s","665.9043327","391.804059966","13","green","1"
"100","100","19","606.830345574","1","1","5","285","0","right","in","Female","Right-handed","0","2","no","right","d","584.604638274","584.634143837","13","green","3"
"100","88","19","608.637026831","1","0","5","286","1","left","in","Female","Right-handed","0","2","no","left","d","590.069261103","656.111692671","13","red","1"
"100","90","19","603.547322434","1","1","5","287","0","left","out","Female","Right-handed","0","2","no","left","d","538.77736641","576.702599312","13","green","0"
"100","90","19","601.162026479","1","1","5","288","3","left","out","Female","Right-handed","0","2","no","left","s","778.238748759","376.379385105","13","green","0"
"100","91","19","605.772661983","1","1","5","289","0","left","out","Female","Right-handed","0","2","no","left","d","705.071364979","607.907940075","13","red","2"
"100","92","19","597.488861896","1","1","5","290","0","right","out","Female","Right-handed","0","2","no","right","s","563.584169111","432.582352594","13","green","0"
"100","92","19","588.440281381","1","1","5","291","1","right","out","Female","Right-handed","0","2","no","right","s","549.205017485","392.412451861","13","green","1"
"100","93","19","592.604847379","1","1","5","292","2","right","out","Female","Right-handed","0","2","no","right","d","541.958835891","759.858706835","13","red","3"
"100","93","19","589.039132075","1","1","5","293","1","right","in","Female","Right-handed","0","2","no","right","s","654.528975747","416.577829263","13","green","3"
"100","94","19","581.725874372","1","1","5","294","3","left","in","Female","Right-handed","0","2","no","left","s","505.210618412","424.216883854","13","green","3"
"100","88","19","600.253090387","1","0","5","295","2","left","out","Female","Right-handed","0","2","no","left","s","1086.69376047","743.737764813","13","green","0"
"100","89","19","639.411265089","1","1","5","296","0","right","in","Female","Right-handed","0","2","no","right","s","720.36903763","1968.14778182","13","red","1"
"100","90","19","635.856491994","1","1","5","297","3","left","in","Female","Right-handed","0","2","no","left","d","496.763367944","639.868238415","13","green","3"
"100","90","19","638.980689067","1","1","5","298","0","left","out","Female","Right-handed","0","2","no","left","d","658.454498571","744.474762481","13","red","1"
"100","90","19","642.02855882","1","1","5","299","3","left","in","Female","Right-handed","0","2","no","left","d","732.010265372","680.057381907","13","green","0"
"100","91","19","662.531606929","1","1","5","300","2","right","out","Female","Right-handed","0","2","no","right","s","635.514564203","1591.68276644","13","green","0"
"100","91","19","653.728603923","1","1","5","301","0","right","out","Female","Right-handed","0","2","no","right","s","542.291414908","360.227654666","13","green","0"
"100","92","19","651.577829263","1","1","5","302","1","right","in","Female","Right-handed","0","2","no","right","d","568.004551553","631.913923291","13","red","1"
"100","92","19","648.84676172","1","1","5","303","1","right","out","Female","Right-handed","0","2","no","right","s","705.622990736","455.517155562","13","green","2"
"100","92","19","648.243898691","1","1","5","304","2","right","in","Female","Right-handed","0","2","no","right","d","633.05790531","632.081014581","13","green","2"
"100","92","19","661.333014866","1","1","5","305","3","left","out","Female","Right-handed","0","2","no","left","d","1301.67193918","727.806363964","13","green","0"
"100","93","19","658.592023474","1","1","5","306","2","right","out","Female","Right-handed","0","2","no","right","d","563.27403998","600.414489029","13","green","0"
"100","93","19","659.587084602","1","1","5","307","1","right","in","Female","Right-handed","0","2","no","right","s","512.958715302","863.928999349","13","red","0"
"100","93","19","661.519001045","1","1","5","308","1","right","out","Female","Right-handed","0","2","no","right","d","575.546430211","863.406558445","13","red","0"
"100","90","19","662.929201721","1","0","5","309","2","right","in","Female","Right-handed","0","2","no","right","d","629.079144184","784.211701137","13","red","2"
"100","90","19","658.862965005","1","1","5","310","3","right","in","Female","Right-handed","0","2","no","right","d","569.686047973","487.800732251","13","red","1"
"100","91","19","658.419654086","1","1","5","311","0","right","in","Female","Right-handed","0","2","no","right","d","536.20236455","751.378422965","13","green","3"
"100","91","19","653.08803214","1","1","5","312","2","left","in","Female","Right-handed","0","2","no","left","s","519.904389144","423.721382811","13","red","1"
"100","91","19","654.852668351","1","1","5","313","0","left","in","Female","Right-handed","0","2","no","left","s","817.516747615","615.71312382","13","red","0"
"100","91","19","649.655101283","1","1","5","314","0","left","in","Female","Right-handed","0","2","no","left","s","508.850386266","416.234987441","13","green","0"
"100","92","19","647.478639862","1","1","5","315","3","left","out","Female","Right-handed","0","2","no","left","d","549.934959474","583.964175114","13","red","0"
"100","92","19","644.554656113","1","1","5","316","1","left","out","Female","Right-handed","0","2","no","left","s","635.376016338","431.510530922","13","green","2"
"100","92","19","657.392013646","1","1","5","317","1","right","in","Female","Right-handed","0","2","no","right","d","1691.98885459","624.10906026","13","red","0"
"100","92","19","662.505396577","1","1","5","318","2","right","out","Female","Right-handed","0","2","no","right","s","990.53288331","743.54854435","13","red","1"
"100","92","19","669.580719067","1","1","5","319","0","right","in","Female","Right-handed","0","2","no","right","d","1351.14699672","568.190885602","13","red","2"
"100","93","19","666.725991048","1","1","5","320","1","left","out","Female","Right-handed","0","2","no","left","s","597.806774478","495.848054044","13","red","0"
"100","93","19","667.045789107","1","1","5","321","2","right","out","Female","Right-handed","0","2","no","right","s","906.350302881","455.243908384","13","red","1"
"100","93","19","665.66499554","1","1","5","322","3","left","in","Female","Right-handed","0","2","no","left","s","713.939711153","495.880446022","13","green","1"
"100","93","19","666.610517551","1","1","5","323","1","right","in","Female","Right-handed","0","2","no","right","s","994.665265794","423.652750304","13","green","3"
"100","93","19","668.633048038","1","1","5","324","3","right","in","Female","Right-handed","0","2","no","right","d","700.162537171","823.176363734","13","red","1"
"100","93","19","669.138165201","1","1","5","325","0","right","out","Female","Right-handed","0","2","no","right","d","697.894457315","687.862886363","13","red","1"
"100","93","19","666.115024547","1","1","5","326","2","left","in","Female","Right-handed","0","2","no","left","s","562.450770609","479.557775741","13","red","3"
"100","94","19","662.174681917","1","1","5","327","3","left","in","Female","Right-handed","0","2","no","left","s","507.026172718","431.169613375","13","red","3"
"100","94","19","659.34919568","1","1","5","328","1","right","out","Female","Right-handed","0","2","no","right","s","668.377989363","367.771778314","13","red","1"
"100","94","19","658.503129711","1","1","5","329","0","left","out","Female","Right-handed","0","2","no","left","d","631.320604889","599.386925698","13","red","3"
"100","94","19","656.934886401","1","1","5","330","0","left","in","Female","Right-handed","0","2","no","left","s","798.917338238","351.855130248","13","green","0"
"100","94","19","654.584263044","1","1","5","331","1","right","in","Female","Right-handed","0","2","no","right","s","612.493168821","447.509281424","13","green","0"
"100","94","19","653.914796445","1","1","5","332","3","right","out","Female","Right-handed","0","2","no","right","d","420.184884428","815.342315853","13","green","0"
"100","94","19","655.554614798","1","1","5","333","1","right","out","Female","Right-handed","0","2","no","right","d","491.865123655","999.624124775","13","green","0"
"100","94","19","657.516717906","1","1","5","334","2","left","in","Female","Right-handed","0","2","no","left","d","567.455491499","967.333492408","13","red","0"
"100","94","19","653.301345785","1","1","5","335","1","left","out","Female","Right-handed","0","2","no","left","s","482.927503546","343.122766237","13","red","3"
"100","94","19","652.867029209","1","1","5","336","3","left","out","Female","Right-handed","0","2","no","left","s","511.673940429","743.679395109","13","red","3"
"100","95","19","654.614913373","1","1","5","337","3","right","out","Female","Right-handed","0","2","no","right","d","900.22084273","615.259315419","13","red","1"
"100","93","19","664.234076995","1","0","5","338","3","left","in","Female","Right-handed","0","2","no","left","s","1802.84863389","679.919154754","13","red","0"
"100","93","19","664.582743119","1","1","5","339","2","right","in","Female","Right-handed","0","2","no","right","d","484.477828493","887.224924762","13","green","0"
"100","92","19","665.915572914","1","0","5","340","3","left","out","Female","Right-handed","0","2","no","left","s","593.015968925","904.086071578","13","red","2"
"100","92","19","666.386704568","1","1","5","341","2","left","in","Female","Right-handed","0","2","no","left","d","544.567833291","847.568164267","13","red","3"
"100","100","19","563.852765953","1","1","6","342","3","right","in","Female","Right-handed","0","2","no","right","d","559.892445805","567.813086102","13","green","0"
"100","100","19","573.625521799","1","1","6","343","1","left","in","Female","Right-handed","0","2","no","left","s","790.425508714","376.371046576","13","red","1"
"100","100","19","530.093430009","1","1","6","344","2","left","in","Female","Right-handed","0","2","no","left","s","494.006201299","392.052291556","13","red","2"
"100","100","19","527.459056219","1","1","6","345","3","right","in","Female","Right-handed","0","2","no","right","s","623.549416688","415.562453016","13","green","1"
"100","100","19","571.024959141","1","1","6","346","2","right","out","Female","Right-handed","0","2","no","right","d","714.312379252","776.264762404","13","red","0"
"100","100","19","610.99773919","1","1","6","347","2","right","in","Female","Right-handed","0","2","no","right","d","573.688541835","1048.03473703","13","red","3"
"100","100","19","610.209992563","1","1","6","348","2","right","in","Female","Right-handed","0","2","no","right","d","571.413727015","639.553298593","13","red","0"
"100","100","19","598.807037141","1","1","6","349","1","right","in","Female","Right-handed","0","2","no","right","s","517.992621044","519.980077331","13","green","0"
"100","100","19","590.725082837","1","1","6","350","0","right","out","Female","Right-handed","0","2","no","right","d","396.53072299","655.608173811","13","red","0"
"100","100","19","593.044736849","1","1","6","351","2","left","out","Female","Right-handed","0","2","no","left","d","596.450480683","631.392765236","13","green","1"
"100","100","19","599.444858067","1","1","6","352","2","left","in","Female","Right-handed","0","2","no","left","d","726.976359629","599.915780859","13","green","0"
"100","100","19","632.868658121","1","1","6","353","1","left","in","Female","Right-handed","0","2","no","left","s","793.512367964","1207.54854948","13","red","3"
"100","100","19","627.496143554","1","1","6","354","2","left","in","Female","Right-handed","0","2","no","left","s","630.023001512","496.028935979","13","red","1"
"100","100","19","625.260601936","1","1","6","355","2","right","out","Female","Right-handed","0","2","no","right","s","624.593977785","567.803144011","13","red","1"
"100","100","19","625.000320713","1","1","6","356","3","right","out","Female","Right-handed","0","2","no","right","d","563.429264901","679.283502284","13","red","0"
"100","100","19","627.660572004","1","1","6","357","3","left","in","Female","Right-handed","0","2","no","left","d","599.088983648","736.039699095","13","green","3"
"100","100","19","633.647601545","1","1","6","358","1","right","out","Female","Right-handed","0","2","no","right","d","683.453728861","775.426419539","13","green","0"
"100","100","19","635.234136626","1","1","6","359","3","right","in","Female","Right-handed","0","2","no","right","s","764.162349875","560.248116133","13","green","2"
"100","100","19","640.499240553","1","1","6","360","2","right","out","Female","Right-handed","0","2","no","right","s","646.761636097","823.780586365","13","green","1"
"100","100","19","634.869506834","1","1","6","361","3","left","out","Female","Right-handed","0","2","no","left","s","536.317179678","519.491952678","13","green","3"
"100","100","19","631.734690736","1","1","6","362","0","left","out","Female","Right-handed","0","2","no","left","s","665.985473001","472.091264557","13","red","1"
"100","95","19","623.370626675","1","0","6","363","0","left","in","Female","Right-handed","0","2","no","left","s","559.617595065","335.832967721","13","red","3"
"100","95","19","627.103881951","1","1","6","364","1","right","in","Female","Right-handed","0","2","no","right","d","651.34558199","767.12541404","13","red","1"
"100","95","19","622.446305487","1","1","6","365","0","right","out","Female","Right-handed","0","2","no","right","s","686.893692737","343.750400891","13","green","1"
"100","92","19","626.872185747","1","0","6","366","0","left","out","Female","Right-handed","0","2","no","left","s","810.68717175","655.499452223","13","green","0"
"100","92","19","626.817275054","1","1","6","367","3","right","out","Female","Right-handed","0","2","no","right","d","458.984380011","791.904635453","13","red","0"
"100","92","19","641.778652397","1","1","6","368","3","left","out","Female","Right-handed","0","2","no","left","d","765.854429812","1295.69449683","13","red","2"
"100","92","19","639.722881134","1","1","6","369","3","right","out","Female","Right-handed","0","2","no","right","d","585.103346444","583.330767633","13","red","0"
"100","93","19","641.261530283","1","1","6","370","0","left","out","Female","Right-handed","0","2","no","left","s","744.822735704","623.864677222","13","red","1"
"100","93","19","637.133388026","1","1","6","371","0","left","in","Female","Right-handed","0","2","no","left","s","667.36678238","367.467742722","13","red","0"
"100","93","19","634.98644358","1","1","6","372","0","left","in","Female","Right-handed","0","2","no","left","s","662.028841047","479.127379367","13","green","3"
"100","93","19","630.760595504","1","1","6","373","0","left","out","Female","Right-handed","0","2","no","left","s","607.786389983","391.732220332","13","green","3"
"100","93","19","633.535295807","1","1","6","374","1","right","out","Female","Right-handed","0","2","no","right","d","797.373106832","647.278304174","13","red","1"
"100","94","19","631.183113491","1","1","6","375","1","right","in","Female","Right-handed","0","2","no","right","s","691.049487244","416.072706841","13","red","0"
"100","94","19","627.479750203","1","1","6","376","1","right","out","Female","Right-handed","0","2","no","right","s","571.55227488","431.578522","13","green","0"
"100","94","19","626.114645721","1","1","6","377","0","left","in","Female","Right-handed","0","2","no","left","d","469.242374094","687.429603573","13","green","0"
"100","94","19","622.311175487","1","1","6","378","2","left","in","Female","Right-handed","0","2","no","left","s","506.944390993","463.828103151","13","green","0"
"100","94","19","620.880998829","1","1","6","379","1","right","out","Female","Right-handed","0","2","no","right","s","672.496581203","463.432343744","13","green","0"
"100","94","19","619.373318602","1","1","6","380","3","left","in","Female","Right-handed","0","2","no","left","s","789.040671494","335.122268491","13","green","1"
"100","95","19","620.44460154","1","1","6","381","1","left","out","Female","Right-handed","0","2","no","left","s","564.708266946","759.741005293","13","red","3"
"100","95","19","619.871699139","1","1","6","382","2","right","in","Female","Right-handed","0","2","no","right","s","530.401634864","663.509571348","13","red","3"
"100","95","19","628.316982028","1","1","6","383","3","right","in","Female","Right-handed","0","2","no","right","d","782.142142412","1167.00501851","13","green","1"
"100","95","19","634.612257811","1","1","6","384","0","left","out","Female","Right-handed","0","2","no","left","d","990.538656139","807.489025214","13","green","0"
"100","95","19","632.384609192","1","1","6","385","1","left","out","Female","Right-handed","0","2","no","left","s","522.088121574","551.103315657","13","red","3"
"100","95","19","629.223675122","1","1","6","386","3","right","out","Female","Right-handed","0","2","no","right","d","396.707435659","583.577716372","13","green","3"
"100","95","19","630.772608067","1","1","6","387","3","left","in","Female","Right-handed","0","2","no","left","d","857.494862183","543.454318973","13","green","0"
"100","93","19","638.414256914","1","0","6","388","2","right","in","Female","Right-handed","0","2","no","right","s","916.909766855","1062.95044092","13","red","2"
"100","93","19","638.771658393","1","1","6","389","1","right","in","Female","Right-handed","0","2","no","right","d","583.570660694","727.568395179","13","green","3"
"100","93","19","636.166808644","1","1","6","390","2","right","out","Female","Right-handed","0","2","no","right","s","511.124238948","511.143802421","13","red","0"
"100","94","19","636.338891925","1","1","6","391","0","right","in","Female","Right-handed","0","2","no","right","s","777.713421439","511.828523926","13","red","2"
"100","94","19","633.654801858","1","1","6","392","3","left","in","Female","Right-handed","0","2","no","left","s","519.455391435","479.445205601","13","red","3"
"100","92","19","635.54555923","1","0","6","393","0","right","in","Female","Right-handed","0","2","no","right","s","545.040243024","918.90812737","13","green","3"
"100","92","19","655.809073055","1","1","6","394","0","right","out","Female","Right-handed","0","2","no","right","d","891.548451984","2527.47513194","13","green","0"
"100","92","19","656.191805502","1","1","6","395","0","left","out","Female","Right-handed","0","2","no","left","s","737.916188806","615.037061554","13","green","1"
"100","92","19","655.128058228","1","1","6","396","3","left","out","Female","Right-handed","0","2","no","left","d","571.59108111","623.780329796","13","green","1"
"100","91","19","654.228522401","1","0","6","397","2","left","out","Female","Right-handed","0","2","no","left","s","754.243990486","455.26411328","13","red","0"
"100","91","19","655.196254986","1","1","6","398","1","right","out","Female","Right-handed","0","2","no","right","s","787.922667201","630.855892261","13","green","2"
"100","91","19","656.242347133","1","1","6","399","1","right","in","Female","Right-handed","0","2","no","right","s","648.416834079","783.322364959","13","green","2"
"100","91","19","653.942775536","1","1","6","400","0","left","out","Female","Right-handed","0","2","no","left","d","514.062608241","527.072637565","13","red","2"
"100","90","19","663.953271953","1","0","6","401","1","right","in","Female","Right-handed","0","2","no","right","d","1477.58443081","1031.56069038","13","red","1"
"100","88","19","667.53102143","1","0","6","402","2","left","out","Female","Right-handed","0","2","no","left","s","621.243172027","1143.1488081","13","green","3"
"100","87","19","671.807695606","1","0","6","403","3","left","out","Female","Right-handed","0","2","no","left","s","786.651041548","1078.71859902","13","red","0"
"100","87","19","670.181496582","1","1","6","404","1","left","in","Female","Right-handed","0","2","no","left","d","427.320420159","711.393894144","13","red","0"
"100","87","19","669.731694905","1","1","6","405","2","left","in","Female","Right-handed","0","2","no","left","s","491.783983354","791.004395045","13","green","3"
"100","100","19","1153.78171528","1","1","7","406","2","right","out","Female","Right-handed","0","2","no","right","d","892.244398434","1415.31903212","13","green","1"
"100","100","19","920.301222942","1","1","7","407","0","left","out","Female","Right-handed","0","2","no","left","s","797.839743738","575.801717479","13","red","0"
"100","100","19","842.1482274","1","1","7","408","1","left","in","Female","Right-handed","0","2","no","left","d","692.252159679","679.432312952","13","red","0"
"100","75","19","853.857379406","1","0","7","409","0","right","out","Female","Right-handed","0","2","no","right","s","546.033810812","1231.93586004","13","red","0"
"100","80","19","795.70851197","1","1","7","410","0","left","out","Female","Right-handed","0","2","no","left","d","518.595240111","607.630844344","13","red","1"
"100","83","19","753.379696623","1","1","7","411","3","left","out","Female","Right-handed","0","2","no","left","d","532.200512113","551.270727657","13","red","3"
"100","85","19","816.361242848","1","1","7","412","2","right","out","Female","Right-handed","0","2","no","right","d","1060.91712272","1327.58391767","13","green","0"
"100","87","19","789.120168143","1","1","7","413","1","right","out","Female","Right-handed","0","2","no","right","d","581.39109753","615.474192895","13","red","3"
"100","88","19","752.546476252","1","1","7","414","0","right","in","Female","Right-handed","0","2","no","right","s","527.963898017","391.949984223","13","red","3"
"100","90","19","735.857726737","1","1","7","415","0","left","out","Female","Right-handed","0","2","no","left","d","619.687394966","551.63056725","13","red","0"
"100","90","19","767.433429384","1","1","7","416","0","right","in","Female","Right-handed","0","2","no","right","s","1111.16028705","1055.22062465","13","green","1"
"100","91","19","758.289433117","1","1","7","417","2","right","in","Female","Right-handed","0","2","no","right","d","659.835166527","655.575781835","13","green","0"
"100","92","19","760.456959277","1","1","7","418","1","right","in","Female","Right-handed","0","2","no","right","d","925.467342473","647.467203926","13","red","2"
"100","92","19","750.064692323","1","1","7","419","2","left","in","Female","Right-handed","0","2","no","left","d","525.911016353","704.019427492","13","red","0"
"100","93","19","737.723397741","1","1","7","420","0","left","in","Female","Right-handed","0","2","no","left","s","610.619244809","519.271302375","13","green","3"
"100","93","19","721.044428404","1","1","7","421","1","left","in","Female","Right-handed","0","2","no","left","s","526.260913852","415.45886283","13","green","3"
"100","94","19","712.117780325","1","1","7","422","0","right","out","Female","Right-handed","0","2","no","right","s","706.806420411","431.776401707","13","red","2"
"100","94","19","709.665056974","1","1","7","423","0","right","in","Female","Right-handed","0","2","no","right","d","696.484283795","639.45323625","13","green","2"
"100","94","19","707.029695493","1","1","7","424","2","right","in","Female","Right-handed","0","2","no","right","d","664.135923151","655.050454512","13","red","1"
"100","95","19","702.436686513","1","1","7","425","3","left","in","Female","Right-handed","0","2","no","left","s","710.780370846","519.558660912","13","green","1"
"100","90","19","701.077896887","1","0","7","426","1","left","out","Female","Right-handed","0","2","no","left","s","708.373101701","639.431107073","13","green","1"
"100","90","19","699.31698556","1","1","7","427","1","right","in","Female","Right-handed","0","2","no","right","s","604.841927147","719.833768217","13","red","0"
"100","86","19","692.502071525","1","0","7","428","3","right","out","Female","Right-handed","0","2","no","right","s","549.679992917","535.467932586","13","green","0"
"100","87","19","685.237105","1","1","7","429","0","left","in","Female","Right-handed","0","2","no","left","s","541.116003049","495.169746791","13","green","1"
"100","84","19","690.958064897","1","0","7","430","2","left","out","Female","Right-handed","0","2","no","left","d","896.769333201","759.752871661","13","red","0"
"100","80","19","689.782468751","1","0","7","431","1","right","out","Female","Right-handed","0","2","no","right","s","601.341669295","719.443460926","13","red","0"
"100","81","19","688.140522552","1","1","7","432","3","left","in","Female","Right-handed","0","2","no","left","d","603.991076492","686.908766231","13","green","1"
"100","82","19","683.837736443","1","1","7","433","0","right","in","Female","Right-handed","0","2","no","right","s","543.720510472","591.604512556","13","red","3"
"100","79","19","687.638271388","1","0","7","434","0","left","in","Female","Right-handed","0","2","no","left","s","621.072232189","967.034267506","13","red","1"
"100","76","19","697.158020895","1","0","7","435","0","right","out","Female","Right-handed","0","2","no","right","d","938.775634564","1007.68587864","13","green","0"
"100","77","19","694.791340005","1","1","7","436","3","left","in","Female","Right-handed","0","2","no","left","s","736.24976588","511.332060745","13","green","2"
"100","78","19","700.058906896","1","1","7","437","1","right","in","Female","Right-handed","0","2","no","right","s","1047.78746757","678.919493428","13","red","1"
"100","78","19","702.236245723","1","1","7","438","0","right","in","Female","Right-handed","0","2","no","right","d","736.44956986","807.372606523","13","green","3"
"100","79","19","699.703630384","1","1","7","439","2","right","out","Female","Right-handed","0","2","no","right","s","609.111253936","623.143394474","13","green","3"
"100","80","19","713.087169881","1","1","7","440","2","left","out","Female","Right-handed","0","2","no","left","s","1816.75441365","519.500611921","13","green","1"
"100","80","19","718.938356321","1","1","7","441","2","right","in","Female","Right-handed","0","2","no","right","d","1192.1995628","655.260200587","13","red","3"
"100","81","19","722.731276986","1","1","7","442","3","left","out","Female","Right-handed","0","2","no","left","s","1031.79801774","686.754824161","13","red","0"
"100","81","19","721.408585485","1","1","7","443","1","right","in","Female","Right-handed","0","2","no","right","d","721.530017421","623.40798241","13","red","0"
"100","82","19","720.948672293","1","1","7","444","2","right","out","Female","Right-handed","0","2","no","right","d","647.993493381","758.950448613","13","green","2"
"100","82","19","724.388785833","1","1","7","445","3","left","out","Female","Right-handed","0","2","no","left","d","765.511908703","951.594519149","13","green","0"
"100","82","19","737.820913681","1","1","7","446","1","left","in","Female","Right-handed","0","2","no","left","s","2127.17154535","423.040509857","13","red","3"
"97","83","19","735.640522569","0","1","7","447","3","left","out","Female","Right-handed","0","2","no","right","s","786.791834398","505.697139499","13","green","2"
"97","83","19","730.948046431","1","1","7","448","0","right","out","Female","Right-handed","0","2","no","right","s","596.301990728","471.426106524","13","red","0"
"97","84","19","725.298788295","1","1","7","449","2","left","out","Female","Right-handed","0","2","no","left","s","597.991504965","366.769871998","13","red","2"
"95","84","19","727.926203592","0","1","7","450","3","left","in","Female","Right-handed","0","2","no","right","d","701.521396666","985.543556624","13","green","1"
"95","84","19","730.669899144","1","1","7","451","1","right","out","Female","Right-handed","0","2","no","right","s","1365.11563615","343.156761777","13","red","3"
"95","85","19","743.449471436","1","1","7","452","3","right","out","Female","Right-handed","0","2","no","right","d","1711.79093641","950.82865734","13","green","1"
"95","85","19","745.163522961","1","1","7","453","3","left","in","Female","Right-handed","0","2","no","left","s","788.08013711","863.367752212","13","red","0"
"95","85","19","741.677169679","1","1","7","454","3","right","out","Female","Right-handed","0","2","no","right","s","605.951592915","542.712831331","13","red","3"
"96","86","19","748.822651037","1","1","7","455","2","left","in","Female","Right-handed","0","2","no","left","s","1303.47145786","894.431017274","13","red","3"
"96","86","19","744.073044733","1","1","7","456","3","right","in","Female","Right-handed","0","2","no","right","s","518.026937298","495.158521848","13","green","3"
"96","86","19","744.69095056","1","1","7","457","2","left","out","Female","Right-handed","0","2","no","left","s","889.634438896","662.773856533","13","red","1"
"96","86","19","739.346089177","1","1","7","458","0","left","out","Female","Right-handed","0","2","no","left","s","491.329212815","431.497381702","13","green","0"
"96","87","19","737.245349999","1","1","7","459","1","right","in","Female","Right-handed","0","2","no","right","s","749.020543568","502.79180361","13","green","0"
"96","87","19","741.385734048","1","1","7","460","2","left","out","Female","Right-handed","0","2","no","left","d","1179.48041985","750.452525546","13","green","0"
"96","87","19","741.494952533","1","1","7","461","1","right","in","Female","Right-handed","0","2","no","right","d","631.930921059","863.073017292","13","green","0"
"96","87","19","744.139747172","1","1","7","462","2","left","in","Female","Right-handed","0","2","no","left","d","937.672703763","846.823790209","13","red","3"
"96","87","19","747.588721947","1","1","7","463","2","left","in","Female","Right-handed","0","2","no","left","d","1305.17732843","583.183239814","13","red","0"
"96","88","19","746.222143606","1","1","7","464","1","left","out","Female","Right-handed","0","2","no","left","d","774.872228081","559.048971539","13","green","1"
"96","88","19","745.393866136","1","1","7","465","3","right","in","Female","Right-handed","0","2","no","right","d","706.665306847","686.385683901","13","green","0"
"96","88","19","751.625455827","1","1","7","466","1","right","out","Female","Right-handed","0","2","no","right","s","1716.03236119","535.009313495","13","green","2"
"96","88","19","748.8991409","1","1","7","467","3","left","in","Female","Right-handed","0","2","no","left","s","630.660898972","534.52696167","13","green","3"
"96","88","19","745.077702261","1","1","7","468","1","right","out","Female","Right-handed","0","2","no","right","s","593.241429913","423.055583349","13","red","1"
"96","89","19","749.379957215","1","1","7","469","3","left","out","Female","Right-handed","0","2","no","left","d","1017.94258987","1022.90144885","13","green","0"
"100","100","19","753.526556289","1","1","8","470","2","left","in","Female","Right-handed","0","2","no","left","s","1059.52875766","447.524354917","13","green","0"
"100","100","19","670.341472379","1","1","8","471","1","left","out","Female","Right-handed","0","2","no","left","s","823.116390471","351.196386466","13","red","0"
"100","100","19","657.339808308","1","1","8","472","3","right","out","Female","Right-handed","0","2","no","right","d","686.784009012","575.88895132","13","red","0"
"100","100","19","651.117795831","1","1","8","473","3","left","in","Female","Right-handed","0","2","no","left","d","713.36820121","551.535315594","13","green","3"
"100","100","19","657.318534369","1","1","8","474","1","right","in","Female","Right-handed","0","2","no","right","d","821.069923055","543.173053982","13","red","1"
"100","100","19","645.533360102","1","1","8","475","3","left","out","Female","Right-handed","0","2","no","left","d","589.694989441","583.519988097","13","red","3"
"100","100","19","733.278752622","1","1","8","476","2","right","out","Female","Right-handed","0","2","no","right","s","1840.28285573","679.219359754","13","red","3"
"100","100","19","755.345899015","1","1","8","477","0","left","in","Female","Right-handed","0","2","no","left","s","652.845234341","1166.7866132","13","red","3"
"100","88","19","782.007051117","1","0","8","478","3","left","out","Female","Right-handed","0","2","no","left","s","903.405519337","1087.18701653","13","green","0"
"100","90","19","763.602465767","1","1","8","479","2","right","out","Female","Right-handed","0","2","no","right","s","788.98550892","406.936886317","13","red","2"
"100","90","19","766.04124493","1","1","8","480","2","right","in","Female","Right-handed","0","2","no","right","d","805.360455361","775.497617746","13","green","3"
"100","91","19","751.830173459","1","1","8","481","2","right","out","Female","Right-handed","0","2","no","right","d","552.051021536","638.96575302","13","red","2"
"100","92","19","817.241822864","1","1","8","482","3","right","in","Female","Right-handed","0","2","no","right","s","2692.64888123","511.714350224","13","green","1"
"100","92","19","799.67774793","1","1","8","483","2","right","in","Female","Right-handed","0","2","no","right","s","743.314424118","399.375123474","13","red","3"
"100","93","19","796.491831235","1","1","8","484","0","right","out","Female","Right-handed","0","2","no","right","d","976.863148066","526.914846945","13","green","3"
"100","93","19","785.204477165","1","1","8","485","0","left","in","Female","Right-handed","0","2","no","left","d","720.367434071","511.420898151","13","red","3"
"100","94","19","778.583222443","1","1","8","486","2","right","in","Female","Right-handed","0","2","no","right","d","834.151150589","511.135143177","13","red","0"
"100","94","19","791.894586456","1","1","8","487","2","left","out","Female","Right-handed","0","2","no","left","d","1036.73506826","999.640481121","13","green","0"
"100","94","19","781.831068022","1","1","8","488","1","right","out","Female","Right-handed","0","2","no","right","d","650.352976343","551.022496067","13","green","1"
"100","95","19","772.229900618","1","1","8","489","1","right","in","Female","Right-handed","0","2","no","right","d","596.816734527","582.798705345","13","red","1"
"100","95","19","779.621363898","1","1","8","490","2","left","out","Female","Right-handed","0","2","no","left","d","1383.50914801","471.39211098","13","green","0"
"100","95","19","782.387502167","1","1","8","491","0","left","out","Female","Right-handed","0","2","no","left","d","1178.05870068","502.894110945","13","red","2"
"100","95","19","784.702272966","1","1","8","492","1","left","out","Female","Right-handed","0","2","no","left","s","1024.69904325","646.555417861","13","red","0"
"100","95","19","772.179404411","1","1","8","493","0","right","out","Female","Right-handed","0","2","no","right","s","577.188799689","391.118055606","13","red","0"
"100","96","19","767.863906229","1","1","8","494","1","left","in","Female","Right-handed","0","2","no","left","s","929.799849651","398.78405006","13","green","3"
"100","96","19","774.658929499","1","1","8","495","3","left","out","Female","Right-handed","0","2","no","left","s","1530.46673953","358.602282962","13","green","1"
"100","96","19","776.061222715","1","1","8","496","2","left","in","Female","Right-handed","0","2","no","left","s","1282.05587071","342.985821935","13","red","1"
"100","96","19","766.011034944","1","1","8","497","3","left","in","Female","Right-handed","0","2","no","left","s","622.630254238","366.681676016","13","red","0"
"100","96","19","765.105073648","1","1","8","498","3","right","out","Female","Right-handed","0","2","no","right","d","760.266974041","719.209340692","13","red","2"
"100","96","19","761.593254472","1","1","8","499","2","left","out","Female","Right-handed","0","2","no","left","d","864.623662947","454.877333825","13","green","1"
"100","96","19","759.73436861","1","1","8","500","2","right","out","Female","Right-handed","0","2","no","right","s","897.544495671","510.391089832","13","green","3"
"100","96","19","768.257544725","1","1","8","501","1","left","out","Female","Right-handed","0","2","no","left","d","1402.03767989","662.914328674","13","red","2"
"100","96","19","766.993989884","1","1","8","502","3","left","in","Female","Right-handed","0","2","no","left","s","1014.58985983","438.530610096","13","red","0"
"100","97","19","770.409917175","1","1","8","503","1","left","out","Female","Right-handed","0","2","no","left","d","1119.09792512","647.173110429","13","green","3"
"100","97","19","769.222705246","1","1","8","504","1","right","in","Female","Right-handed","0","2","no","right","s","930.829657966","526.88534138","13","green","2"
"100","97","19","771.30988115","1","1","8","505","3","right","in","Female","Right-handed","0","2","no","right","s","1154.32692678","534.395148774","13","green","1"
"100","97","19","767.001111885","1","1","8","506","0","right","out","Female","Right-handed","0","2","no","right","d","632.877664801","590.893171899","13","red","0"
"100","97","19","777.775833809","1","1","8","507","2","left","in","Female","Right-handed","0","2","no","left","d","1882.45785194","470.423238068","13","green","0"
"100","97","19","778.808790823","1","1","8","508","0","right","in","Female","Right-handed","0","2","no","right","s","1132.97772715","503.144587525","13","red","1"
"100","97","19","778.406689938","1","1","8","509","0","left","out","Female","Right-handed","0","2","no","left","s","886.668167601","638.781343249","13","red","0"
"100","97","19","777.404426536","1","1","8","510","1","left","in","Female","Right-handed","0","2","no","left","s","723.203175312","751.424605591","13","green","0"
"100","97","19","778.095798732","1","1","8","511","1","left","out","Female","Right-handed","0","2","no","left","s","814.025469713","798.858647824","13","red","3"
"97","97","19","789.044617007","0","1","8","512","0","right","out","Female","Right-handed","0","2","no","left","s","2136.4273124","361.362656731","13","green","2"
"97","97","19","792.634198418","1","1","8","513","2","right","in","Female","Right-handed","0","2","no","right","s","1335.03727964","558.935118548","13","green","0"
"97","95","19","793.144674474","1","0","8","514","1","left","in","Female","Right-handed","0","2","no","left","s","1112.65641156","518.554830316","13","green","3"
"97","95","19","789.469886114","1","1","8","515","3","left","out","Female","Right-handed","0","2","no","left","s","857.053561576","391.155258276","13","green","2"
"97","95","19","785.358641219","1","1","8","516","0","right","out","Female","Right-handed","0","2","no","right","s","641.743765987","550.738986083","13","red","3"
"97","95","19","781.19243542","1","1","8","517","0","right","in","Female","Right-handed","0","2","no","right","d","532.222641286","638.538884486","13","red","0"
"97","95","19","778.576037016","1","1","8","518","0","left","in","Female","Right-handed","0","2","no","left","d","722.949491607","583.028335601","13","red","1"
"98","96","19","773.274710268","1","1","8","519","0","right","in","Female","Right-handed","0","2","no","right","d","492.468704863","534.550694407","13","red","0"
"98","96","19","770.144634362","1","1","8","520","1","right","in","Female","Right-handed","0","2","no","right","s","677.002914635","550.278763436","13","green","0"
"98","96","19","765.734227327","1","1","8","521","0","right","out","Female","Right-handed","0","2","no","right","d","506.931883199","574.675053944","13","green","0"
"98","96","19","759.361048546","1","1","8","522","3","left","out","Female","Right-handed","0","2","no","left","s","473.43761626","382.473887578","13","red","3"
"98","96","19","765.160048322","1","1","8","523","3","left","in","Female","Right-handed","0","2","no","left","d","1673.89456764","471.119505233","13","green","0"
"98","96","19","761.953587282","1","1","8","524","3","left","out","Female","Right-handed","0","2","no","left","s","650.824423934","526.784958318","13","green","0"
"98","96","19","758.718043619","1","1","8","525","3","left","in","Female","Right-handed","0","2","no","left","d","595.232414042","566.293870284","13","red","3"
"98","96","19","755.308635511","1","1","8","526","1","right","in","Female","Right-handed","0","2","no","right","d","633.942430799","494.821132142","13","green","0"
"98","96","19","752.28057106","1","1","8","527","1","right","out","Female","Right-handed","0","2","no","right","s","496.731617393","662.630177263","13","green","0"
"98","96","19","757.583201667","1","1","8","528","0","right","in","Female","Right-handed","0","2","no","right","s","876.203313859","1254.06823996","13","green","1"
"98","96","19","756.118641444","1","1","8","529","1","right","out","Female","Right-handed","0","2","no","right","s","804.818130273","534.601046293","13","green","1"
"98","95","19","759.563606509","1","0","8","530","3","right","in","Female","Right-handed","0","2","no","right","s","1302.23671416","630.286306594","13","red","1"
"98","95","19","760.342525144","1","1","8","531","2","left","in","Female","Right-handed","0","2","no","left","s","720.886347135","894.826776683","13","green","1"
"98","95","19","762.631079332","1","1","8","532","2","right","out","Female","Right-handed","0","2","no","right","d","898.634918682","910.407959316","13","green","1"
"98","95","19","759.68296382","1","1","8","533","0","left","in","Female","Right-handed","0","2","no","left","d","613.967805581","533.935567546","13","red","1"
dis_reply=Yes
dis_loc=1
tar_loc=0
