"acc_1","acc_2","age","avg_rt","correct_1","correct_2","count_block_loop","count_trial_sequence","cue_position","detection","dis_shape","gender","hand","high_loc","low_loc","practice","response_keyboard_response_1","response_keyboard_response_2","response_time_keyboard_response_1","response_time_keyboard_response_2","subject_nr","tar_color","tar_position"
"0","0","19","1171.68159417","0","0","0","0","2","left","out","Female","Right-handed","3","1","yes","right","s","756.912697349","1586.450491","10","green","1"
"50","0","19","1119.00561201","1","0","0","1","1","left","out","Female","Right-handed","3","1","yes","left","s","1307.36430702","825.294952658","10","green","1"
"66","33","19","1192.21688255","1","1","0","2","3","left","out","Female","Right-handed","3","1","yes","left","d","1291.70149181","1385.57735544","10","red","0"
"75","50","19","1149.11257624","1","1","0","3","0","left","out","Female","Right-handed","3","1","yes","left","d","1038.23784669","1001.36146799","10","green","2"
"80","60","19","1122.17111327","1","1","0","4","3","right","in","Female","Right-handed","3","1","yes","right","s","1195.01577635","833.794746433","10","red","2"
"83","66","19","1104.07399116","1","1","0","5","0","left","in","Female","Right-handed","3","1","yes","left","d","809.747276904","1217.4294843","10","green","1"
"85","57","19","1088.14289902","1","0","0","6","2","right","in","Female","Right-handed","3","1","yes","right","d","1127.1479603","857.964732046","10","red","1"
"87","62","19","1035.00726678","1","1","0","7","1","right","out","Female","Right-handed","3","1","yes","right","s","876.657735607","449.457946515","10","red","3"
"88","66","19","1076.30392855","1","1","0","8","1","left","in","Female","Right-handed","3","1","yes","left","d","1756.12788883","1057.22655661","10","red","0"
"90","70","19","1077.1977044","1","1","0","9","1","left","in","Female","Right-handed","3","1","yes","left","s","1272.82663846","897.656735593","10","green","0"
"90","72","19","1119.71593996","1","1","0","10","2","left","out","Female","Right-handed","3","1","yes","left","d","1520.50604915","1569.29054208","10","red","0"
"91","75","19","1088.66465381","1","1","0","11","0","right","out","Female","Right-handed","3","1","yes","right","s","596.475321348","897.72569098","10","red","0"
"92","76","19","1063.49234388","1","1","0","12","0","right","in","Female","Right-handed","3","1","yes","right","s","1041.33570754","481.513541876","10","red","1"
"92","78","19","1088.30528781","1","1","0","13","2","left","in","Female","Right-handed","3","1","yes","left","d","1355.93263283","1465.81448499","10","red","2"
"93","73","19","1079.84651065","1","0","0","14","2","right","out","Female","Right-handed","3","1","yes","right","d","1169.60812173","753.239139205","10","red","2"
"93","75","19","1063.32826645","1","1","0","15","0","right","out","Female","Right-handed","3","1","yes","right","d","845.011061727","786.098145003","10","red","3"
"94","76","19","1038.67167135","1","1","0","16","1","right","in","Female","Right-handed","3","1","yes","right","s","486.681667937","801.6506316","10","green","3"
"94","77","19","1022.56135622","1","1","0","17","2","right","out","Female","Right-handed","3","1","yes","right","d","576.109748752","921.262249203","10","red","3"
"94","78","19","1028.7840294","1","1","0","18","3","right","in","Female","Right-handed","3","1","yes","right","d","1215.80021283","1065.78408048","10","red","2"
"95","80","19","1010.78920082","1","1","0","19","2","left","out","Female","Right-handed","3","1","yes","left","d","544.451528855","793.323386652","10","red","3"
"95","80","19","986.731227236","1","1","0","20","3","right","out","Female","Right-handed","3","1","yes","right","d","473.0490276","538.094483634","10","green","3"
"95","77","19","991.904812526","1","0","0","21","0","right","out","Female","Right-handed","3","1","yes","right","d","839.477311753","1361.6228955","10","green","2"
"100","100","19","663.224616881","1","1","1","22","0","left","in","Female","Right-handed","3","1","no","left","d","796.650884971","529.798348791","10","green","1"
"100","100","19","707.344518432","1","1","1","23","2","right","in","Female","Right-handed","3","1","no","right","d","589.434495269","913.494344697","10","red","3"
"100","100","19","714.431742399","1","1","1","24","2","left","out","Female","Right-handed","3","1","no","left","s","959.119077293","498.093303373","10","red","2"
"100","100","19","716.621222929","1","1","1","25","1","right","in","Female","Right-handed","3","1","no","right","d","684.703899155","761.675429882","10","red","0"
"100","100","19","822.367010717","1","1","1","26","3","right","in","Female","Right-handed","3","1","no","right","s","1345.37604419","1145.32427955","10","green","2"
"100","100","19","800.70947075","1","1","1","27","0","right","out","Female","Right-handed","3","1","no","right","s","862.863130293","521.980411539","10","red","3"
"100","100","19","764.883481891","1","1","1","28","1","left","out","Female","Right-handed","3","1","no","left","s","506.554289697","593.300807774","10","green","3"
"100","100","19","723.652387236","1","1","1","29","1","right","out","Female","Right-handed","3","1","no","right","s","452.98974521","417.079704088","10","red","3"
"100","88","19","696.973966794","1","0","1","30","2","left","in","Female","Right-handed","3","1","no","left","s","525.590466581","441.502739935","10","green","2"
"100","80","19","827.440523573","1","0","1","31","2","right","out","Female","Right-handed","3","1","no","right","None","1003.1847767","3000.09429248","10","red","0"
"100","81","19","813.231448275","1","1","1","32","1","left","in","Female","Right-handed","3","1","no","left","s","932.706277634","409.575112943","10","red","2"
"100","83","19","831.859866297","1","1","1","33","0","right","in","Female","Right-handed","3","1","no","right","d","1536.1778446","537.367084484","10","green","1"
"100","84","19","833.889236284","1","1","1","34","1","left","in","Female","Right-handed","3","1","no","left","s","1186.79597352","529.687378727","10","red","3"
"100","85","19","828.926083766","1","1","1","35","0","right","in","Female","Right-handed","3","1","no","right","s","735.463081928","793.347120136","10","red","0"
"100","80","19","813.800859409","1","0","1","36","0","right","out","Female","Right-handed","3","1","no","right","s","635.010478012","569.08495881","10","red","3"
"100","81","19","799.606505283","1","1","1","37","2","right","in","Female","Right-handed","3","1","no","right","d","659.656416155","513.725970652","10","green","0"
"100","82","19","793.793547308","1","1","1","38","1","left","in","Female","Right-handed","3","1","no","left","s","896.401106109","505.171333289","10","green","1"
"100","83","19","798.328692476","1","1","1","39","1","left","out","Female","Right-handed","3","1","no","left","s","765.898706781","984.953613872","10","red","1"
"100","84","19","803.336544387","1","1","1","40","0","left","out","Female","Right-handed","3","1","no","left","d","649.533444646","1137.42231294","10","green","3"
"100","85","19","807.088421332","1","1","1","41","1","right","out","Female","Right-handed","3","1","no","right","d","915.835620621","840.912545967","10","green","2"
"100","85","19","788.590718058","1","1","1","42","2","right","in","Female","Right-handed","3","1","no","right","s","507.606901698","329.666403461","10","red","3"
"100","86","19","794.810534214","1","1","1","43","3","left","in","Female","Right-handed","3","1","no","left","s","841.449115092","1009.40423187","10","green","3"
"100","86","19","796.525552105","1","1","1","44","2","left","in","Female","Right-handed","3","1","no","left","d","722.818267597","945.693623838","10","green","0"
"100","87","19","801.732502758","1","1","1","45","3","right","in","Female","Right-handed","3","1","no","right","d","881.548757232","961.435978292","10","red","2"
"100","88","19","801.403213257","1","1","1","46","2","left","in","Female","Right-handed","3","1","no","left","s","705.873523633","881.127006842","10","red","2"
"100","88","19","801.775787477","1","1","1","47","0","left","in","Female","Right-handed","3","1","no","left","d","580.600829131","1041.57945681","10","green","2"
"100","85","19","801.005046442","1","0","1","48","2","right","in","Female","Right-handed","3","1","no","right","s","552.962868647","1008.9686904","10","green","3"
"100","85","19","793.441807793","1","1","1","49","2","left","out","Female","Right-handed","3","1","no","left","s","480.629309312","697.839419261","10","red","3"
"100","86","19","796.280726703","1","1","1","50","2","left","in","Female","Right-handed","3","1","no","left","d","950.235378412","801.305533942","10","red","1"
"100","83","19","795.703127923","1","0","1","51","1","right","out","Female","Right-handed","3","1","no","right","s","596.899316797","961.006209835","10","red","3"
"100","83","19","794.261852396","1","1","1","52","3","right","in","Female","Right-handed","3","1","no","right","d","588.544168972","913.503004209","10","red","3"
"100","81","19","833.522888819","1","0","1","53","3","right","out","Female","Right-handed","3","1","no","right","None","1101.09404937","3000.13598644","10","green","2"
"100","81","19","828.262964531","1","1","1","54","0","right","out","Female","Right-handed","3","1","no","right","s","854.488418383","465.402356285","10","red","0"
"100","82","19","820.699934531","1","1","1","55","2","left","in","Female","Right-handed","3","1","no","left","s","589.150976377","553.088912678","10","red","3"
"100","82","19","822.130505194","1","1","1","56","3","right","out","Female","Right-handed","3","1","no","right","s","988.834038175","752.705777308","10","green","2"
"100","83","19","829.125210581","1","1","1","57","3","right","in","Female","Right-handed","3","1","no","right","d","962.474799211","1185.40499904","10","red","1"
"100","83","19","825.144473021","1","1","1","58","2","left","out","Female","Right-handed","3","1","no","left","s","634.927731548","728.748110141","10","green","3"
"100","84","19","818.849670707","1","1","1","59","0","left","in","Female","Right-handed","3","1","no","left","s","562.437659519","609.446310695","10","red","2"
"100","84","19","821.010261466","1","1","1","60","2","right","out","Female","Right-handed","3","1","no","right","d","1005.05747672","801.167943891","10","green","2"
"100","85","19","818.112595648","1","1","1","61","0","left","out","Female","Right-handed","3","1","no","left","s","545.621846093","864.585411349","10","green","3"
"100","85","19","830.738305757","1","1","1","62","0","left","out","Female","Right-handed","3","1","no","left","s","1366.27048857","1305.2629317","10","red","2"
"100","85","19","824.181029165","1","1","1","63","3","left","out","Female","Right-handed","3","1","no","left","s","725.80323404","384.862143748","10","red","3"
"100","86","19","828.80499442","1","1","1","64","3","left","in","Female","Right-handed","3","1","no","left","s","1285.58466791","760.438402314","10","red","0"
"100","86","19","826.605309104","1","1","1","65","1","left","out","Female","Right-handed","3","1","no","left","s","719.013213134","745.024467937","10","red","3"
"100","86","19","824.395475073","1","1","1","66","1","left","out","Female","Right-handed","3","1","no","left","d","581.721755072","872.603800308","10","red","2"
"100","86","19","824.055073447","1","1","1","67","2","right","out","Female","Right-handed","3","1","no","right","d","856.251431225","761.222569386","10","green","0"
"100","85","19","822.081774934","1","0","1","68","0","right","in","Female","Right-handed","3","1","no","right","d","589.713844767","872.906241841","10","green","0"
"100","85","19","819.089749605","1","1","1","69","1","right","out","Female","Right-handed","3","1","no","right","d","507.504911868","849.424206483","10","green","3"
"100","85","19","817.098889853","1","1","1","70","3","right","out","Female","Right-handed","3","1","no","right","d","578.037292356","865.037951122","10","green","0"
"100","84","19","814.057427971","1","0","1","71","0","left","in","Female","Right-handed","3","1","no","left","d","521.659047363","808.392544095","10","red","3"
"100","84","19","818.627366083","1","1","1","72","3","left","in","Female","Right-handed","3","1","no","left","s","1389.16014905","705.088394392","10","green","1"
"100","84","19","816.217389221","1","1","1","73","0","right","out","Female","Right-handed","3","1","no","right","d","553.927602618","832.689535908","10","green","3"
"100","84","19","814.069684359","1","1","1","74","0","right","in","Female","Right-handed","3","1","no","right","d","627.321792019","777.45627106","10","green","0"
"100","85","19","812.364926732","1","1","1","75","1","right","in","Female","Right-handed","3","1","no","right","d","651.026408952","792.999135972","10","red","0"
"100","85","19","810.031842519","1","1","1","76","3","left","out","Female","Right-handed","3","1","no","left","d","711.652305772","656.438284288","10","green","0"
"100","83","19","811.249822801","1","0","1","77","3","left","out","Female","Right-handed","3","1","no","left","s","547.158107967","1209.31936864","10","red","3"
"100","84","19","810.32618987","1","1","1","78","3","right","out","Female","Right-handed","3","1","no","right","d","604.657920343","912.547571199","10","red","0"
"100","82","19","829.789699231","1","0","1","79","1","right","in","Female","Right-handed","3","1","no","right","None","878.331587533","3000.08787803","10","green","0"
"100","83","19","829.434088767","1","1","1","80","3","left","out","Female","Right-handed","3","1","no","left","d","768.947817771","848.669545901","10","green","3"
"100","83","19","831.49239823","1","1","1","81","0","right","out","Female","Right-handed","3","1","no","right","d","1225.46134361","680.403969522","10","red","2"
"100","81","19","837.311276625","1","0","1","82","1","left","out","Female","Right-handed","3","1","no","left","d","659.987402012","1712.90055863","10","green","2"
"100","82","19","843.44241979","1","1","1","83","2","right","in","Female","Right-handed","3","1","no","right","s","1650.41030059","784.474005102","10","green","1"
"100","82","19","842.007180279","1","1","1","84","3","left","out","Female","Right-handed","3","1","no","left","d","632.987359033","873.057302246","10","green","3"
"100","82","19","845.962831483","1","1","1","85","1","left","in","Female","Right-handed","3","1","no","left","s","1005.66781207","1184.66990254","10","green","0"
"100","0","19","828.073534024","1","0","2","86","3","right","in","Female","Right-handed","3","1","no","right","d","926.54615617","729.600911878","10","green","3"
"100","50","19","810.584122685","1","1","2","87","2","right","out","Female","Right-handed","3","1","no","right","d","929.103599216","657.085823477","10","red","1"
"100","66","19","812.753250685","1","1","2","88","1","left","out","Female","Right-handed","3","1","no","left","d","976.665817821","657.51719555","10","red","1"
"100","50","19","771.248842993","1","0","2","89","2","left","in","Female","Right-handed","3","1","no","left","d","596.169031141","697.30220869","10","red","1"
"100","40","19","773.362149202","1","0","2","90","2","right","out","Female","Right-handed","3","1","no","right","s","1106.88437753","456.746370541","10","red","3"
"100","50","19","754.453074737","1","1","2","91","3","right","out","Female","Right-handed","3","1","no","right","d","558.479620315","761.335784511","10","green","3"
"100","57","19","750.61654363","1","1","2","92","1","right","in","Female","Right-handed","3","1","no","right","s","470.16316448","985.031549493","10","green","3"
"100","62","19","772.809219207","1","1","2","93","1","left","out","Female","Right-handed","3","1","no","left","s","1015.74941035","840.566486144","10","red","2"
"100","66","19","786.54083146","1","1","2","94","3","left","in","Female","Right-handed","3","1","no","left","s","1015.38506933","777.40238964","10","red","3"
"100","70","19","781.677832094","1","1","2","95","2","left","out","Female","Right-handed","3","1","no","left","s","578.887849035","896.933826561","10","red","3"
"100","63","19","836.012835674","1","0","2","96","3","right","in","Female","Right-handed","3","1","no","right","s","1325.40431911","1433.32142383","10","green","2"
"100","66","19","852.056097292","1","1","2","97","1","right","out","Female","Right-handed","3","1","no","right","s","832.162588462","1224.90136172","10","red","2"
"100","69","19","847.82558871","1","1","2","98","3","right","in","Female","Right-handed","3","1","no","right","s","1232.61442264","361.504548809","10","red","0"
"100","71","19","884.740154568","1","1","2","99","2","left","out","Female","Right-handed","3","1","no","left","s","1408.11229657","1321.14672487","10","green","0"
"100","73","19","908.633599298","1","1","2","100","3","left","in","Female","Right-handed","3","1","no","left","d","1092.66898399","1393.61466704","10","red","1"
"100","68","19","889.483638009","1","0","2","101","0","right","out","Female","Right-handed","3","1","no","right","s","571.218727129","633.249710227","10","green","3"
"100","70","19","888.385141437","1","1","2","102","0","right","in","Female","Right-handed","3","1","no","right","s","956.768821132","784.849571419","10","green","2"
"100","72","19","881.434793755","1","1","2","103","3","left","out","Female","Right-handed","3","1","no","left","s","813.271378254","713.28638808","10","green","2"
"100","73","19","865.703670226","1","1","2","104","1","right","in","Female","Right-handed","3","1","no","right","s","692.090464336","472.996429075","10","green","0"
"100","70","19","853.994729884","1","0","2","105","2","right","in","Female","Right-handed","3","1","no","right","d","742.558110147","520.491616628","10","red","3"
"100","71","19","841.334265812","1","1","2","106","3","right","out","Female","Right-handed","3","1","no","right","d","503.142441303","673.107527426","10","red","3"
"100","72","19","831.742915483","1","1","2","107","1","right","out","Female","Right-handed","3","1","no","right","d","531.814411868","728.834705278","10","green","3"
"100","73","19","831.400125952","1","1","2","108","3","left","out","Female","Right-handed","3","1","no","left","d","750.432815325","897.284697228","10","green","2"
"100","75","19","826.613437117","1","1","2","109","2","left","in","Female","Right-handed","3","1","no","left","d","479.999730595","953.039457234","10","green","3"
"100","76","19","820.991873527","1","1","2","110","2","right","in","Female","Right-handed","3","1","no","right","d","483.607861299","888.540833455","10","red","3"
"100","76","19","837.321339553","1","1","2","111","1","right","in","Female","Right-handed","3","1","no","right","s","882.07955335","1609.03642705","10","green","0"
"100","77","19","831.909128417","1","1","2","112","0","left","out","Female","Right-handed","3","1","no","left","d","837.681264467","544.702013305","10","red","0"
"100","78","19","842.741581876","1","1","2","113","0","left","in","Female","Right-handed","3","1","no","left","s","637.181129445","1633.25452107","10","green","0"
"100","79","19","831.224767554","1","1","2","114","2","right","out","Female","Right-handed","3","1","no","right","s","608.717949377","408.789983701","10","green","2"
"100","80","19","820.996268498","1","1","2","115","0","left","out","Female","Right-handed","3","1","no","left","d","464.441150267","584.298441479","10","red","0"
"100","80","19","816.465704219","1","1","2","116","2","right","out","Female","Right-handed","3","1","no","right","d","504.122569964","856.974981703","10","red","0"
"100","81","19","823.034714347","1","1","2","117","0","left","in","Female","Right-handed","3","1","no","left","s","1452.66902248","600.679034162","10","red","2"
"100","81","19","825.252184768","1","1","2","118","0","right","in","Female","Right-handed","3","1","no","right","d","591.12919417","1201.29328233","10","red","3"
"100","82","19","834.446912521","1","1","2","119","0","right","out","Female","Right-handed","3","1","no","right","d","498.871376714","1776.87448003","10","red","0"
"100","82","19","828.777987754","1","1","2","120","1","right","out","Female","Right-handed","3","1","no","right","d","519.449267758","752.619823614","10","red","3"
"100","83","19","831.579078002","1","1","2","121","2","left","in","Female","Right-handed","3","1","no","left","s","506.121955459","1353.11251787","10","red","2"
"100","81","19","842.621022945","1","0","2","122","1","left","in","Female","Right-handed","3","1","no","left","d","791.715603609","1688.54647818","10","green","3"
"100","81","19","838.106931051","1","1","2","123","0","right","out","Female","Right-handed","3","1","no","right","d","525.043955051","817.127106908","10","green","3"
"100","82","19","852.67145833","1","1","2","124","3","right","out","Female","Right-handed","3","1","no","right","d","1419.54574116","1392.7012487","10","green","0"
"100","82","19","858.873968957","1","1","2","125","0","right","in","Female","Right-handed","3","1","no","right","s","1232.27477727","969.268989511","10","red","3"
"100","82","19","858.504285458","1","1","2","126","3","left","out","Female","Right-handed","3","1","no","left","d","582.615288595","1104.81860243","10","red","3"
"100","83","19","864.061335137","1","1","2","127","1","right","out","Female","Right-handed","3","1","no","right","d","535.332098765","1648.46864518","10","red","3"
"100","81","19","877.512491516","1","0","2","128","3","left","out","Female","Right-handed","3","1","no","left","d","1267.99591271","1616.92620619","10","red","1"
"100","81","19","877.370957356","1","1","2","129","1","left","in","Female","Right-handed","3","1","no","left","d","910.242857664","832.327119224","10","green","2"
"100","82","19","884.78445045","1","1","2","130","0","left","in","Female","Right-handed","3","1","no","left","d","1164.99677032","1256.95952287","10","red","1"
"100","82","19","887.018184867","1","1","2","131","1","right","in","Female","Right-handed","3","1","no","right","s","1094.4865197","880.585947598","10","green","1"
"100","82","19","882.295809179","1","1","2","132","3","left","in","Female","Right-handed","3","1","no","left","s","640.862705655","689.270349376","10","green","2"
"100","83","19","879.086007573","1","1","2","133","3","right","in","Female","Right-handed","3","1","no","right","d","727.803581702","728.647082482","10","green","0"
"100","81","19","880.326224368","1","0","2","134","2","right","out","Female","Right-handed","3","1","no","right","d","615.38224697","1264.33101408","10","green","3"
"100","82","19","874.718187352","1","1","2","135","0","left","out","Female","Right-handed","3","1","no","left","d","558.9902109","640.85853626","10","green","2"
"100","82","19","877.361099419","1","1","2","136","0","left","out","Female","Right-handed","3","1","no","left","s","562.515915866","1456.4974897","10","green","3"
"100","82","19","875.606736475","1","1","2","137","1","left","in","Female","Right-handed","3","1","no","left","d","875.250724994","697.017727629","10","green","0"
"100","83","19","873.286585716","1","1","2","138","2","left","in","Female","Right-handed","3","1","no","left","d","688.499652657","816.777839856","10","green","2"
"100","83","19","871.416434279","1","1","2","139","1","left","out","Female","Right-handed","3","1","no","left","d","880.235718378","664.361097872","10","green","0"
"100","81","19","883.142492618","1","0","2","140","0","left","in","Female","Right-handed","3","1","no","left","d","1079.99883257","1952.70045331","10","red","1"
"100","80","19","879.840124072","1","0","2","141","1","right","in","Female","Right-handed","3","1","no","right","d","812.25693226","584.162775765","10","red","2"
"100","80","19","876.919594463","1","1","2","142","0","left","in","Female","Right-handed","3","1","no","left","s","849.901121183","576.838751516","10","green","2"
"100","81","19","886.333337617","1","1","2","143","2","left","out","Female","Right-handed","3","1","no","left","s","765.387795474","2080.44559933","10","red","0"
"100","81","19","883.151550046","1","1","2","144","2","right","in","Female","Right-handed","3","1","no","right","s","725.07840067","672.137341171","10","red","2"
"100","80","19","882.033382639","1","0","2","145","0","left","out","Female","Right-handed","3","1","no","left","s","719.501353129","912.62165815","10","green","3"
"100","80","19","880.503905672","1","1","2","146","1","right","in","Female","Right-handed","3","1","no","right","s","513.243603667","1064.22697163","10","red","3"
"100","80","19","874.218460784","1","1","2","147","2","right","out","Female","Right-handed","3","1","no","right","d","476.730603812","504.882041389","10","green","0"
"100","80","19","870.634613657","1","1","2","148","3","left","in","Female","Right-handed","3","1","no","left","s","856.565418777","440.306764876","10","red","3"
"100","81","19","868.367155784","1","1","2","149","3","left","out","Female","Right-handed","3","1","no","left","d","834.107451095","616.927168359","10","green","0"
"100","100","19","575.308262651","1","1","3","150","1","left","in","Female","Right-handed","3","1","no","left","s","733.359461545","417.257063756","10","red","0"
"100","100","19","578.366273695","1","1","3","151","2","right","in","Female","Right-handed","3","1","no","right","d","457.927913077","704.920656403","10","red","0"
"100","100","19","635.460291639","1","1","3","152","0","right","out","Female","Right-handed","3","1","no","right","d","874.615052544","624.681602511","10","red","2"
"100","75","19","659.39041674","1","0","3","153","3","left","in","Female","Right-handed","3","1","no","left","d","757.176331432","705.185252655","10","green","0"
"100","80","19","713.160183684","1","1","3","154","3","left","out","Female","Right-handed","3","1","no","left","d","639.616056405","1216.86244651","10","red","3"
"100","83","19","766.191820629","1","1","3","155","3","right","out","Female","Right-handed","3","1","no","right","d","997.315230032","1065.38478068","10","red","2"
"100","85","19","768.068304411","1","1","3","156","1","left","in","Female","Right-handed","3","1","no","left","s","485.792945254","1072.86146895","10","red","3"
"100","87","19","781.256274138","1","1","3","157","2","right","in","Female","Right-handed","3","1","no","right","s","547.604233283","1199.53989117","10","red","3"
"100","88","19","755.015889673","1","1","3","158","1","right","out","Female","Right-handed","3","1","no","right","s","537.028722003","553.156905899","10","red","0"
"100","90","19","792.271817003","1","1","3","159","2","right","in","Female","Right-handed","3","1","no","right","s","1311.57090634","943.579419607","10","green","2"
"100","90","19","806.039678416","1","1","3","160","0","left","in","Female","Right-handed","3","1","no","left","s","574.24474608","1313.19183902","10","green","0"
"100","91","19","823.648322075","1","1","3","161","0","right","in","Female","Right-handed","3","1","no","right","d","889.909036619","1144.77776801","10","green","2"
"100","92","19","813.550271339","1","1","3","162","2","left","in","Female","Right-handed","3","1","no","left","d","608.371568827","776.375756184","10","green","2"
"100","92","19","804.304967271","1","1","3","163","1","right","out","Female","Right-handed","3","1","no","right","s","551.185423279","817.046605502","10","green","3"
"100","86","19","832.485043095","1","0","3","164","3","left","out","Female","Right-handed","3","1","no","left","d","717.476309815","1736.53589946","10","red","2"
"100","87","19","835.460239522","1","1","3","165","2","left","in","Female","Right-handed","3","1","no","left","s","927.084328911","833.092042933","10","green","0"
"100","88","19","818.741521364","1","1","3","166","2","left","out","Female","Right-handed","3","1","no","left","d","597.625753779","504.858307906","10","green","0"
"100","83","19","873.462098876","1","0","3","167","3","left","out","Female","Right-handed","3","1","no","left","None","607.333710075","3000.09012309","10","green","3"
"100","84","19","862.02976604","1","1","3","168","1","left","out","Female","Right-handed","3","1","no","left","s","687.702977397","624.792572575","10","red","0"
"100","85","19","862.9524195","1","1","3","169","2","left","in","Female","Right-handed","3","1","no","left","d","976.506097901","784.459572578","10","green","1"
"100","80","19","861.16916447","1","0","3","170","2","right","in","Female","Right-handed","3","1","no","right","s","569.92044152","1081.08768624","10","red","3"
"100","81","19","846.800089557","1","1","3","171","3","left","in","Female","Right-handed","3","1","no","left","d","585.551825907","504.547206858","10","red","3"
"100","82","19","843.511438938","1","1","3","172","1","right","in","Female","Right-handed","3","1","no","right","d","661.13879661","881.183454041","10","green","0"
"100","83","19","850.229140354","1","1","3","173","1","right","in","Female","Right-handed","3","1","no","right","s","768.882711056","1240.58983476","10","green","2"
"100","80","19","854.773791051","1","0","3","174","0","left","out","Female","Right-handed","3","1","no","left","s","575.329109628","1352.36170596","10","red","3"
"100","76","19","897.590197963","1","0","3","175","2","left","in","Female","Right-handed","3","1","no","left","None","935.76789681","3000.2328447","10","green","0"
"100","77","19","893.727935612","1","1","3","176","0","right","out","Female","Right-handed","3","1","no","right","d","930.39322531","656.225003673","10","red","2"
"100","78","19","885.483916305","1","1","3","177","0","right","out","Female","Right-handed","3","1","no","right","d","684.946686262","640.844103737","10","red","3"
"100","79","19","880.707567868","1","1","3","178","3","left","in","Female","Right-handed","3","1","no","left","d","693.467006291","800.472617015","10","green","2"
"100","80","19","884.538940764","1","1","3","179","3","right","in","Female","Right-handed","3","1","no","right","d","1254.03389013","737.26361933","10","green","1"
"100","80","19","890.286920416","1","1","3","180","1","right","in","Female","Right-handed","3","1","no","right","d","1124.65594469","1000.79667526","10","red","1"
"100","81","19","889.596747895","1","1","3","181","3","left","out","Female","Right-handed","3","1","no","left","d","984.337826232","752.064973292","10","green","1"
"100","78","19","898.476570923","1","0","3","182","1","left","out","Female","Right-handed","3","1","no","left","d","844.645117093","1520.61669849","10","red","3"
"100","76","19","897.483304778","1","0","3","183","2","left","out","Female","Right-handed","3","1","no","left","s","633.225014577","1096.18602945","10","green","3"
"100","77","19","891.640591145","1","1","3","184","0","right","out","Female","Right-handed","3","1","no","right","d","649.08507427","736.891580964","10","red","0"
"100","77","19","894.344756693","1","1","3","185","0","left","in","Female","Right-handed","3","1","no","left","s","1161.54803881","816.433062921","10","red","1"
"100","78","19","890.823144073","1","1","3","186","0","right","out","Female","Right-handed","3","1","no","right","s","584.030317279","944.059862255","10","green","3"
"100","78","19","888.070299451","1","1","3","187","2","right","out","Female","Right-handed","3","1","no","right","s","563.642935538","1008.78716134","10","green","3"
"100","79","19","887.304615919","1","1","3","188","0","left","out","Female","Right-handed","3","1","no","left","d","684.143275825","1032.27400754","10","green","2"
"100","80","19","882.680647879","1","1","3","189","2","left","in","Female","Right-handed","3","1","no","left","s","899.789541745","504.902246919","10","red","1"
"100","80","19","881.71116027","1","1","3","190","3","right","out","Female","Right-handed","3","1","no","right","s","637.464327614","1048.39898421","10","red","3"
"100","80","19","876.506209391","1","1","3","191","1","left","out","Female","Right-handed","3","1","no","left","s","494.109927075","832.096519582","10","red","3"
"100","81","19","872.7413829","1","1","3","192","0","right","out","Female","Right-handed","3","1","no","right","d","644.645950972","784.59138962","10","green","3"
"100","81","19","875.276718113","1","1","3","193","3","right","out","Female","Right-handed","3","1","no","right","s","656.294921227","1312.29734333","10","green","0"
"100","80","19","872.365560337","1","0","3","194","0","left","out","Female","Right-handed","3","1","no","left","s","647.748622656","840.800613736","10","green","3"
"100","78","19","873.875999306","1","0","3","195","3","left","out","Female","Right-handed","3","1","no","left","d","643.401546782","1240.28995901","10","red","2"
"100","78","19","881.314424922","1","1","3","196","0","left","out","Female","Right-handed","3","1","no","left","s","1518.86779745","928.096209122","10","red","0"
"100","77","19","883.975051406","1","0","3","197","0","left","out","Female","Right-handed","3","1","no","left","s","1321.6098485","696.439143825","10","green","1"
"100","77","19","883.535477452","1","1","3","198","1","right","out","Female","Right-handed","3","1","no","right","d","884.910893605","839.960961628","10","green","3"
"100","76","19","881.149258585","1","0","3","199","1","right","in","Female","Right-handed","3","1","no","right","d","703.667913422","824.781154844","10","red","2"
"100","74","19","877.760468393","1","0","3","200","1","right","out","Female","Right-handed","3","1","no","right","s","696.347417123","720.294500439","10","red","2"
"100","75","19","873.330009083","1","1","3","201","3","right","in","Female","Right-handed","3","1","no","right","d","606.889509096","687.863659485","10","red","3"
"100","73","19","872.699275833","1","0","3","202","0","left","in","Female","Right-handed","3","1","no","left","d","631.404913089","1048.39738059","10","red","0"
"100","74","19","871.05690113","1","1","3","203","0","left","in","Female","Right-handed","3","1","no","left","s","848.063700667","719.958383019","10","red","3"
"100","74","19","868.237478154","1","1","3","204","2","right","out","Female","Right-handed","3","1","no","right","s","471.545800166","960.431474703","10","green","3"
"100","75","19","868.90454712","1","1","3","205","2","right","in","Female","Right-handed","3","1","no","right","s","915.109504362","896.077176152","10","green","2"
"100","75","19","874.008281714","1","1","3","206","1","left","in","Female","Right-handed","3","1","no","left","s","1014.77665831","1304.85817962","10","green","1"
"100","74","19","874.237882614","1","0","3","207","3","left","out","Female","Right-handed","3","1","no","left","s","1070.36111455","704.289153349","10","green","3"
"100","74","19","888.033898566","1","1","3","208","1","right","in","Female","Right-handed","3","1","no","right","s","2432.75598966","943.649657884","10","green","2"
"100","75","19","891.099733116","1","1","3","209","3","right","in","Female","Right-handed","3","1","no","right","d","1063.51304283","1080.45490029","10","green","0"
"100","75","19","889.660250421","1","1","3","210","2","right","in","Female","Right-handed","3","1","no","right","d","622.737060603","983.845516843","10","red","2"
"100","75","19","887.529553306","1","1","3","211","1","right","out","Female","Right-handed","3","1","no","right","s","546.608068486","968.505990139","10","green","3"
"100","76","19","886.593063957","1","1","3","212","3","left","in","Female","Right-handed","3","1","no","left","s","744.935627741","912.12582081","10","red","0"
"100","76","19","883.732072201","1","1","3","213","2","right","in","Female","Right-handed","3","1","no","right","d","598.669385541","808.309797631","10","red","3"
"100","100","19","692.169522488","1","1","4","214","1","left","out","Female","Right-handed","3","1","no","left","s","823.208330581","561.130714396","10","red","3"
"100","100","19","709.201743577","1","1","4","215","3","right","out","Female","Right-handed","3","1","no","right","s","699.694479528","752.773449802","10","red","0"
"100","100","19","715.708379223","1","1","4","216","0","right","out","Female","Right-handed","3","1","no","right","d","753.257741124","704.185559909","10","green","2"
"75","100","19","702.889318907","0","1","4","217","3","left","out","Female","Right-handed","3","1","no","right","d","517.960793572","810.903482343","10","green","0"
"80","100","19","755.008309926","1","1","4","218","2","right","out","Female","Right-handed","3","1","no","right","s","1046.4784965","880.490051501","10","red","0"
"83","100","19","758.83794244","1","1","4","219","2","right","in","Female","Right-handed","3","1","no","right","s","740.09079019","815.881419827","10","red","0"
"85","85","19","783.395804012","1","0","4","220","0","right","in","Female","Right-handed","3","1","no","right","s","612.824483203","1248.66146369","10","red","0"
"87","87","19","766.544020958","1","1","4","221","2","left","out","Female","Right-handed","3","1","no","left","s","681.023285113","616.139794056","10","green","2"
"88","88","19","748.696778825","1","1","4","222","0","right","out","Female","Right-handed","3","1","no","right","s","706.900157091","504.937526419","10","green","0"
"90","90","19","795.378738264","1","1","4","223","0","right","in","Female","Right-handed","3","1","no","right","d","1438.49404001","992.538706423","10","green","3"
"90","81","19","805.439387515","1","0","4","224","0","left","in","Female","Right-handed","3","1","no","left","s","780.054125167","1032.03763489","10","green","0"
"91","83","19","796.620149042","1","1","4","225","2","left","out","Female","Right-handed","3","1","no","left","d","550.683812931","848.533238741","10","green","3"
"92","84","19","833.553710967","1","1","4","226","3","left","out","Female","Right-handed","3","1","no","left","s","761.264904788","1792.24800334","10","green","3"
"92","85","19","861.242827609","1","1","4","227","1","right","in","Female","Right-handed","3","1","no","right","s","977.771669792","1464.63101812","10","green","2"
"93","86","19","853.236145794","1","1","4","228","0","left","out","Female","Right-handed","3","1","no","left","s","802.22408384","680.061116922","10","green","1"
"93","87","19","900.591178185","1","1","4","229","3","right","in","Female","Right-handed","3","1","no","right","d","1068.83126713","2153.00206096","10","green","2"
"94","88","19","894.509124995","1","1","4","230","1","right","in","Female","Right-handed","3","1","no","right","s","946.271566198","648.120981745","10","red","2"
"94","83","19","887.034389887","1","0","4","231","2","left","in","Female","Right-handed","3","1","no","left","d","702.975152328","816.952633744","10","red","2"
"94","84","19","882.032255186","1","1","4","232","1","left","in","Female","Right-handed","3","1","no","left","d","1031.5664932","552.421167957","10","red","0"
"95","85","19","892.259244672","1","1","4","233","1","right","in","Female","Right-handed","3","1","no","right","d","1077.00488589","1096.13920393","10","green","1"
"95","85","19","883.369263442","1","1","4","234","3","left","out","Female","Right-handed","3","1","no","left","d","610.717014148","800.422263546","10","red","3"
"95","86","19","894.249253401","1","1","4","235","2","right","in","Female","Right-handed","3","1","no","right","s","789.243152088","1456.21493298","10","red","3"
"95","86","19","889.207225565","1","1","4","236","1","left","out","Female","Right-handed","3","1","no","left","d","691.784494853","864.780731492","10","red","3"
"95","83","19","904.127243161","1","0","4","237","3","left","in","Female","Right-handed","3","1","no","left","s","1182.36326467","1312.21203108","10","green","1"
"96","84","19","903.775977739","1","1","4","238","3","left","in","Female","Right-handed","3","1","no","left","d","894.887615548","895.803599664","10","green","1"
"96","84","19","896.131896384","1","1","4","239","1","right","out","Female","Right-handed","3","1","no","right","d","777.462364791","632.597360196","10","green","0"
"96","85","19","886.478562548","1","1","4","240","2","right","in","Female","Right-handed","3","1","no","right","d","711.046781258","559.936984398","10","green","3"
"96","85","19","876.09751318","1","1","4","241","1","right","out","Female","Right-handed","3","1","no","right","s","766.750225628","424.868134851","10","red","2"
"96","86","19","872.12314753","1","1","4","242","1","right","in","Female","Right-handed","3","1","no","right","s","601.368588032","920.313230647","10","red","3"
"96","86","19","866.747975224","1","1","4","243","0","right","out","Female","Right-handed","3","1","no","right","s","957.851260344","463.884696332","10","green","1"
"96","87","19","860.09508622","1","1","4","244","0","right","out","Female","Right-handed","3","1","no","right","d","616.471742083","704.545090088","10","green","3"
"96","87","19","855.553207821","1","1","4","245","0","left","in","Female","Right-handed","3","1","no","left","d","533.313790629","896.196164283","10","green","3"
"96","87","19","859.210598926","1","1","4","246","2","right","in","Female","Right-handed","3","1","no","right","s","591.779299144","1360.71492945","10","red","0"
"97","85","19","853.874413582","1","0","4","247","0","left","in","Female","Right-handed","3","1","no","left","s","859.082450757","496.478143708","10","red","2"
"97","82","19","851.942947458","1","0","4","248","2","left","in","Female","Right-handed","3","1","no","left","d","1036.72499758","535.821200927","10","red","1"
"97","83","19","843.348524187","1","1","4","249","2","right","in","Female","Right-handed","3","1","no","right","s","644.58341004","440.504009355","10","green","3"
"97","83","19","847.762229968","1","1","4","250","2","right","in","Female","Right-handed","3","1","no","right","s","773.171094672","1240.14018149","10","red","2"
"97","84","19","847.563086245","1","1","4","251","2","left","out","Female","Right-handed","3","1","no","left","d","719.753120473","960.636416527","10","green","3"
"97","84","19","844.464126678","1","1","4","252","3","left","in","Female","Right-handed","3","1","no","left","d","589.181765758","864.225560448","10","red","3"
"97","85","19","837.8112574","1","1","4","253","0","right","in","Female","Right-handed","3","1","no","right","s","572.897069172","583.801641971","10","red","3"
"97","85","19","833.218337286","1","1","4","254","0","right","out","Female","Right-handed","3","1","no","right","d","738.584355529","560.418709936","10","red","0"
"97","83","19","828.346885243","1","0","4","255","1","right","out","Female","Right-handed","3","1","no","right","d","553.072876544","704.161826425","10","red","3"
"97","83","19","834.305590613","1","1","4","256","0","left","out","Female","Right-handed","3","1","no","left","d","993.664763926","1175.4776684","10","red","2"
"97","84","19","832.300528394","1","1","4","257","0","left","in","Female","Right-handed","3","1","no","left","d","756.093571497","736.07213439","10","red","2"
"97","82","19","827.955436788","1","0","4","258","1","left","out","Female","Right-handed","3","1","no","left","d","633.821558853","639.721253461","10","green","0"
"97","82","19","825.335126666","1","1","4","259","3","left","out","Female","Right-handed","3","1","no","left","d","598.395167606","816.447174722","10","green","3"
"97","82","19","824.903790346","1","1","4","260","1","left","in","Female","Right-handed","3","1","no","left","d","890.048871728","720.075767538","10","green","0"
"97","83","19","822.294504662","1","1","4","261","1","right","in","Female","Right-handed","3","1","no","right","s","447.68306693","951.633088065","10","green","3"
"97","81","19","821.407321911","1","0","4","262","3","left","out","Female","Right-handed","3","1","no","left","d","629.290388132","928.354711641","10","red","0"
"98","80","19","820.795565559","1","0","4","263","3","right","out","Female","Right-handed","3","1","no","right","s","597.865654381","983.773354228","10","green","3"
"98","80","19","824.570820478","1","1","4","264","2","left","in","Female","Right-handed","3","1","no","left","s","626.31728843","1400.34984435","10","green","3"
"98","78","19","824.104559409","1","0","4","265","3","right","out","Female","Right-handed","3","1","no","right","d","664.774188748","935.876301091","10","green","3"
"98","77","19","820.623075429","1","0","4","266","0","right","out","Female","Right-handed","3","1","no","right","s","551.575422118","727.59639482","10","red","3"
"98","77","19","830.259312879","1","1","4","267","2","left","in","Female","Right-handed","3","1","no","left","s","1497.89285167","1184.06694381","10","red","0"
"98","78","19","831.593740052","1","1","4","268","2","right","out","Female","Right-handed","3","1","no","right","s","967.70001392","839.605600844","10","red","1"
"98","78","19","832.383852783","1","1","4","269","3","right","out","Female","Right-handed","3","1","no","right","s","528.283254618","1223.3968514","10","green","0"
"98","78","19","833.153824259","1","1","4","270","3","left","out","Female","Right-handed","3","1","no","left","d","848.814833298","903.729620477","10","red","2"
"98","77","19","837.701334523","1","0","4","271","1","left","in","Female","Right-handed","3","1","no","left","s","1225.42606411","968.392775014","10","green","2"
"98","76","19","836.407609278","1","0","4","272","1","left","out","Female","Right-handed","3","1","no","left","s","874.893119151","647.849971039","10","red","1"
"98","76","19","834.95792492","1","1","4","273","3","left","in","Female","Right-handed","3","1","no","left","d","739.43395004","759.419145479","10","red","2"
"98","77","19","832.837673005","1","1","4","274","3","right","out","Female","Right-handed","3","1","no","right","s","747.051435587","664.193680608","10","red","2"
"98","75","19","849.685693794","1","0","4","275","1","right","in","Female","Right-handed","3","1","no","right","None","754.70484208","3000.12508186","10","green","3"
"98","76","19","848.946128529","1","1","4","276","0","left","in","Female","Right-handed","3","1","no","left","s","670.081829197","936.104334952","10","green","3"
"98","76","19","845.069140103","1","1","4","277","2","left","out","Female","Right-handed","3","1","no","left","d","545.744041452","655.893697092","10","red","2"
"100","100","19","940.229310337","1","1","5","278","1","right","in","Female","Right-handed","3","1","no","right","d","872.203217619","1008.25540305","10","green","3"
"100","100","19","806.046136606","1","1","5","279","1","left","in","Female","Right-handed","3","1","no","left","s","510.967113732","832.758812018","10","red","3"
"100","100","19","749.964185962","1","1","5","280","1","right","in","Female","Right-handed","3","1","no","right","d","611.276996035","664.323573312","10","red","0"
"100","100","19","829.473368467","1","1","5","281","1","right","out","Female","Right-handed","3","1","no","right","s","647.987881812","1488.01395016","10","green","0"
"100","80","19","864.488553085","1","0","5","282","2","right","out","Female","Right-handed","3","1","no","right","d","1248.55530447","760.543278646","10","green","2"
"100","83","19","800.588718642","1","1","5","283","2","left","in","Female","Right-handed","3","1","no","left","d","482.110086152","480.069006702","10","red","3"
"100","71","19","796.183614862","1","0","5","284","3","left","out","Female","Right-handed","3","1","no","left","s","714.803406589","824.702577776","10","red","3"
"100","75","19","796.685683386","1","1","5","285","1","left","out","Female","Right-handed","3","1","no","left","d","840.230368722","760.169957388","10","red","2"
"100","77","19","809.697440155","1","1","5","286","1","right","out","Female","Right-handed","3","1","no","right","s","571.881981732","1255.70100688","10","green","3"
"100","80","19","842.414458437","1","1","5","287","1","right","in","Female","Right-handed","3","1","no","right","d","1369.314468","904.420777959","10","red","2"
"100","81","19","848.612151111","1","1","5","288","1","left","in","Female","Right-handed","3","1","no","left","d","949.122791262","872.055364442","10","red","2"
"100","75","19","842.321454191","1","0","5","289","0","left","in","Female","Right-handed","3","1","no","left","d","897.708051232","648.539524907","10","red","2"
"100","76","19","840.274036355","1","1","5","290","2","right","out","Female","Right-handed","3","1","no","right","s","607.222419288","1024.18762536","10","red","2"
"100","78","19","839.876325192","1","1","5","291","3","left","out","Female","Right-handed","3","1","no","left","d","893.595102949","775.81705719","10","green","2"
"100","73","19","918.563923354","1","0","5","292","2","left","in","Female","Right-handed","3","1","no","left","None","1040.24396737","3000.13662788","10","green","1"
"100","75","19","901.582391825","1","1","5","293","2","left","in","Female","Right-handed","3","1","no","left","d","629.878272895","663.840564883","10","green","3"
"100","76","19","892.892937131","1","1","5","294","3","left","out","Female","Right-handed","3","1","no","left","d","915.344914845","592.378409203","10","red","1"
"100","77","19","892.069522924","1","1","5","295","3","right","out","Female","Right-handed","3","1","no","right","s","916.116894456","840.026068343","10","red","3"
"100","78","19","888.359253751","1","1","5","296","3","right","out","Female","Right-handed","3","1","no","right","s","626.552057469","1016.5967598","10","green","3"
"100","80","19","894.275564328","1","1","5","297","2","right","in","Female","Right-handed","3","1","no","right","d","693.154622353","1320.21630824","10","red","0"
"100","80","19","886.849433416","1","1","5","298","3","left","out","Female","Right-handed","3","1","no","left","d","500.846708006","975.806922351","10","red","3"
"100","81","19","880.368949515","1","1","5","299","3","left","in","Female","Right-handed","3","1","no","left","d","640.270010051","848.287565132","10","green","3"
"100","82","19","872.500402089","1","1","5","300","3","left","out","Female","Right-handed","3","1","no","left","d","678.902666425","719.882051009","10","green","2"
"100","83","19","864.631515242","1","1","5","301","0","right","out","Female","Right-handed","3","1","no","right","d","654.719531179","712.574704341","10","red","3"
"100","84","19","861.671292558","1","1","5","302","2","right","in","Female","Right-handed","3","1","no","right","s","653.230415548","928.021480726","10","red","3"
"100","84","19","854.00306004","1","1","5","303","1","left","out","Female","Right-handed","3","1","no","left","s","716.802471361","607.792022856","10","red","1"
"100","85","19","850.64618384","1","1","5","304","1","right","out","Female","Right-handed","3","1","no","right","s","606.426064751","920.308740529","10","red","0"
"100","85","19","847.963251452","1","1","5","305","3","left","in","Female","Right-handed","3","1","no","left","d","775.084205752","775.963948201","10","green","0"
"100","86","19","862.9816484","1","1","5","306","0","left","out","Female","Right-handed","3","1","no","left","s","1071.56093828","1495.43258761","10","green","3"
"100","86","19","861.63506158","1","1","5","307","3","right","in","Female","Right-handed","3","1","no","right","s","789.138917202","856.029170374","10","green","0"
"100","87","19","865.504752708","1","1","5","308","0","left","in","Female","Right-handed","3","1","no","left","d","923.659651605","1039.53132146","10","red","0"
"100","87","19","862.52588032","1","1","5","309","0","right","in","Female","Right-handed","3","1","no","right","s","764.14403273","776.217639879","10","green","3"
"100","87","19","865.489810571","1","1","5","310","2","left","out","Female","Right-handed","3","1","no","left","s","696.768526066","1223.90263114","10","red","2"
"100","85","19","866.031078485","1","0","5","311","0","right","out","Female","Right-handed","3","1","no","right","s","647.45772714","1120.32811218","10","green","3"
"100","82","19","868.986680202","1","0","5","312","0","left","out","Female","Right-handed","3","1","no","left","d","1131.00849979","807.945777333","10","red","1"
"100","83","19","862.110402955","1","1","5","313","2","right","in","Female","Right-handed","3","1","no","right","s","675.494666701","567.386731957","10","green","3"
"100","83","19","857.458614242","1","1","5","314","3","left","in","Female","Right-handed","3","1","no","left","d","707.944751021","672.043690132","10","green","2"
"100","84","19","857.176644559","1","1","5","315","1","right","in","Female","Right-handed","3","1","no","right","s","621.933650163","1071.55388238","10","green","3"
"100","84","19","853.693708576","1","1","5","316","1","left","in","Female","Right-handed","3","1","no","left","d","643.453183142","799.231099328","10","red","3"
"100","85","19","857.361187996","1","1","5","317","0","left","out","Female","Right-handed","3","1","no","left","d","840.859305996","1159.92646469","10","red","3"
"100","82","19","850.266463484","1","0","5","318","2","left","out","Female","Right-handed","3","1","no","left","d","589.411723955","543.543242083","10","green","3"
"100","83","19","850.963267046","1","1","5","319","3","right","in","Female","Right-handed","3","1","no","right","s","951.168040108","807.896386032","10","red","1"
"100","83","19","848.595003972","1","1","5","320","0","right","in","Female","Right-handed","3","1","no","right","s","842.595698852","655.660210947","10","green","0"
"100","84","19","849.586284444","1","1","5","321","0","left","out","Female","Right-handed","3","1","no","left","s","1008.19895585","776.22373361","10","green","2"
"100","84","19","845.713971915","1","1","5","322","0","right","in","Female","Right-handed","3","1","no","right","s","726.901388665","623.763052614","10","green","2"
"100","84","19","847.567340409","1","1","5","323","0","left","out","Female","Right-handed","3","1","no","left","s","1126.51709869","735.420746527","10","green","0"
"100","85","19","847.256994291","1","1","5","324","3","left","in","Female","Right-handed","3","1","no","left","s","650.008114286","1015.95403145","10","red","2"
"100","85","19","846.201774928","1","1","5","325","1","right","out","Female","Right-handed","3","1","no","right","s","617.692092068","975.520837676","10","red","2"
"100","85","19","845.476620223","1","1","5","326","3","right","in","Female","Right-handed","3","1","no","right","d","613.255534552","1008.08285423","10","red","3"
"100","86","19","848.523902503","1","1","5","327","2","right","out","Female","Right-handed","3","1","no","right","d","739.829401166","1255.85206728","10","green","0"
"100","84","19","858.040633281","1","0","5","328","2","left","in","Female","Right-handed","3","1","no","left","s","804.430014772","1863.32432958","10","green","3"
"100","84","19","856.084553638","1","1","5","329","0","right","in","Female","Right-handed","3","1","no","right","d","672.882700794","839.766282932","10","green","0"
"100","84","19","854.778218599","1","1","5","330","2","right","out","Female","Right-handed","3","1","no","right","d","894.425774819","679.271818286","10","green","2"
"100","85","19","854.81113078","1","1","5","331","0","right","in","Female","Right-handed","3","1","no","right","d","753.03291449","960.078038253","10","red","2"
"100","83","19","854.425448847","1","0","5","332","3","left","in","Female","Right-handed","3","1","no","left","d","715.630550509","951.56669846","10","red","0"
"100","83","19","854.039649966","1","1","5","333","0","right","out","Female","Right-handed","3","1","no","right","d","762.352475562","903.288947446","10","green","3"
"100","84","19","857.028114768","1","1","5","334","2","right","out","Female","Right-handed","3","1","no","right","s","760.821024529","1287.94326287","10","red","0"
"100","82","19","856.543501803","1","0","5","335","1","right","out","Female","Right-handed","3","1","no","right","d","562.412322424","1095.42880308","10","red","0"
"100","83","19","851.296047616","1","1","5","336","3","left","out","Female","Right-handed","3","1","no","left","s","573.922099014","519.96531063","10","green","0"
"100","81","19","857.850680371","1","0","5","337","0","right","out","Female","Right-handed","3","1","no","right","s","1065.72153955","1423.42648618","10","red","1"
"100","81","19","859.944429898","1","1","5","338","2","left","in","Female","Right-handed","3","1","no","left","s","819.044708107","1152.09409492","10","green","0"
"100","80","19","871.269200609","1","0","5","339","2","right","in","Female","Right-handed","3","1","no","right","s","1540.577519","1583.58290907","10","red","1"
"100","79","19","879.751004516","1","0","5","340","1","left","out","Female","Right-handed","3","1","no","left","d","660.104145085","2151.14154841","10","green","3"
"100","79","19","881.851033393","1","1","5","341","1","left","in","Female","Right-handed","3","1","no","left","d","1132.68106883","895.62463638","10","green","1"
"100","100","19","1008.53459219","1","1","6","342","2","right","out","Female","Right-handed","3","1","no","right","s","1017.04192295","1000.02726143","10","red","2"
"100","50","19","897.333767806","1","0","6","343","1","left","out","Female","Right-handed","3","1","no","left","s","668.770393957","903.495492884","10","green","3"
"100","66","19","859.113614316","1","1","6","344","1","left","out","Female","Right-handed","3","1","no","left","d","765.224868328","800.121746348","10","red","2"
"100","75","19","769.383960592","1","1","6","345","1","right","in","Female","Right-handed","3","1","no","right","s","512.672075763","487.717923075","10","green","3"
"100","60","19","815.187151334","1","0","6","346","3","right","in","Female","Right-handed","3","1","no","right","s","1092.41048147","904.389347132","10","red","1"
"100","66","19","843.295916751","1","1","6","347","2","left","in","Female","Right-handed","3","1","no","left","s","1111.88059621","855.798891453","10","green","1"
"100","71","19","862.597044971","1","1","6","348","1","left","in","Female","Right-handed","3","1","no","left","d","636.432883317","1320.37474526","10","green","0"
"100","75","19","841.573575558","1","1","6","349","2","left","out","Female","Right-handed","3","1","no","left","s","764.969573034","623.849006306","10","green","2"
"100","77","19","848.244623921","1","1","6","350","0","right","in","Female","Right-handed","3","1","no","right","s","1275.57074213","527.655279513","10","green","2"
"100","80","19","828.392989899","1","1","6","351","2","right","out","Female","Right-handed","3","1","no","right","d","555.245131589","744.211435819","10","green","0"
"100","72","19","870.934832115","1","0","6","352","1","left","out","Female","Right-handed","3","1","no","left","d","976.797634863","1615.90887369","10","red","3"
"100","75","19","837.676948075","1","1","6","353","0","left","in","Female","Right-handed","3","1","no","left","s","576.318859973","367.361587296","10","red","0"
"100","76","19","875.00347244","1","1","6","354","0","right","in","Female","Right-handed","3","1","no","right","d","1037.94374395","1607.89978569","10","green","3"
"100","71","19","904.710310402","1","0","6","355","2","right","out","Female","Right-handed","3","1","no","right","s","1406.56224362","1175.23616418","10","red","1"
"100","73","19","900.63298907","1","1","6","356","1","right","in","Female","Right-handed","3","1","no","right","s","534.972889307","1152.12809153","10","red","3"
"100","75","19","893.85287382","1","1","6","357","0","right","in","Female","Right-handed","3","1","no","right","s","672.622594661","911.679695491","10","green","3"
"100","70","19","890.407807629","1","0","6","358","3","right","out","Female","Right-handed","3","1","no","right","s","678.284633724","992.288863417","10","red","3"
"100","66","19","891.430019619","1","0","6","359","2","left","in","Female","Right-handed","3","1","no","left","d","681.778266416","1135.83698049","10","red","3"
"100","68","19","884.320738462","1","1","6","360","2","right","out","Female","Right-handed","3","1","no","right","d","809.498716788","703.208638475","10","green","2"
"100","70","19","882.103647644","1","1","6","361","3","right","out","Female","Right-handed","3","1","no","right","d","976.000318158","703.957526046","10","green","0"
"100","71","19","881.263153641","1","1","6","362","1","left","in","Female","Right-handed","3","1","no","left","s","673.443965568","1055.4625816","10","green","0"
"100","68","19","883.708460357","1","0","6","363","2","left","in","Female","Right-handed","3","1","no","left","d","718.089210952","1152.03059182","10","green","0"
"100","69","19","878.205940917","1","1","6","364","3","left","out","Female","Right-handed","3","1","no","left","d","962.597956741","551.703069765","10","red","1"
"100","66","19","875.651194093","1","0","6","365","1","left","in","Female","Right-handed","3","1","no","left","d","1018.31551291","615.468521384","10","red","2"
"100","68","19","873.22150587","1","1","6","366","1","right","out","Female","Right-handed","3","1","no","right","d","653.886614251","975.931362769","10","green","0"
"100","69","19","876.554179173","1","1","6","367","0","left","out","Female","Right-handed","3","1","no","left","d","1032.55431921","887.187704262","10","red","3"
"100","70","19","883.604964104","1","1","6","368","2","right","in","Female","Right-handed","3","1","no","right","d","901.937421864","1231.91332276","10","red","0"
"100","71","19","879.117495672","1","1","6","369","1","right","in","Female","Right-handed","3","1","no","right","d","868.462307703","647.449388348","10","red","1"
"100","72","19","872.826039041","1","1","6","370","1","right","out","Female","Right-handed","3","1","no","right","s","610.25645631","783.074050389","10","red","3"
"100","70","19","874.173791522","1","0","6","371","3","left","in","Female","Right-handed","3","1","no","left","s","770.887869561","1055.62935742","10","green","2"
"100","70","19","870.788251012","1","1","6","372","0","left","in","Female","Right-handed","3","1","no","left","s","1011.30066537","527.143406038","10","green","3"
"100","68","19","862.730426252","1","0","6","373","2","right","out","Female","Right-handed","3","1","no","right","d","489.831485864","736.044231513","10","red","3"
"100","69","19","860.892104461","1","1","6","374","0","right","in","Female","Right-handed","3","1","no","right","d","724.544076604","879.58753774","10","red","2"
"100","70","19","854.350616088","1","1","6","375","1","left","out","Female","Right-handed","3","1","no","left","d","501.915035416","775.047964083","10","green","3"
"100","71","19","861.659109676","1","1","6","376","0","right","in","Female","Right-handed","3","1","no","right","d","812.622235451","1407.67354788","10","green","2"
"100","72","19","854.395604787","1","1","6","377","2","left","out","Female","Right-handed","3","1","no","left","d","521.085274403","679.26059299","10","red","3"
"100","72","19","852.380949326","1","1","6","378","0","right","out","Female","Right-handed","3","1","no","right","s","743.978591116","815.728114361","10","red","3"
"100","73","19","845.989696495","1","1","6","379","3","left","out","Female","Right-handed","3","1","no","left","d","555.520311691","663.506371798","10","green","3"
"100","71","19","850.980262707","1","0","6","380","2","right","in","Female","Right-handed","3","1","no","right","s","490.118853429","1591.12470405","10","green","3"
"100","72","19","849.395241212","1","1","6","381","2","left","in","Female","Right-handed","3","1","no","left","d","527.621603625","1047.53720223","10","red","2"
"100","73","19","843.941795615","1","1","6","382","1","left","out","Female","Right-handed","3","1","no","left","d","580.271767612","671.336175792","10","red","2"
"100","73","19","841.22649152","1","1","6","383","3","left","out","Female","Right-handed","3","1","no","left","d","699.905835807","759.892211505","10","green","2"
"100","74","19","848.741656305","1","1","6","384","0","left","out","Female","Right-handed","3","1","no","left","d","1065.31037301","1263.44678152","10","red","0"
"100","75","19","853.690606014","1","1","6","385","0","right","in","Female","Right-handed","3","1","no","right","s","965.990882494","1167.00000449","10","red","1"
"100","75","19","851.264125074","1","1","6","386","0","right","out","Female","Right-handed","3","1","no","right","s","737.591397959","751.406529531","10","green","3"
"100","76","19","852.653459063","1","1","6","387","1","left","out","Female","Right-handed","3","1","no","left","d","1127.22300942","703.123967675","10","red","2"
"100","76","19","853.463678554","1","1","6","388","1","right","in","Female","Right-handed","3","1","no","right","d","973.724790392","807.742759846","10","green","1"
"100","77","19","857.887163917","1","1","6","389","3","right","in","Female","Right-handed","3","1","no","right","s","1004.25374556","1127.32820647","10","red","0"
"100","77","19","861.315119494","1","1","6","390","3","right","out","Female","Right-handed","3","1","no","right","s","827.911729408","1223.80224493","10","red","2"
"100","78","19","861.808148153","1","1","6","391","0","left","out","Female","Right-handed","3","1","no","left","s","804.486461973","967.446642963","10","green","0"
"100","78","19","857.763531987","1","1","6","392","0","left","in","Female","Right-handed","3","1","no","left","d","584.032562335","727.032884985","10","green","0"
"100","78","19","858.060338258","1","1","6","393","3","right","out","Female","Right-handed","3","1","no","right","s","562.662806875","1183.73210928","10","green","3"
"100","79","19","854.478715006","1","1","6","394","3","left","in","Female","Right-handed","3","1","no","left","s","601.196680649","735.27193118","10","green","3"
"100","79","19","851.956930121","1","1","6","395","3","left","in","Female","Right-handed","3","1","no","left","s","749.867060429","686.737601982","10","red","3"
"100","80","19","854.827279439","1","1","6","396","0","right","in","Female","Right-handed","3","1","no","right","s","1284.3582242","735.294061049","10","green","1"
"100","80","19","850.545507554","1","1","6","397","3","left","out","Female","Right-handed","3","1","no","left","s","711.050950654","519.04515712","10","green","2"
"100","80","19","850.117628718","1","1","6","398","3","left","in","Female","Right-handed","3","1","no","left","d","1020.64139414","631.671433675","10","red","0"
"100","81","19","847.162809873","1","1","6","399","2","left","in","Female","Right-handed","3","1","no","left","d","654.255766114","703.220505215","10","red","3"
"100","81","19","846.174888408","1","1","6","400","3","left","out","Female","Right-handed","3","1","no","left","s","682.895664406","894.855222552","10","green","0"
"100","81","19","842.822262733","1","1","6","401","1","right","in","Female","Right-handed","3","1","no","right","s","746.47605901","543.558636775","10","red","0"
"100","81","19","841.341013132","1","1","6","402","3","left","in","Female","Right-handed","3","1","no","left","s","833.899302043","671.03277209","10","red","3"
"100","82","19","840.943061183","1","1","6","403","2","right","out","Female","Right-handed","3","1","no","right","s","873.650639298","759.685345343","10","green","0"
"100","82","19","839.137170026","1","1","6","404","0","right","out","Female","Right-handed","3","1","no","right","s","823.173371804","631.170464773","10","red","2"
"100","81","19","840.03646427","1","0","6","405","2","right","out","Female","Right-handed","3","1","no","right","s","626.612353342","1166.77164991","10","green","3"
"100","100","19","1272.20058769","1","1","7","406","1","right","out","Female","Right-handed","3","1","no","right","d","1496.16608049","1048.23509489","10","green","1"
"100","100","19","1111.51569393","1","1","7","407","0","right","out","Female","Right-handed","3","1","no","right","s","885.822387601","1015.83921272","10","red","1"
"100","100","19","1053.91434608","1","1","7","408","0","left","out","Female","Right-handed","3","1","no","left","d","1118.21390795","759.209392814","10","green","0"
"100","100","19","968.275550857","1","1","7","409","3","left","in","Female","Right-handed","3","1","no","left","s","598.708513713","824.009816681","10","green","3"
"100","100","19","976.834036892","1","1","7","410","2","left","in","Female","Right-handed","3","1","no","left","s","966.649326258","1055.4866358","10","red","0"
"100","83","19","913.361832755","1","0","7","411","1","left","out","Female","Right-handed","3","1","no","left","d","599.957087299","592.044536841","10","red","0"
"100","85","19","890.470988659","1","1","7","412","2","left","in","Female","Right-handed","3","1","no","left","s","578.659494451","927.592353714","10","green","3"
"100","87","19","875.516022826","1","1","7","413","1","right","out","Female","Right-handed","3","1","no","right","d","926.387398419","615.275125579","10","green","2"
"100","88","19","881.929579837","1","1","7","414","0","right","in","Female","Right-handed","3","1","no","right","d","946.830906638","919.645165201","10","red","2"
"100","90","19","857.382010919","1","1","7","415","1","right","in","Female","Right-handed","3","1","no","right","d","609.479345136","663.428436175","10","green","0"
"100","81","19","851.128833212","1","0","7","416","2","left","out","Female","Right-handed","3","1","no","left","d","769.141534298","808.052578","10","green","0"
"100","83","19","845.878777071","1","1","7","417","2","right","out","Female","Right-handed","3","1","no","right","d","888.702798435","687.553520605","10","red","0"
"100","84","19","874.986116406","1","1","7","418","0","right","in","Female","Right-handed","3","1","no","right","d","929.203985428","1519.34439142","10","green","0"
"100","85","19","883.2516002","1","1","7","419","2","left","in","Female","Right-handed","3","1","no","left","s","605.698665602","1375.70711344","10","red","3"
"100","86","19","897.258718687","1","1","7","420","0","left","in","Female","Right-handed","3","1","no","left","d","1387.44813112","799.268623887","10","red","1"
"100","87","19","894.612896485","1","1","7","421","3","right","in","Female","Right-handed","3","1","no","right","d","565.789853486","1144.06127344","10","red","2"
"100","88","19","881.221865306","1","1","7","422","0","left","out","Female","Right-handed","3","1","no","left","d","590.539385071","743.3913478","10","green","3"
"100","88","19","875.097312621","1","1","7","423","0","left","in","Female","Right-handed","3","1","no","left","s","646.943608606","895.016225362","10","green","3"
"100","84","19","891.834022881","1","0","7","424","3","right","out","Female","Right-handed","3","1","no","right","s","898.603188368","1487.58642676","10","green","2"
"100","85","19","892.80070482","1","1","7","425","1","right","out","Female","Right-handed","3","1","no","right","s","495.035212149","1327.30011116","10","red","3"
"100","85","19","885.53605093","1","1","7","426","1","right","out","Female","Right-handed","3","1","no","right","d","752.710588147","727.775358102","10","green","1"
"100","86","19","886.869977373","1","1","7","427","3","right","out","Female","Right-handed","3","1","no","right","d","1038.29493534","791.46993","10","red","1"
"100","86","19","876.503502836","1","1","7","428","2","right","in","Female","Right-handed","3","1","no","right","s","545.930060636","750.952065422","10","green","2"
"100","87","19","882.020460186","1","1","7","429","3","left","out","Female","Right-handed","3","1","no","left","s","1018.35464108","999.466317378","10","red","0"
"100","88","19","875.564565013","1","1","7","430","0","left","in","Female","Right-handed","3","1","no","left","d","586.078452629","855.167709123","10","green","3"
"100","88","19","864.7086984","1","1","7","431","0","left","in","Female","Right-handed","3","1","no","left","s","634.842419302","551.781646834","10","green","0"
"100","88","19","859.786947929","1","1","7","432","0","right","in","Female","Right-handed","3","1","no","right","d","776.385057142","687.257814249","10","green","2"
"100","89","19","853.704692302","1","1","7","433","1","left","in","Female","Right-handed","3","1","no","left","s","651.97799329","726.989587416","10","red","3"
"100","89","19","853.886073447","1","1","7","434","3","right","in","Female","Right-handed","3","1","no","right","d","670.492995736","1047.4364953","10","red","0"
"100","90","19","843.211133697","1","1","7","435","3","left","in","Female","Right-handed","3","1","no","left","s","604.094410508","463.181351384","10","green","3"
"100","90","19","837.676764004","1","1","7","436","0","right","out","Female","Right-handed","3","1","no","right","s","495.79211779","847.499228661","10","green","3"
"100","90","19","828.256862143","1","1","7","437","3","right","out","Female","Right-handed","3","1","no","right","s","577.108158608","495.371650292","10","green","3"
"100","90","19","822.685450483","1","1","7","438","1","right","in","Female","Right-handed","3","1","no","right","s","514.058560122","774.741994601","10","red","3"
"100","91","19","820.021893665","1","1","7","439","1","left","out","Female","Right-handed","3","1","no","left","d","833.739902847","630.509134504","10","red","0"
"100","91","19","816.464988578","1","1","7","440","2","left","in","Female","Right-handed","3","1","no","left","d","599.884924684","791.175506533","10","red","3"
"100","91","19","816.962963688","1","1","7","441","3","left","out","Female","Right-handed","3","1","no","left","s","685.861387487","982.92279755","10","red","0"
"100","89","19","828.785815866","1","0","7","442","1","left","in","Female","Right-handed","3","1","no","left","s","1813.3679158","695.449072758","10","green","2"
"100","89","19","825.459829461","1","1","7","443","0","right","in","Female","Right-handed","3","1","no","right","d","589.869074569","814.927590429","10","green","3"
"100","87","19","820.948707373","1","0","7","444","3","left","out","Female","Right-handed","3","1","no","left","s","571.394483184","727.65765286","10","red","3"
"100","87","19","814.877926515","1","1","7","445","2","left","out","Female","Right-handed","3","1","no","left","s","613.110888602","543.124057476","10","green","3"
"100","85","19","816.432178978","1","0","7","446","2","left","out","Female","Right-handed","3","1","no","left","s","934.706946022","822.497609013","10","green","1"
"100","85","19","818.038070185","1","1","7","447","2","right","in","Female","Right-handed","3","1","no","right","d","696.47378188","1071.28543746","10","green","2"
"100","86","19","818.231303055","1","1","7","448","0","right","out","Female","Right-handed","3","1","no","right","s","637.722509413","1014.97165773","10","red","2"
"100","86","19","814.803058896","1","1","7","449","0","right","out","Female","Right-handed","3","1","no","right","s","655.408443603","679.36867655","10","red","2"
"100","86","19","812.922763339","1","1","7","450","2","left","out","Female","Right-handed","3","1","no","left","s","605.181019115","855.198498506","10","red","2"
"100","86","19","808.962409121","1","1","7","451","1","left","in","Female","Right-handed","3","1","no","left","s","566.651956184","694.840982463","10","red","2"
"100","87","19","805.638859683","1","1","7","452","3","right","in","Female","Right-handed","3","1","no","right","d","666.326166034","639.185005057","10","red","2"
"100","87","19","809.309466992","1","1","7","453","3","right","out","Female","Right-handed","3","1","no","right","s","676.952992952","1286.70302807","10","green","2"
"100","87","19","806.341250607","1","1","7","454","2","left","in","Female","Right-handed","3","1","no","left","s","616.417860663","711.315867629","10","red","3"
"100","88","19","810.806944802","1","1","7","455","2","right","in","Female","Right-handed","3","1","no","right","s","1212.1677072","847.08421345","10","green","1"
"100","86","19","809.900959689","1","0","7","456","2","left","out","Female","Right-handed","3","1","no","left","d","594.614488071","934.588920056","10","red","2"
"100","86","19","805.414547203","1","1","7","457","3","right","in","Female","Right-handed","3","1","no","right","s","618.011211183","535.203809672","10","red","3"
"100","86","19","807.987292772","1","1","7","458","3","right","out","Female","Right-handed","3","1","no","right","d","1124.69539359","758.844731071","10","red","1"
"100","87","19","805.911237062","1","1","7","459","1","left","in","Female","Right-handed","3","1","no","left","d","512.287849933","879.472719003","10","green","3"
"100","87","19","810.803416852","1","1","7","460","1","left","out","Female","Right-handed","3","1","no","left","s","1183.00887953","966.953371406","10","green","0"
"100","87","19","814.549446877","1","1","7","461","2","left","out","Female","Right-handed","3","1","no","left","s","986.56652848","1054.59566806","10","green","0"
"100","87","19","810.446317413","1","1","7","462","1","left","out","Female","Right-handed","3","1","no","left","d","554.206952114","607.135182707","10","green","3"
"100","87","19","808.580996347","1","1","7","463","0","left","out","Female","Right-handed","3","1","no","left","d","837.708846622","566.80654454","10","red","0"
"100","88","19","808.389856003","1","1","7","464","3","left","in","Female","Right-handed","3","1","no","left","d","699.306084303","895.301347869","10","red","0"
"100","88","19","807.366560101","1","1","7","465","2","right","in","Female","Right-handed","3","1","no","right","s","543.029123548","950.955080216","10","green","3"
"100","88","19","802.223505487","1","1","7","466","1","right","in","Female","Right-handed","3","1","no","right","s","460.564895358","526.715561915","10","red","3"
"100","87","19","800.569534767","1","0","7","467","3","right","out","Female","Right-handed","3","1","no","right","s","600.176461647","799.178180078","10","green","3"
"100","85","19","799.279001559","1","0","7","468","1","right","out","Female","Right-handed","3","1","no","right","s","743.747350029","694.784535265","10","red","2"
"100","85","19","798.523366996","1","1","7","469","0","right","in","Female","Right-handed","3","1","no","right","d","550.500680254","951.336098819","10","red","3"
"100","100","19","846.807429735","1","1","8","470","3","right","out","Female","Right-handed","3","1","no","right","d","957.745101121","735.869758349","10","red","2"
"100","100","19","811.227171758","1","1","8","471","2","left","out","Female","Right-handed","3","1","no","left","d","888.198943026","663.094884536","10","red","1"
"100","100","19","770.309392665","1","1","8","472","3","right","in","Female","Right-handed","3","1","no","right","d","784.978822677","591.968846276","10","red","2"
"100","75","19","777.631906844","1","0","8","473","1","right","out","Female","Right-handed","3","1","no","right","s","607.618832583","991.580066184","10","red","2"
"100","80","19","757.38823294","1","1","8","474","0","right","out","Female","Right-handed","3","1","no","right","d","857.991993478","494.835081165","10","green","1"
"100","83","19","732.940811476","1","1","8","475","2","right","in","Female","Right-handed","3","1","no","right","d","685.618600381","535.788807933","10","red","3"
"100","85","19","727.419814049","1","1","8","476","2","right","in","Female","Right-handed","3","1","no","right","d","597.22645398","791.361204994","10","green","2"
"100","87","19","736.553839885","1","1","8","477","3","left","out","Female","Right-handed","3","1","no","left","d","826.085213463","774.898828016","10","red","2"
"100","77","19","729.155178557","1","0","8","478","3","right","in","Female","Right-handed","3","1","no","right","d","572.344143186","767.587632676","10","red","3"
"100","80","19","737.058597326","1","1","8","479","1","right","out","Female","Right-handed","3","1","no","right","d","1033.2159702","583.162762294","10","red","1"
"100","81","19","745.010531077","1","1","8","480","0","left","out","Female","Right-handed","3","1","no","left","s","913.499476261","735.560260915","10","green","2"
"100","83","19","771.535141483","1","1","8","481","3","right","out","Female","Right-handed","3","1","no","right","d","1503.4317332","623.179978693","10","green","0"
"100","76","19","781.862717646","1","0","8","482","2","right","out","Female","Right-handed","3","1","no","right","s","652.74548278","1158.84178042","10","red","3"
"100","78","19","785.757125108","1","1","8","483","0","left","in","Female","Right-handed","3","1","no","left","d","521.400224121","1151.3686201","10","green","3"
"100","80","19","771.879597694","1","1","8","484","1","right","out","Female","Right-handed","3","1","no","right","s","676.077419901","479.111007909","10","red","0"
"100","81","19","776.395049661","1","1","8","485","0","left","in","Female","Right-handed","3","1","no","left","s","889.555920894","798.697737429","10","red","2"
"100","82","19","772.682737718","1","1","8","486","1","left","out","Female","Right-handed","3","1","no","left","s","763.346395301","663.225097964","10","red","0"
"100","83","19","772.468177356","1","1","8","487","1","left","out","Female","Right-handed","3","1","no","left","s","674.883369179","862.757933237","10","green","0"
"100","84","19","768.063036601","1","1","8","488","1","right","out","Female","Right-handed","3","1","no","right","s","650.273993427","727.267012577","10","red","3"
"100","85","19","770.710862686","1","1","8","489","2","right","in","Female","Right-handed","3","1","no","right","s","603.061362597","1038.97775403","10","green","0"
"100","85","19","786.630353828","1","1","8","490","3","right","in","Female","Right-handed","3","1","no","right","d","1314.55908001","895.481273321","10","green","0"
"100","86","19","793.974978612","1","1","8","491","3","left","in","Female","Right-handed","3","1","no","left","s","857.316230687","1039.10796746","10","red","0"
"100","86","19","794.860073833","1","1","8","492","2","right","in","Female","Right-handed","3","1","no","right","d","685.806223177","942.858114189","10","green","2"
"100","83","19","799.635584144","1","0","8","493","0","right","in","Female","Right-handed","3","1","no","right","s","923.494158676","895.450483938","10","red","1"
"100","84","19","800.626698628","1","1","8","494","2","left","out","Female","Right-handed","3","1","no","left","s","681.962681985","966.864210486","10","green","2"
"100","84","19","811.333090439","1","1","8","495","3","right","out","Female","Right-handed","3","1","no","right","s","1135.48963777","1022.49613369","10","green","2"
"100","81","19","807.933209753","1","0","8","496","2","left","in","Female","Right-handed","3","1","no","left","s","727.995694617","711.076929196","10","red","2"
"100","78","19","844.003161914","1","0","8","497","0","left","out","Female","Right-handed","3","1","no","left","None","635.625303483","3000.15843703","10","green","3"
"100","79","19","842.471275022","1","1","8","498","3","left","in","Female","Right-handed","3","1","no","left","s","520.006683863","1079.15020023","10","green","3"
"100","80","19","836.093954227","1","1","8","499","0","right","in","Female","Right-handed","3","1","no","right","s","583.661486138","718.641816214","10","green","3"
"100","80","19","829.246013556","1","1","8","500","0","right","in","Female","Right-handed","3","1","no","right","s","456.364710493","791.250876375","10","green","3"
"100","81","19","824.093324862","1","1","8","501","0","right","in","Female","Right-handed","3","1","no","right","d","649.863789056","678.856161628","10","green","0"
"100","81","19","816.497450439","1","1","8","502","1","left","out","Female","Right-handed","3","1","no","left","d","532.391712781","614.467225024","10","red","3"
"100","82","19","810.283935644","1","1","8","503","3","right","in","Female","Right-handed","3","1","no","right","d","587.361984992","623.113909809","10","green","3"
"100","82","19","810.427593957","1","1","8","504","0","left","out","Female","Right-handed","3","1","no","left","d","943.691672563","686.932280678","10","green","2"
"100","83","19","810.189437731","1","1","8","505","0","left","out","Female","Right-handed","3","1","no","left","s","532.439500466","1071.26843915","10","red","3"
"100","81","19","807.870598191","1","0","8","506","0","right","in","Female","Right-handed","3","1","no","right","d","769.94783124","678.836918265","10","red","2"
"100","78","19","810.704030786","1","0","8","507","1","left","in","Female","Right-handed","3","1","no","left","s","760.500622522","1070.58145107","10","red","3"
"100","79","19","805.779389867","1","1","8","508","1","right","out","Female","Right-handed","3","1","no","right","d","654.119779678","583.166290245","10","green","0"
"100","80","19","807.736613995","1","1","8","509","1","left","in","Female","Right-handed","3","1","no","left","s","881.528872422","886.607837567","10","red","2"
"100","80","19","806.044251382","1","1","8","510","2","right","out","Female","Right-handed","3","1","no","right","d","605.382112267","871.317381439","10","green","3"
"100","80","19","803.184663687","1","1","8","511","3","left","in","Female","Right-handed","3","1","no","left","s","868.902339287","502.980797048","10","red","1"
"100","81","19","798.320026746","1","1","8","512","3","right","out","Female","Right-handed","3","1","no","right","d","557.365429555","630.64512094","10","red","3"
"100","81","19","792.029846282","1","1","8","513","1","left","in","Female","Right-handed","3","1","no","left","s","652.093453473","391.010719195","10","green","3"
"100","82","19","791.045902478","1","1","8","514","2","left","out","Female","Right-handed","3","1","no","left","d","800.779869389","694.724880836","10","red","1"
"100","82","19","787.504922048","1","1","8","515","1","right","out","Female","Right-handed","3","1","no","right","s","690.167090128","566.154515231","10","green","2"
"100","82","19","784.365013965","1","1","8","516","0","right","in","Female","Right-handed","3","1","no","right","d","496.883857961","782.974626343","10","red","0"
"100","83","19","786.368096657","1","1","8","517","0","right","out","Female","Right-handed","3","1","no","right","s","978.525047483","782.500918871","10","green","3"
"100","83","19","782.036682538","1","1","8","518","3","right","out","Female","Right-handed","3","1","no","right","s","549.100404816","599.157204811","10","red","3"
"100","84","19","789.291096929","1","1","8","519","3","left","out","Female","Right-handed","3","1","no","left","d","1202.70478307","1086.81002118","10","red","1"
"100","84","19","787.691313152","1","1","8","520","1","left","in","Female","Right-handed","3","1","no","left","s","513.198061039","902.206187511","10","green","3"
"100","84","19","785.511092886","1","1","8","521","2","left","in","Female","Right-handed","3","1","no","left","s","533.868961673","814.770757013","10","green","3"
"100","84","19","781.708455366","1","1","8","522","3","left","out","Female","Right-handed","3","1","no","left","s","473.490021353","694.452587239","10","red","3"
"100","83","19","779.234960711","1","0","8","523","1","left","out","Female","Right-handed","3","1","no","left","s","497.229917786","799.049570263","10","green","3"
"100","83","19","777.578568467","1","1","8","524","0","left","out","Female","Right-handed","3","1","no","left","s","697.492397266","678.774377333","10","green","0"
"100","83","19","781.145733613","1","1","8","525","2","left","in","Female","Right-handed","3","1","no","left","s","596.271341692","1358.40829158","10","red","0"
"100","84","19","778.394936461","1","1","8","526","2","right","out","Female","Right-handed","3","1","no","right","d","433.904497752","814.79609411","10","green","3"
"100","82","19","775.414890241","1","0","8","527","2","left","in","Female","Right-handed","3","1","no","left","d","452.505774612","758.598736736","10","green","3"
"100","83","19","784.791333063","1","1","8","528","2","right","in","Female","Right-handed","3","1","no","right","s","706.15992903","1951.09010449","10","red","0"
"100","83","19","785.036745203","1","1","8","529","2","left","out","Female","Right-handed","3","1","no","left","s","568.609006279","1030.42311667","10","green","0"
"100","83","19","784.360500802","1","1","8","530","3","left","in","Female","Right-handed","3","1","no","left","s","825.307781568","662.263891946","10","green","0"
"100","82","19","785.188696907","1","0","8","531","0","left","in","Female","Right-handed","3","1","no","left","s","616.640762961","1054.77655568","10","green","0"
"100","80","19","784.00008127","1","0","8","532","1","left","in","Female","Right-handed","3","1","no","left","d","814.332329042","606.279494463","10","red","1"
"100","81","19","784.498445176","1","1","8","533","1","right","in","Female","Right-handed","3","1","no","right","d","1017.93770153","613.853040996","10","red","2"
dis_reply=No
dis_loc=3
tar_loc=2
