"acc_1","acc_2","age","avg_rt","correct_1","correct_2","count_block_loop","count_trial_sequence","cue_position","detection","dis_shape","gender","hand","high_loc","low_loc","practice","response_keyboard_response_1","response_keyboard_response_2","response_time_keyboard_response_1","response_time_keyboard_response_2","subject_nr","tar_color","tar_position"
"0","100","26","2124.0235443","0","1","0","0","3","left","out","Female","Right-handed","1","3","yes","None","s","3000.1164194","1247.9306692","29","green","2"
"50","50","26","1691.67588454","1","0","0","1","0","right","in","Female","Right-handed","1","3","yes","right","s","1436.76005128","1081.89639828","29","red","1"
"66","33","26","1509.89837516","1","0","0","2","1","left","in","Female","Right-handed","1","3","yes","left","s","1187.26718124","1105.41953158","29","green","0"
"75","50","26","1337.68353294","1","1","0","3","1","left","in","Female","Right-handed","1","3","yes","left","s","935.99370373","706.084308813","29","red","1"
"80","60","26","1375.96494205","1","1","0","4","2","right","out","Female","Right-handed","1","3","yes","right","d","1272.64012582","1785.5410311","29","red","2"
"83","50","26","1322.22287078","1","0","0","5","0","left","out","Female","Right-handed","1","3","yes","left","s","1384.92294992","722.102078969","29","red","1"
"85","57","26","1273.90014478","1","1","0","6","3","left","in","Female","Right-handed","1","3","yes","left","d","1102.49653869","865.431038825","29","red","1"
"87","62","26","1253.99870977","1","1","0","7","0","right","in","Female","Right-handed","1","3","yes","right","s","1268.16198781","961.215341576","29","red","2"
"88","66","26","1238.68136694","1","1","0","8","2","left","in","Female","Right-handed","1","3","yes","left","d","1398.79321509","833.492033609","29","green","0"
"90","70","26","1242.42505782","1","1","0","9","2","right","in","Female","Right-handed","1","3","yes","right","d","1119.13104303","1433.10550837","29","green","1"
"90","72","26","1207.32337511","1","1","0","10","3","left","in","Female","Right-handed","1","3","yes","left","d","822.770544415","889.84255158","29","green","2"
"91","75","26","1169.2388646","1","1","0","11","0","right","in","Female","Right-handed","1","3","yes","right","s","651.186948711","849.431549401","29","green","2"
"92","76","26","1164.36488973","1","1","0","12","3","left","out","Female","Right-handed","1","3","yes","left","d","1089.88828548","1121.86609716","29","green","1"
"92","78","26","1184.9802914","1","1","0","13","3","right","in","Female","Right-handed","1","3","yes","right","d","832.467671165","2073.49335495","29","red","0"
"93","80","26","1154.65355286","1","1","0","14","2","right","in","Female","Right-handed","1","3","yes","right","d","571.060895045","889.097531555","29","green","3"
"93","81","26","1138.8677195","1","1","0","15","1","left","in","Female","Right-handed","1","3","yes","left","d","738.614711756","1065.54572637","29","red","1"
"94","82","26","1126.88971411","1","1","0","16","0","left","out","Female","Right-handed","1","3","yes","left","d","941.28292897","929.200327","29","red","0"
"94","83","26","1123.5178041","1","1","0","17","1","left","out","Female","Right-handed","1","3","yes","left","d","1218.52947864","913.861188947","29","red","2"
"94","84","26","1110.37443717","1","1","0","18","3","left","in","Female","Right-handed","1","3","yes","left","d","730.276132066","1017.31153286","29","green","0"
"95","80","26","1093.35387136","1","0","0","19","2","right","in","Female","Right-handed","1","3","yes","right","s","722.90194119","817.024300866","29","red","3"
"95","80","26","1091.57390035","1","1","0","20","3","left","in","Female","Right-handed","1","3","yes","left","d","1094.52293222","1017.42602798","29","green","3"
"95","77","26","1081.59438717","1","0","0","21","0","right","out","Female","Right-handed","1","3","yes","right","d","654.922632413","1089.1265883","29","green","3"
"100","100","26","670.690886606","1","1","1","22","1","right","out","Female","Right-handed","1","3","no","right","d","612.138021455","729.243751757","29","red","3"
"100","100","26","770.996142766","1","1","1","23","1","right","out","Female","Right-handed","1","3","no","right","s","740.914235463","1001.68856239","29","red","0"
"100","100","26","787.480499216","1","1","1","24","3","right","in","Female","Right-handed","1","3","no","right","d","983.474217914","657.42420632","29","green","1"
"100","75","26","863.14265995","1","0","1","25","0","left","out","Female","Right-handed","1","3","no","left","d","1107.19083834","1073.06744596","29","red","2"
"100","80","26","905.43768403","1","1","1","26","1","right","in","Female","Right-handed","1","3","no","right","s","1139.55799755","1009.67756316","29","green","1"
"100","83","26","939.462820144","1","1","1","27","3","left","out","Female","Right-handed","1","3","no","left","s","1257.99950418","961.177497253","29","green","0"
"100","85","26","927.994004836","1","1","1","28","2","right","out","Female","Right-handed","1","3","no","right","s","900.586170081","817.776055897","29","green","1"
"100","87","26","953.142433846","1","1","1","29","2","left","out","Female","Right-handed","1","3","no","left","d","1377.22034729","881.142526532","29","red","0"
"100","77","26","993.878555999","1","0","1","30","1","right","in","Female","Right-handed","1","3","no","right","s","1877.8058118","761.729254657","29","red","2"
"100","70","26","986.624356927","1","0","1","31","0","left","out","Female","Right-handed","1","3","no","left","d","929.297824239","913.375306323","29","green","1"
"100","72","26","996.230597532","1","1","1","32","3","right","out","Female","Right-handed","1","3","no","right","s","1150.76344508","1033.82256208","29","green","0"
"100","75","26","992.743297573","1","1","1","33","2","left","in","Female","Right-handed","1","3","no","left","d","1035.38604577","873.37995027","29","red","2"
"100","69","26","987.103461372","1","0","1","34","1","right","in","Female","Right-handed","1","3","no","right","s","845.845318707","993.005535214","29","green","2"
"100","71","26","985.493643231","1","1","1","35","3","left","out","Female","Right-handed","1","3","no","left","d","871.516598425","1057.61541637","29","red","3"
"100","73","26","970.869695688","1","1","1","36","1","left","in","Female","Right-handed","1","3","no","left","s","867.124091214","665.144768967","29","red","0"
"100","75","26","968.263756572","1","1","1","37","0","left","in","Female","Right-handed","1","3","no","left","d","1024.658463","833.690876663","29","green","3"
"100","76","26","959.413529202","1","1","1","38","1","left","out","Female","Right-handed","1","3","no","left","d","786.246282518","849.373500057","29","green","0"
"100","72","26","958.130031456","1","0","1","39","3","left","out","Female","Right-handed","1","3","no","left","d","615.703084986","1256.91805453","29","red","3"
"100","73","26","948.220770751","1","1","1","40","0","left","in","Female","Right-handed","1","3","no","left","s","722.168787604","817.53936852","29","green","3"
"100","75","26","950.008923884","1","1","1","41","3","left","in","Female","Right-handed","1","3","no","left","d","934.874089051","1033.09357779","29","green","2"
"100","76","26","952.847500496","1","1","1","42","2","right","in","Female","Right-handed","1","3","no","right","d","881.585433399","1137.65263209","29","red","0"
"100","77","26","954.906921771","1","1","1","43","2","right","out","Female","Right-handed","1","3","no","right","s","1139.05287205","857.256665011","29","red","1"
"100","78","26","958.658060936","1","1","1","44","0","right","in","Female","Right-handed","1","3","no","right","s","1169.69105883","912.675186342","29","red","1"
"100","79","26","976.643972367","1","1","1","45","3","right","in","Female","Right-handed","1","3","no","right","d","1267.30824554","1513.33162499","29","red","2"
"100","80","26","981.930227255","1","1","1","46","0","left","out","Female","Right-handed","1","3","no","left","d","1008.80554015","1208.795149","29","red","0"
"100","76","26","978.431634539","1","0","1","47","3","left","out","Female","Right-handed","1","3","no","left","d","764.475213091","1017.45842015","29","green","0"
"100","77","26","977.648389628","1","1","1","48","0","right","in","Female","Right-handed","1","3","no","right","s","1081.80114604","832.766897891","29","green","2"
"100","78","26","972.534430889","1","1","1","49","0","right","out","Female","Right-handed","1","3","no","right","d","787.384498644","881.530591203","29","green","1"
"100","79","26","970.760963853","1","1","1","50","2","left","out","Female","Right-handed","1","3","no","left","d","993.036965245","849.170808429","29","green","3"
"100","80","26","971.17742135","1","1","1","51","3","left","in","Female","Right-handed","1","3","no","left","d","973.681518211","992.827859322","29","green","0"
"100","80","26","971.047468482","1","1","1","52","1","left","out","Female","Right-handed","1","3","no","left","d","636.993723936","1297.30404097","29","red","0"
"100","81","26","973.318454247","1","1","1","53","3","left","out","Female","Right-handed","1","3","no","left","d","1030.63914892","1056.79887699","29","red","1"
"100","78","26","999.500890328","1","0","1","54","0","right","in","Female","Right-handed","1","3","no","right","s","1961.21983158","1713.45785826","29","red","1"
"100","79","26","992.18767996","1","1","1","55","0","left","in","Female","Right-handed","1","3","no","left","d","620.909886573","880.793589042","29","green","0"
"100","80","26","1012.92024437","1","1","1","56","1","right","out","Female","Right-handed","1","3","no","right","s","2650.34026216","785.314606594","29","red","2"
"100","80","26","1015.29487053","1","1","1","57","3","right","in","Female","Right-handed","1","3","no","right","d","1179.89908394","1016.91448819","29","green","1"
"100","78","26","1016.67292941","1","0","1","58","1","left","in","Female","Right-handed","1","3","no","left","d","1147.1974194","985.368679076","29","red","1"
"100","78","26","1016.05102742","1","1","1","59","1","right","in","Female","Right-handed","1","3","no","right","s","1105.05231336","881.028993561","29","red","3"
"100","79","26","1009.33388868","1","1","1","60","1","right","in","Female","Right-handed","1","3","no","right","d","595.580488622","912.584744827","29","green","1"
"100","80","26","1004.80419652","1","1","1","61","2","right","in","Female","Right-handed","1","3","no","right","d","607.129421493","1049.16298299","29","green","2"
"100","80","26","1000.89872836","1","1","1","62","0","right","out","Female","Right-handed","1","3","no","right","s","688.627812948","1000.73219144","29","green","0"
"100","78","26","999.397190177","1","0","1","63","0","left","in","Female","Right-handed","1","3","no","left","d","1090.43125531","785.236993659","29","green","1"
"100","79","26","1001.36301469","1","1","1","64","2","left","in","Female","Right-handed","1","3","no","left","d","878.893034303","1288.96225414","29","red","1"
"100","77","26","1008.43012184","1","0","1","65","2","right","out","Female","Right-handed","1","3","no","right","d","1623.22865316","1001.40280568","29","red","0"
"100","75","26","1003.15091407","1","0","1","66","3","left","in","Female","Right-handed","1","3","no","left","d","756.859524117","784.87202044","29","red","1"
"100","76","26","1003.8297472","1","1","1","67","3","right","in","Female","Right-handed","1","3","no","right","d","1004.29436854","1064.46010743","29","green","1"
"100","76","26","997.40959156","1","1","1","68","1","left","out","Female","Right-handed","1","3","no","left","d","579.151241631","825.013622352","29","red","1"
"100","77","26","990.372648721","1","1","1","69","2","left","in","Female","Right-handed","1","3","no","left","s","710.555711816","608.716958779","29","red","2"
"100","77","26","992.684205361","1","1","1","70","2","right","out","Female","Right-handed","1","3","no","right","s","1430.02247889","777.255369323","29","green","1"
"100","78","26","992.11816922","1","1","1","71","2","left","in","Female","Right-handed","1","3","no","left","d","1103.80922356","824.955573009","29","red","1"
"100","78","26","992.250503863","1","1","1","72","3","right","out","Female","Right-handed","1","3","no","right","s","1285.39430417","712.340167867","29","green","2"
"100","78","26","995.955603823","1","1","1","73","0","right","in","Female","Right-handed","1","3","no","right","s","1424.83043017","945.000973368","29","red","2"
"100","79","26","990.984833521","1","1","1","74","2","left","in","Female","Right-handed","1","3","no","left","s","640.440764493","824.568791197","29","red","2"
"100","79","26","986.903550868","1","1","1","75","3","right","out","Female","Right-handed","1","3","no","right","s","812.015059475","729.176080975","29","red","2"
"100","80","26","989.709122642","1","1","1","76","2","right","out","Female","Right-handed","1","3","no","right","d","1457.70784632","824.712150626","29","red","1"
"100","80","26","994.397270508","1","1","1","77","1","right","in","Female","Right-handed","1","3","no","right","d","720.154379182","1784.33642705","29","red","1"
"100","78","26","996.947202088","1","0","1","78","2","left","in","Female","Right-handed","1","3","no","left","d","1510.70625525","768.780485929","29","green","0"
"100","77","26","995.427657607","1","0","1","79","1","right","out","Female","Right-handed","1","3","no","right","d","609.341069397","1208.28617492","29","green","1"
"100","77","26","1001.27311195","1","1","1","80","0","right","out","Female","Right-handed","1","3","no","right","s","1143.73947455","1536.87945332","29","green","1"
"100","78","26","997.834035217","1","1","1","81","3","right","out","Female","Right-handed","1","3","no","right","d","814.447679741","775.409336067","29","red","1"
"100","78","26","1001.61399887","1","1","1","82","2","left","in","Female","Right-handed","1","3","no","left","s","1591.80984703","865.013789124","29","green","3"
"100","79","26","1009.86915134","1","1","1","83","1","left","out","Female","Right-handed","1","3","no","left","d","2026.42303475","1000.44386901","29","green","2"
"100","77","26","1014.9664066","1","0","1","84","0","left","out","Female","Right-handed","1","3","no","left","s","1140.99030897","1521.00215616","29","green","2"
"100","78","26","1014.95934682","1","1","1","85","0","left","out","Female","Right-handed","1","3","no","left","s","1204.42894039","824.600221229","29","green","0"
"100","0","26","1059.40869207","1","0","2","86","2","left","out","Female","Right-handed","1","3","no","left","s","1053.83996405","1064.97742009","29","red","1"
"100","50","26","1013.442031","1","1","2","87","0","left","in","Female","Right-handed","1","3","no","left","d","1293.40703783","641.543702015","29","red","1"
"100","66","26","931.171118239","1","1","2","88","2","left","in","Female","Right-handed","1","3","no","left","d","812.125706014","721.132879436","29","red","1"
"100","75","26","1030.43581587","1","1","2","89","2","right","out","Female","Right-handed","1","3","no","right","s","1566.56896631","1089.8908512","29","red","2"
"100","80","26","994.604650298","1","1","2","90","0","left","out","Female","Right-handed","1","3","no","left","d","773.194481015","929.365495022","29","green","1"
"100","83","26","1054.88426426","1","1","2","91","3","right","in","Female","Right-handed","1","3","no","right","d","1871.82320159","840.741466505","29","green","3"
"100","85","26","1062.00221944","1","1","2","92","2","right","in","Female","Right-handed","1","3","no","right","d","1024.23704401","1185.18285703","29","green","1"
"100","87","26","1066.04930843","1","1","2","93","3","left","in","Female","Right-handed","1","3","no","left","d","1299.81748132","888.940381399","29","green","1"
"100","88","26","1062.88240539","1","1","2","94","0","left","in","Female","Right-handed","1","3","no","left","d","649.600694282","1425.49366797","29","red","0"
"100","90","26","1101.49074562","1","1","2","95","3","left","in","Female","Right-handed","1","3","no","left","s","1952.89504262","945.03657269","29","green","0"
"100","90","26","1061.2246802","1","1","2","96","1","left","in","Female","Right-handed","1","3","no","left","d","524.461704592","792.66634745","29","red","1"
"100","91","26","1050.59141911","1","1","2","97","0","left","out","Female","Right-handed","1","3","no","left","s","1018.03089572","849.220198477","29","green","2"
"100","92","26","1042.83128727","1","1","2","98","0","right","in","Female","Right-handed","1","3","no","right","d","826.694166875","1072.72524348","29","red","1"
"100","92","26","1037.47009508","1","1","2","99","0","right","in","Female","Right-handed","1","3","no","right","d","958.351360167","977.197833125","29","red","2"
"100","93","26","1018.42644373","1","1","2","100","1","left","in","Female","Right-handed","1","3","no","left","s","590.937503308","912.69314636","29","green","1"
"100","87","26","1028.8064153","1","0","2","101","2","left","out","Female","Right-handed","1","3","no","left","d","919.510255972","1449.50172176","29","red","0"
"100","88","26","1026.95663782","1","1","2","102","1","left","in","Female","Right-handed","1","3","no","left","s","1057.88802378","936.832372419","29","red","2"
"100","88","26","1008.93623135","1","1","2","103","1","left","in","Female","Right-handed","1","3","no","left","s","564.616776517","840.561866329","29","green","1"
"100","89","26","1014.6873447","1","1","2","104","3","right","out","Female","Right-handed","1","3","no","right","d","963.189660675","1273.22510926","29","red","2"
"100","90","26","1018.66505272","1","1","2","105","3","left","in","Female","Right-handed","1","3","no","left","s","683.733066669","1504.74994364","29","green","2"
"100","90","26","1011.57247485","1","1","2","106","3","right","in","Female","Right-handed","1","3","no","right","d","866.136931665","873.304903053","29","green","1"
"100","90","26","997.052129855","1","1","2","107","3","left","out","Female","Right-handed","1","3","no","left","s","623.535256316","760.714513652","29","red","3"
"100","91","26","997.411819206","1","1","2","108","3","right","in","Female","Right-handed","1","3","no","right","s","1082.31781727","928.332152569","29","green","1"
"100","91","26","990.752114231","1","1","2","109","0","left","in","Female","Right-handed","1","3","no","left","d","706.025938756","969.131860847","29","green","1"
"100","92","26","986.364093819","1","1","2","110","1","right","in","Female","Right-handed","1","3","no","right","d","977.546129183","784.557078699","29","green","2"
"100","92","26","979.684432126","1","1","2","111","1","right","in","Female","Right-handed","1","3","no","right","d","648.135028545","977.250751033","29","red","0"
"100","92","26","977.130560266","1","1","2","112","2","right","out","Female","Right-handed","1","3","no","right","d","892.686969397","928.772814435","29","green","1"
"100","92","26","977.600776661","1","1","2","113","3","right","out","Female","Right-handed","1","3","no","right","s","907.307386025","1073.28585261","29","red","1"
"100","93","26","1001.09280736","1","1","2","114","1","right","out","Female","Right-handed","1","3","no","right","s","1644.88458604","1672.85474803","29","green","2"
"100","93","26","1007.25154961","1","1","2","115","3","left","out","Female","Right-handed","1","3","no","left","d","1203.30804285","1168.40210684","29","red","1"
"100","93","26","1002.32383077","1","1","2","116","2","right","in","Female","Right-handed","1","3","no","right","d","675.964717546","1033.01981343","29","red","3"
"100","93","26","1000.89125085","1","1","2","117","2","right","out","Female","Right-handed","1","3","no","right","s","992.460961816","920.501584811","29","green","0"
"100","93","26","994.987055813","1","1","2","118","0","left","out","Female","Right-handed","1","3","no","left","d","715.018134808","897.087494472","29","red","2"
"100","94","26","1003.12597223","1","1","2","119","1","left","in","Female","Right-handed","1","3","no","left","d","974.750459985","1568.66996768","29","red","2"
"100","91","26","1000.49790026","1","0","2","120","2","left","out","Female","Right-handed","1","3","no","left","d","845.026534322","977.26037247","29","green","3"
"100","88","26","996.781967486","1","0","2","121","3","right","out","Female","Right-handed","1","3","no","right","d","812.740836622","920.707804302","29","green","0"
"100","89","26","993.757125552","1","1","2","122","0","right","out","Female","Right-handed","1","3","no","right","d","953.318385895","816.407245969","29","red","3"
"100","89","26","990.338075898","1","1","2","123","0","left","out","Female","Right-handed","1","3","no","left","d","734.828675862","992.837801476","29","green","0"
"100","89","26","1009.26315877","1","1","2","124","2","right","in","Female","Right-handed","1","3","no","right","s","1272.36399055","2184.46862561","29","red","1"
"100","90","26","1003.20713802","1","1","2","125","0","right","out","Female","Right-handed","1","3","no","right","d","572.946055483","961.09860146","29","green","0"
"100","90","26","1001.73045084","1","1","2","126","0","right","in","Female","Right-handed","1","3","no","right","d","988.785572461","896.540355358","29","green","2"
"100","88","26","1003.10953807","1","0","2","127","1","left","out","Female","Right-handed","1","3","no","left","d","671.119682031","1448.18454688","29","green","1"
"100","86","26","1027.05972409","1","0","2","128","3","right","in","Female","Right-handed","1","3","no","right","None","1065.73943799","3000.19563591","29","green","2"
"100","86","26","1022.23101426","1","1","2","129","1","left","in","Female","Right-handed","1","3","no","left","s","644.052652359","985.140330278","29","red","3"
"100","86","26","1024.14170625","1","1","2","130","0","left","out","Female","Right-handed","1","3","no","left","d","1079.63439818","1136.7899098","29","red","1"
"100","86","26","1027.04586599","1","1","2","131","2","right","out","Female","Right-handed","1","3","no","right","s","1187.19213403","1128.27397494","29","red","2"
"100","87","26","1019.16930632","1","1","2","132","3","right","out","Female","Right-handed","1","3","no","right","s","680.793396616","632.901726311","29","green","0"
"100","87","26","1010.19605511","1","1","2","133","1","right","in","Female","Right-handed","1","3","no","right","s","648.397373092","528.509122889","29","red","1"
"100","87","26","1002.57111334","1","1","2","134","1","right","out","Female","Right-handed","1","3","no","right","d","535.999091735","737.148725304","29","red","3"
"100","88","26","999.711744922","1","1","2","135","1","left","in","Female","Right-handed","1","3","no","left","s","934.545035867","784.660348801","29","green","0"
"100","88","26","995.496296007","1","1","2","136","1","left","out","Female","Right-handed","1","3","no","left","s","697.257280783","872.190419806","29","green","0"
"100","88","26","993.12555957","1","1","2","137","0","left","in","Female","Right-handed","1","3","no","left","d","551.737840186","1192.69816234","29","green","3"
"100","88","26","989.431948539","1","1","2","138","2","left","in","Female","Right-handed","1","3","no","left","d","626.316814074","968.411535847","29","red","2"
"100","87","26","989.905567248","1","0","2","139","0","right","out","Female","Right-handed","1","3","no","right","d","876.941806655","1153.07291094","29","red","1"
"100","85","26","984.126221955","1","0","2","140","1","left","out","Female","Right-handed","1","3","no","left","d","631.5508764","712.532275915","29","green","1"
"100","85","26","979.472598809","1","1","2","141","3","right","in","Female","Right-handed","1","3","no","right","s","815.000271003","632.046380462","29","red","2"
"100","84","26","981.282890373","1","0","2","142","2","right","out","Female","Right-handed","1","3","no","right","s","1180.73294191","984.585494016","29","red","0"
"100","84","26","978.421610931","1","1","2","143","2","right","out","Female","Right-handed","1","3","no","right","s","710.260333666","920.39703185","29","green","0"
"100","83","26","980.904486717","1","0","2","144","3","right","out","Female","Right-handed","1","3","no","right","s","776.866021795","1472.95654285","29","green","1"
"100","83","26","976.454547631","1","1","2","145","2","right","in","Female","Right-handed","1","3","no","right","s","635.375398048","792.440885081","29","green","1"
"100","83","26","975.258337848","1","1","2","146","0","left","out","Female","Right-handed","1","3","no","left","d","558.874702258","1248.09679937","29","red","0"
"100","83","26","971.827836945","1","1","2","147","2","right","in","Female","Right-handed","1","3","no","right","s","692.638349063","832.496214767","29","red","2"
"100","84","26","969.428974928","1","1","2","148","1","left","out","Female","Right-handed","1","3","no","left","s","849.199672743","792.199386986","29","red","0"
"100","82","26","968.408854874","1","0","2","149","3","left","out","Female","Right-handed","1","3","no","left","d","751.657533248","1056.62504967","29","green","0"
"100","100","26","928.549115998","1","1","3","150","2","left","out","Female","Right-handed","1","3","no","left","d","1088.47906551","768.619166482","29","red","1"
"100","100","26","854.113822254","1","1","3","151","2","right","in","Female","Right-handed","1","3","no","right","d","662.081303075","897.275753943","29","green","2"
"100","100","26","892.154102084","1","1","3","152","2","left","in","Female","Right-handed","1","3","no","left","d","1111.72862926","824.740694225","29","red","3"
"100","100","26","943.44975701","1","1","3","153","0","right","in","Female","Right-handed","1","3","no","right","d","1345.30860282","849.364840764","29","red","2"
"100","100","26","899.224640374","1","1","3","154","1","right","in","Female","Right-handed","1","3","no","right","d","595.782218106","848.866129556","29","red","1"
"100","100","26","857.281066047","1","1","3","155","0","right","out","Female","Right-handed","1","3","no","right","d","526.550839519","768.575549297","29","green","0"
"100","100","26","852.8087429","1","1","3","156","0","left","in","Female","Right-handed","1","3","no","left","s","1098.9632259","552.986382138","29","green","2"
"100","100","26","830.051026495","1","1","3","157","2","left","out","Female","Right-handed","1","3","no","left","s","540.773249324","800.720773999","29","green","2"
"100","100","26","849.681350442","1","1","3","158","3","right","out","Female","Right-handed","1","3","no","right","s","1109.22320678","904.224677257","29","red","0"
"100","100","26","854.098524168","1","1","3","159","3","left","out","Female","Right-handed","1","3","no","left","s","994.747977653","792.958197737","29","green","1"
"100","100","26","842.075945393","1","1","3","160","1","right","in","Female","Right-handed","1","3","no","right","s","763.357201984","680.34311331","29","green","0"
"100","100","26","828.736985268","1","1","3","161","1","left","out","Female","Right-handed","1","3","no","left","s","586.940757919","777.07608986","29","green","1"
"100","100","26","834.481573848","1","1","3","162","2","left","out","Female","Right-handed","1","3","no","left","d","574.340522578","1232.49275105","29","red","2"
"100","100","26","836.323004322","1","1","3","163","1","right","out","Female","Right-handed","1","3","no","right","s","1151.30545276","569.217748218","29","green","2"
"100","100","26","865.716838297","1","1","3","164","0","right","out","Female","Right-handed","1","3","no","right","s","1777.71431192","776.746715963","29","green","1"
"100","100","26","895.594988931","1","1","3","165","0","right","out","Female","Right-handed","1","3","no","right","d","1879.25255537","808.281941492","29","green","3"
"100","94","26","901.225618403","1","0","3","166","3","right","out","Female","Right-handed","1","3","no","right","d","1005.76003428","976.871345658","29","red","1"
"100","94","26","902.731118257","1","1","3","167","3","right","in","Female","Right-handed","1","3","no","right","d","968.274911427","888.374320124","29","green","2"
"100","94","26","901.741831395","1","1","3","168","3","left","in","Female","Right-handed","1","3","no","left","s","766.931566239","1000.9377695","29","green","3"
"100","95","26","893.50827139","1","1","3","169","1","left","out","Female","Right-handed","1","3","no","left","s","641.470579087","832.67068351","29","red","0"
"100","95","26","898.154993029","1","1","3","170","0","right","in","Female","Right-handed","1","3","no","right","s","1381.05096251","601.127889117","29","green","2"
"100","95","26","900.129457907","1","1","3","171","3","left","out","Female","Right-handed","1","3","no","left","d","850.574576249","1032.61186445","29","green","0"
"100","95","26","898.373427562","1","1","3","172","0","right","out","Female","Right-handed","1","3","no","right","s","855.197035827","864.284484116","29","green","3"
"100","95","26","900.119062624","1","1","3","173","1","left","in","Female","Right-handed","1","3","no","left","d","895.715156683","984.822181392","29","green","1"
"100","96","26","903.607205431","1","1","3","174","3","left","in","Female","Right-handed","1","3","no","left","d","998.280649011","976.364616585","29","red","1"
"100","96","26","903.310282917","1","1","3","175","2","left","in","Female","Right-handed","1","3","no","left","s","814.868457302","976.905982834","29","red","1"
"100","96","26","901.89640208","1","1","3","176","3","right","in","Female","Right-handed","1","3","no","right","s","1137.62472992","592.646270714","29","red","2"
"100","96","26","905.706636442","1","1","3","177","1","left","in","Female","Right-handed","1","3","no","left","d","1080.99454881","936.171379623","29","red","3"
"100","96","26","900.188395499","1","1","3","178","0","right","out","Female","Right-handed","1","3","no","right","s","642.678390282","848.676907939","29","red","1"
"100","96","26","930.070345541","1","1","3","179","0","right","in","Female","Right-handed","1","3","no","right","s","2513.17383341","1080.11996009","29","green","0"
"100","96","26","935.576821302","1","1","3","180","1","right","in","Female","Right-handed","1","3","no","right","d","1120.78913753","1080.75305072","29","red","3"
"100","96","26","933.239461839","1","1","3","181","3","left","out","Female","Right-handed","1","3","no","left","d","689.164368479","1032.39826853","29","green","3"
"100","96","26","932.561328577","1","1","3","182","2","left","out","Female","Right-handed","1","3","no","left","s","1092.89466418","728.827464201","29","green","1"
"100","97","26","931.939574011","1","1","3","183","3","left","in","Female","Right-handed","1","3","no","left","s","750.380126983","1072.46321965","29","red","2"
"100","97","26","931.014169675","1","1","3","184","3","right","out","Female","Right-handed","1","3","no","right","s","975.065081011","824.035763528","29","green","0"
"100","97","26","925.560719595","1","1","3","185","2","right","out","Female","Right-handed","1","3","no","right","d","748.57482448","720.805109113","29","red","0"
"100","97","26","923.497969344","1","1","3","186","1","left","out","Female","Right-handed","1","3","no","left","d","738.272188561","960.205732004","29","green","2"
"100","97","26","927.727757459","1","1","3","187","3","right","out","Female","Right-handed","1","3","no","right","s","823.764438972","1344.69539649","29","green","0"
"100","97","26","932.13993538","1","1","3","188","0","left","out","Female","Right-handed","1","3","no","left","d","1263.32464945","936.280743301","29","red","1"
"100","97","26","931.826049531","1","1","3","189","0","right","in","Female","Right-handed","1","3","no","right","d","855.107235739","984.061767067","29","red","0"
"100","97","26","930.901174322","1","1","3","190","0","right","in","Female","Right-handed","1","3","no","right","s","899.328968837","888.483363091","29","green","1"
"100","97","26","936.439745202","1","1","3","191","1","right","out","Female","Right-handed","1","3","no","right","d","895.012150273","1432.03015231","29","red","0"
"100","97","26","936.836802756","1","1","3","192","1","right","in","Female","Right-handed","1","3","no","right","s","930.598001243","976.428438789","29","green","2"
"100","97","26","946.71886292","1","1","3","193","3","left","out","Female","Right-handed","1","3","no","left","d","2047.10720238","696.18769758","29","red","1"
"100","97","26","950.863835876","1","1","3","194","3","left","in","Female","Right-handed","1","3","no","left","d","713.779855723","1552.70543614","29","red","2"
"100","97","26","955.7081315","1","1","3","195","2","right","out","Female","Right-handed","1","3","no","right","d","1267.14019109","1080.26267809","29","red","0"
"100","97","26","956.262805256","1","1","3","196","1","left","in","Female","Right-handed","1","3","no","left","d","739.748758593","1223.80683744","29","green","0"
"100","97","26","958.076875237","1","1","3","197","2","right","in","Female","Right-handed","1","3","no","right","s","958.434104534","1128.24222419","29","green","1"
"100","97","26","964.391054306","1","1","3","198","0","right","out","Female","Right-handed","1","3","no","right","s","926.954362632","1607.98893663","29","red","2"
"100","98","26","961.803997194","1","1","3","199","0","left","out","Female","Right-handed","1","3","no","left","d","749.63446553","920.441931894","29","red","1"
"100","98","26","957.731003796","1","1","3","200","0","left","in","Female","Right-handed","1","3","no","left","d","740.163442577","767.999225154","29","green","0"
"100","98","26","960.230041554","1","1","3","201","3","right","out","Female","Right-handed","1","3","no","right","s","967.621936494","1207.73999795","29","red","1"
"100","98","26","961.736185117","1","1","3","202","1","left","out","Female","Right-handed","1","3","no","left","d","1320.01993562","760.091365175","29","red","1"
"100","98","26","955.264229694","1","1","3","203","1","left","out","Female","Right-handed","1","3","no","left","d","528.6653109","695.835873659","29","green","1"
"100","98","26","954.575021516","1","1","3","204","1","left","in","Female","Right-handed","1","3","no","left","s","882.344244152","952.37131567","29","red","2"
"100","98","26","955.92100781","1","1","3","205","2","right","in","Female","Right-handed","1","3","no","right","d","923.938362503","1135.96214541","29","red","0"
"100","98","26","956.534638536","1","1","3","206","2","left","in","Female","Right-handed","1","3","no","left","d","1309.32699003","672.468928367","29","green","0"
"100","98","26","950.536048471","1","1","3","207","1","left","out","Female","Right-handed","1","3","no","left","d","504.973481713","712.259347787","29","red","1"
"100","98","26","953.478292022","1","1","3","208","0","left","in","Female","Right-handed","1","3","no","left","d","792.568208781","1455.68862717","29","green","1"
"100","98","26","957.214194379","1","1","3","209","2","right","in","Female","Right-handed","1","3","no","right","s","1371.1043198","984.160547165","29","red","3"
"100","98","26","957.608724472","1","1","3","210","2","right","out","Female","Right-handed","1","3","no","right","s","1018.79964863","943.761411427","29","green","1"
"100","98","26","954.500640793","1","1","3","211","2","left","in","Female","Right-handed","1","3","no","left","s","777.356394425","752.458678328","29","red","1"
"100","98","26","954.444307963","1","1","3","212","2","right","in","Female","Right-handed","1","3","no","right","s","877.87636901","1024.02697595","29","red","2"
"100","98","26","955.656675979","1","1","3","213","3","left","in","Female","Right-handed","1","3","no","left","s","1184.4375163","879.63420575","29","green","1"
"100","100","26","1498.38856947","1","1","4","214","3","left","out","Female","Right-handed","1","3","no","left","d","1691.98858128","1304.78855767","29","red","1"
"100","100","26","1120.68017474","1","1","4","215","2","right","out","Female","Right-handed","1","3","no","right","s","621.448045676","864.495514325","29","green","2"
"100","100","26","981.142515841","1","1","4","216","1","left","out","Female","Right-handed","1","3","no","left","s","739.962354521","664.172041575","29","green","2"
"100","100","26","955.420148959","1","1","4","217","0","left","in","Female","Right-handed","1","3","no","left","d","803.713361964","952.792734659","29","green","1"
"100","100","26","938.59745731","1","1","4","218","0","right","out","Female","Right-handed","1","3","no","right","d","910.285541833","832.327839598","29","red","0"
"100","83","26","1032.65393152","1","0","4","219","2","right","in","Female","Right-handed","1","3","no","right","d","1772.85997568","1233.01262942","29","green","0"
"100","85","26","1001.61243848","1","1","4","220","2","right","out","Female","Right-handed","1","3","no","right","s","1006.30332482","624.423635767","29","green","2"
"100","87","26","973.775347278","1","1","4","221","1","right","in","Female","Right-handed","1","3","no","right","s","645.907665625","911.923752026","29","red","1"
"100","88","26","985.357097715","1","1","4","222","1","right","in","Female","Right-handed","1","3","no","right","s","1395.50909755","760.51310488","29","green","3"
"100","90","26","965.487356308","1","1","4","223","0","left","out","Female","Right-handed","1","3","no","left","d","661.089653522","912.22971376","29","green","1"
"100","90","26","941.599547174","1","1","4","224","1","right","out","Female","Right-handed","1","3","no","right","s","644.653030096","760.789881582","29","red","0"
"100","91","26","959.655479286","1","1","4","225","3","right","in","Female","Right-handed","1","3","no","right","d","980.250074006","1336.29139103","29","red","0"
"100","92","26","945.093055465","1","1","4","226","3","left","in","Female","Right-handed","1","3","no","left","s","907.831112972","632.856826265","29","green","1"
"100","92","26","958.081272654","1","1","4","227","0","right","in","Female","Right-handed","1","3","no","right","d","1325.38420808","928.471984136","29","green","3"
"100","93","26","959.639446228","1","1","4","228","3","left","out","Female","Right-handed","1","3","no","left","d","922.855309285","1040.05244325","29","red","2"
"100","93","26","962.042985699","1","1","4","229","2","right","out","Female","Right-handed","1","3","no","right","s","1227.56080188","768.631353636","29","red","0"
"100","94","26","962.453799882","1","1","4","230","2","left","in","Female","Right-handed","1","3","no","left","d","985.928967488","952.124686141","29","red","0"
"100","88","26","955.914552792","1","0","4","231","0","right","out","Female","Right-handed","1","3","no","right","d","832.768180749","856.726523772","29","red","2"
"100","84","26","954.565121716","1","0","4","232","3","left","out","Female","Right-handed","1","3","no","left","d","964.293239624","896.257485077","29","red","1"
"100","85","26","939.856703112","1","1","4","233","1","left","out","Female","Right-handed","1","3","no","left","s","927.845949231","392.947550012","29","red","1"
"100","85","26","928.480406712","1","1","4","234","0","right","in","Female","Right-handed","1","3","no","right","s","609.388855872","792.52010159","29","red","1"
"100","86","26","932.800064154","1","1","4","235","3","left","out","Female","Right-handed","1","3","no","left","s","1086.92327897","960.102461902","29","red","1"
"100","86","26","933.834464775","1","1","4","236","1","left","in","Female","Right-handed","1","3","no","left","s","688.504337826","1224.67821902","29","red","1"
"100","87","26","932.703586156","1","1","4","237","1","left","out","Female","Right-handed","1","3","no","left","s","901.15672136","912.230034473","29","green","2"
"100","84","26","929.489791173","1","0","4","238","0","left","out","Female","Right-handed","1","3","no","left","s","696.906419007","1007.81100417","29","green","2"
"100","84","26","922.119306277","1","1","4","239","1","left","out","Female","Right-handed","1","3","no","left","s","755.250178237","720.464189489","29","red","2"
"100","85","26","917.877016854","1","1","4","240","2","right","in","Female","Right-handed","1","3","no","right","s","935.052085655","680.102898074","29","green","1"
"100","82","26","923.437022579","1","0","4","241","1","right","out","Female","Right-handed","1","3","no","right","d","1026.47755623","1120.63679809","29","green","3"
"100","79","26","922.874856288","1","0","4","242","0","left","in","Female","Right-handed","1","3","no","left","s","982.153194462","832.115205816","29","red","0"
"100","80","26","916.383288588","1","1","4","243","1","right","in","Female","Right-handed","1","3","no","right","d","624.545186603","831.710463988","29","red","1"
"100","77","26","916.234083878","1","0","4","244","1","left","out","Female","Right-handed","1","3","no","left","d","695.212404471","1128.30348068","29","green","1"
"100","78","26","913.876563203","1","1","4","245","3","right","in","Female","Right-handed","1","3","no","right","d","721.757952198","959.828892344","29","red","2"
"100","78","26","909.405121935","1","1","4","246","2","left","in","Female","Right-handed","1","3","no","left","d","876.267985275","656.370017419","29","green","0"
"100","79","26","906.289018115","1","1","4","247","3","left","in","Female","Right-handed","1","3","no","left","d","711.027803711","895.887380426","29","green","2"
"100","80","26","910.965461374","1","1","4","248","3","right","in","Female","Right-handed","1","3","no","right","s","1659.49217408","480.436890262","29","red","0"
"100","80","26","906.664486876","1","1","4","249","3","right","out","Female","Right-handed","1","3","no","right","s","704.133401881","808.127357053","29","green","0"
"100","81","26","905.327372075","1","1","4","250","2","right","out","Female","Right-handed","1","3","no","right","s","898.732439673","815.65003879","29","red","1"
"100","81","26","911.261316014","1","1","4","251","0","left","in","Female","Right-handed","1","3","no","left","d","1237.32207155","1024.31241194","29","red","2"
"100","82","26","909.160092613","1","1","4","252","2","left","out","Female","Right-handed","1","3","no","left","s","834.897405002","823.729801796","29","red","2"
"100","82","26","920.854659518","1","1","4","253","3","right","in","Female","Right-handed","1","3","no","right","d","1074.45453662","1679.43100098","29","green","1"
"100","82","26","922.148954928","1","1","4","254","2","left","in","Female","Right-handed","1","3","no","left","s","763.948599712","1183.8929429","29","red","3"
"100","83","26","915.967184299","1","1","4","255","3","left","out","Female","Right-handed","1","3","no","left","s","653.509884585","671.519292428","29","green","3"
"100","83","26","916.959840214","1","1","4","256","1","right","out","Female","Right-handed","1","3","no","right","d","693.157265292","1224.14551206","29","red","0"
"100","84","26","916.000016415","1","1","4","257","2","right","in","Female","Right-handed","1","3","no","right","s","917.723234203","831.731951867","29","green","1"
"100","82","26","912.942687267","1","0","4","258","0","right","out","Female","Right-handed","1","3","no","right","s","700.359232427","856.481177099","29","green","1"
"100","82","26","912.365306316","1","1","4","259","0","right","out","Female","Right-handed","1","3","no","right","d","796.900421643","975.865905375","29","green","1"
"100","82","26","915.229122027","1","1","4","260","0","left","out","Female","Right-handed","1","3","no","left","d","1278.48258375","815.446705732","29","green","0"
"100","83","26","915.163781331","1","1","4","261","3","left","in","Female","Right-handed","1","3","no","left","d","760.025939397","1064.15959785","29","red","0"
"100","83","26","912.091865386","1","1","4","262","1","right","out","Female","Right-handed","1","3","no","right","d","649.569584968","879.710215113","29","green","0"
"100","84","26","909.823276632","1","1","4","263","1","left","in","Female","Right-handed","1","3","no","left","s","860.992990141","736.331865208","29","green","2"
"100","84","26","913.332428038","1","1","4","264","3","right","in","Female","Right-handed","1","3","no","right","d","1105.73286975","1071.84712689","29","green","1"
"100","84","26","909.766107527","1","1","4","265","1","right","in","Female","Right-handed","1","3","no","right","s","623.379068305","832.388454659","29","red","1"
"100","84","26","917.259544423","1","1","4","266","2","right","out","Female","Right-handed","1","3","no","right","d","901.926436407","1711.91008958","29","red","1"
"100","85","26","916.395116424","1","1","4","267","0","right","in","Female","Right-handed","1","3","no","right","d","725.52089664","1015.63996835","29","green","3"
"100","85","26","919.434471111","1","1","4","268","3","right","in","Female","Right-handed","1","3","no","right","d","1158.9952268","1008.12402162","29","red","2"
"100","85","26","918.705173548","1","1","4","269","3","left","out","Female","Right-handed","1","3","no","left","s","637.668507463","1119.51910769","29","green","3"
"100","85","26","929.985132515","1","1","4","270","1","left","out","Female","Right-handed","1","3","no","left","d","859.158502608","2264.16716672","29","red","0"
"100","86","26","933.014287183","1","1","4","271","2","left","in","Female","Right-handed","1","3","no","left","d","1179.71306947","1031.63913706","29","green","1"
"100","86","26","934.948500274","1","1","4","272","0","left","in","Female","Right-handed","1","3","no","left","s","1110.14590269","984.11981641","29","green","1"
"100","85","26","935.60365063","1","0","4","273","0","left","in","Female","Right-handed","1","3","no","left","s","1100.80829702","847.706746262","29","red","2"
"100","85","26","937.696524774","1","1","4","274","2","left","in","Female","Right-handed","1","3","no","left","d","1127.2848911","999.253055688","29","green","1"
"100","85","26","934.561632848","1","1","4","275","2","right","out","Female","Right-handed","1","3","no","right","s","710.897593583","775.768857136","29","red","3"
"100","84","26","934.090748722","1","0","4","276","0","right","out","Female","Right-handed","1","3","no","right","s","754.390983813","1055.40088203","29","green","0"
"100","84","26","935.95700947","1","1","4","277","2","left","in","Female","Right-handed","1","3","no","left","d","763.0127545","1344.05011871","29","red","2"
"100","100","26","826.544553512","1","1","5","278","0","right","in","Female","Right-handed","1","3","no","right","s","1036.53356262","616.555544402","29","red","1"
"100","50","26","801.350577302","1","0","5","279","0","left","in","Female","Right-handed","1","3","no","left","d","648.169986436","904.143215748","29","red","1"
"100","66","26","723.169737883","1","1","5","280","3","left","in","Female","Right-handed","1","3","no","left","d","581.808682835","551.807435255","29","red","2"
"100","75","26","762.489869428","1","1","5","281","0","right","in","Female","Right-handed","1","3","no","right","s","872.470403656","888.430124467","29","green","3"
"100","60","26","987.301722206","1","0","5","282","3","left","out","Female","Right-handed","1","3","no","left","None","773.008466545","3000.08980009","29","red","0"
"100","66","26","936.160261515","1","1","5","283","2","right","in","Female","Right-handed","1","3","no","right","d","736.545781849","624.360134278","29","red","2"
"100","71","26","893.919727609","1","1","5","284","0","left","out","Female","Right-handed","1","3","no","left","s","480.968314359","799.984733985","29","red","1"
"100","75","26","856.201213296","1","1","5","285","0","left","out","Female","Right-handed","1","3","no","left","s","663.656332493","520.686893709","29","green","1"
"100","77","26","856.204632024","1","1","5","286","0","right","out","Female","Right-handed","1","3","no","right","s","1008.23819602","704.225767686","29","green","1"
"100","80","26","843.322625742","1","1","5","287","0","right","out","Female","Right-handed","1","3","no","right","s","710.804907061","743.964231342","29","red","1"
"100","81","26","829.606080539","1","1","5","288","1","right","in","Female","Right-handed","1","3","no","right","d","616.392621383","768.488635638","29","green","1"
"100","75","26","826.1423774","1","0","5","289","2","left","out","Female","Right-handed","1","3","no","left","s","903.992800598","672.090485136","29","green","0"
"100","69","26","829.759162329","1","0","5","290","3","left","in","Female","Right-handed","1","3","no","left","d","882.624548715","863.69661425","29","red","0"
"100","71","26","829.505894712","1","1","5","291","3","right","out","Female","Right-handed","1","3","no","right","s","708.190441615","944.236389754","29","red","0"
"100","66","26","831.618365444","1","0","5","292","3","left","in","Female","Right-handed","1","3","no","left","d","866.653602893","855.732308499","29","green","1"
"100","68","26","821.633170165","1","1","5","293","2","right","out","Female","Right-handed","1","3","no","right","d","679.263908671","664.446573277","29","green","3"
"100","70","26","815.506132261","1","1","5","294","2","right","in","Female","Right-handed","1","3","no","right","d","698.959633897","735.987417724","29","red","1"
"100","72","26","833.456977722","1","1","5","295","3","left","out","Female","Right-handed","1","3","no","left","d","997.659104109","1279.58359699","29","green","1"
"100","73","26","822.941029548","1","1","5","296","0","right","out","Female","Right-handed","1","3","no","right","s","627.089736267","640.218188559","29","green","3"
"100","75","26","821.955496359","1","1","5","297","2","left","out","Female","Right-handed","1","3","no","left","s","870.668308298","735.792423245","29","red","0"
"100","76","26","820.707242287","1","1","5","298","1","left","in","Female","Right-handed","1","3","no","left","d","847.138119271","744.346202435","29","green","0"
"100","77","26","827.693703092","1","1","5","299","2","right","in","Female","Right-handed","1","3","no","right","d","1060.96816683","887.850593179","29","red","1"
"100","78","26","823.618848487","1","1","5","300","2","left","out","Female","Right-handed","1","3","no","left","d","588.520277342","879.423816972","29","red","1"
"100","79","26","831.490868026","1","1","5","301","1","left","out","Female","Right-handed","1","3","no","left","s","1160.89514012","864.199494745","29","red","2"
"100","80","26","825.256852308","1","1","5","302","2","right","out","Female","Right-handed","1","3","no","right","d","623.537501318","727.743448844","29","green","3"
"100","80","26","824.276317982","1","1","5","303","2","right","out","Female","Right-handed","1","3","no","right","s","751.194742075","848.331177598","29","red","2"
"100","81","26","823.460187719","1","1","5","304","1","left","out","Female","Right-handed","1","3","no","left","d","580.727233191","1023.75436853","29","green","1"
"100","82","26","817.729191475","1","1","5","305","1","left","out","Female","Right-handed","1","3","no","left","s","557.552075232","768.432510584","29","green","2"
"100","82","26","810.861095154","1","1","5","306","3","left","out","Female","Right-handed","1","3","no","left","s","597.04615436","640.062641976","29","green","3"
"100","83","26","820.772957473","1","1","5","307","3","left","in","Female","Right-handed","1","3","no","left","d","1112.67217163","1103.7617578","29","green","1"
"100","83","26","821.639663342","1","1","5","308","3","left","out","Female","Right-handed","1","3","no","left","d","751.145031312","944.136647511","29","red","2"
"100","84","26","816.318357912","1","1","5","309","1","left","out","Female","Right-handed","1","3","no","left","d","534.758246935","767.957532255","29","green","1"
"100","84","26","818.273280156","1","1","5","310","1","right","out","Female","Right-handed","1","3","no","right","d","594.244070869","1167.41751301","29","red","0"
"100","85","26","810.236744163","1","1","5","311","1","right","out","Female","Right-handed","1","3","no","right","s","578.001479778","512.06063302","29","red","1"
"100","82","26","814.744111668","1","0","5","312","0","left","in","Female","Right-handed","1","3","no","left","s","664.390768936","1271.59844479","29","green","0"
"100","80","26","824.421676737","1","0","5","313","2","left","in","Female","Right-handed","1","3","no","left","d","942.032759713","1384.24014853","29","red","1"
"100","78","26","853.087301488","1","0","5","314","1","right","in","Female","Right-handed","1","3","no","right","s","1914.55329106","1855.54629403","29","red","2"
"100","78","26","852.22300711","1","1","5","315","2","left","in","Female","Right-handed","1","3","no","left","d","832.167803012","808.320427243","29","red","0"
"100","76","26","854.747587204","1","0","5","316","0","right","in","Female","Right-handed","1","3","no","right","s","1069.5719775","831.791284068","29","red","2"
"100","77","26","852.300213243","1","1","5","317","0","left","in","Female","Right-handed","1","3","no","left","s","826.316685785","687.388571721","29","green","2"
"100","75","26","853.948759835","1","0","5","318","3","right","in","Female","Right-handed","1","3","no","right","d","943.820422914","895.96082407","29","red","1"
"100","73","26","866.459146755","1","0","5","319","2","left","in","Female","Right-handed","1","3","no","left","d","823.38535431","1935.3846667","29","red","0"
"100","74","26","867.342650759","1","1","5","320","1","right","out","Female","Right-handed","1","3","no","right","s","729.038815125","1079.86082269","29","red","0"
"100","75","26","864.31194166","1","1","5","321","3","right","out","Female","Right-handed","1","3","no","right","d","684.429017358","783.55388342","29","red","0"
"100","73","26","868.915717022","1","0","5","322","3","right","in","Female","Right-handed","1","3","no","right","d","1223.02878381","919.934882108","29","green","2"
"100","73","26","866.856514141","1","1","5","323","0","left","out","Female","Right-handed","1","3","no","left","d","740.583257991","807.801511015","29","red","2"
"100","74","26","865.544377317","1","1","5","324","1","right","in","Female","Right-handed","1","3","no","right","s","731.097482165","879.274684681","29","red","2"
"100","75","26","865.998403002","1","1","5","325","0","right","out","Female","Right-handed","1","3","no","right","s","1046.8243321","727.850888235","29","red","0"
"100","75","26","869.557725988","1","1","5","326","3","right","out","Female","Right-handed","1","3","no","right","s","1209.44331321","871.367145419","29","green","1"
"100","76","26","868.146911021","1","1","5","327","2","right","in","Female","Right-handed","1","3","no","right","s","862.057762624","735.976192715","29","green","1"
"100","76","26","867.879732552","1","1","5","328","1","left","out","Female","Right-handed","1","3","no","left","d","653.479095983","1055.56252219","29","red","1"
"100","76","26","868.086087003","1","1","5","329","3","right","in","Female","Right-handed","1","3","no","right","s","878.181689314","879.038638732","29","green","1"
"100","77","26","868.711189789","1","1","5","330","3","right","out","Female","Right-handed","1","3","no","right","d","722.636068782","1079.79700048","29","green","2"
"100","77","26","864.5931155","1","1","5","331","1","left","in","Female","Right-handed","1","3","no","left","s","621.261069064","671.409287319","29","green","3"
"100","78","26","861.799427011","1","1","5","332","0","left","out","Female","Right-handed","1","3","no","left","d","597.888992337","823.991504911","29","green","0"
"100","78","26","863.080315321","1","1","5","333","2","right","out","Female","Right-handed","1","3","no","right","d","1051.53081891","815.527525812","29","green","2"
"100","78","26","863.22779983","1","1","5","334","1","right","out","Female","Right-handed","1","3","no","right","d","743.861602669","999.112261978","29","green","0"
"100","79","26","863.639715054","1","1","5","335","0","right","in","Female","Right-handed","1","3","no","right","d","846.668272377","927.569493242","29","green","2"
"100","79","26","861.142010997","1","1","5","336","0","left","in","Female","Right-handed","1","3","no","left","s","705.239225834","727.311125558","29","red","0"
"100","80","26","861.820618229","1","1","5","337","3","left","in","Female","Right-handed","1","3","no","left","d","763.872590351","1039.84429947","29","green","3"
"100","78","26","876.247354387","1","0","5","338","2","right","in","Female","Right-handed","1","3","no","right","s","1308.40301125","2175.30003653","29","green","2"
"100","79","26","874.058215101","1","1","5","339","2","left","in","Female","Right-handed","1","3","no","left","s","657.960761851","823.080675438","29","green","1"
"100","77","26","876.873115188","1","0","5","340","1","left","in","Female","Right-handed","1","3","no","left","s","1295.42753983","807.366301299","29","red","1"
"100","78","26","872.791737137","1","1","5","341","1","right","in","Female","Right-handed","1","3","no","right","s","688.194527518","543.135312378","29","green","3"
"100","100","26","869.0124588","1","1","6","342","0","right","in","Female","Right-handed","1","3","no","right","d","1201.91710361","536.107813987","29","green","1"
"100","100","26","770.352869449","1","1","6","343","3","left","in","Female","Right-handed","1","3","no","left","d","751.638611088","591.747949109","29","red","0"
"100","100","26","660.310530846","1","1","6","344","2","left","out","Female","Right-handed","1","3","no","left","s","448.0883325","432.363374777","29","green","2"
"100","100","26","658.809893853","1","1","6","345","2","left","out","Female","Right-handed","1","3","no","left","d","628.738850757","679.877114994","29","green","1"
"100","100","26","704.36662554","1","1","6","346","0","right","in","Female","Right-handed","1","3","no","right","d","565.633121096","1207.55398348","29","red","0"
"100","100","26","741.472011611","1","1","6","347","1","left","out","Female","Right-handed","1","3","no","left","s","701.926243979","1152.07163994","29","red","0"
"100","100","26","777.148800442","1","1","6","348","3","right","out","Female","Right-handed","1","3","no","right","s","766.767039645","1215.65202722","29","green","2"
"100","100","26","777.221834603","1","1","6","349","0","left","out","Female","Right-handed","1","3","no","left","s","659.205775941","896.26037151","29","green","0"
"100","100","26","768.391049311","1","1","6","350","2","left","in","Female","Right-handed","1","3","no","left","d","579.694532169","815.795001792","29","green","3"
"100","100","26","772.697726166","1","1","6","351","0","left","out","Female","Right-handed","1","3","no","left","s","1015.38884882","607.526786886","29","green","2"
"100","100","26","768.226684697","1","1","6","352","1","right","out","Female","Right-handed","1","3","no","right","s","807.036285971","639.996254053","29","red","1"
"100","100","26","768.051421455","1","1","6","353","0","left","in","Female","Right-handed","1","3","no","left","d","620.624771289","911.6222803","29","green","1"
"100","92","26","766.335715511","1","0","6","354","0","right","out","Female","Right-handed","1","3","no","right","s","644.163940324","847.330548035","29","red","3"
"100","92","26","756.516050231","1","1","6","355","1","right","out","Female","Right-handed","1","3","no","right","s","633.813197213","623.90760597","29","red","3"
"100","93","26","753.308283385","1","1","6","356","2","right","in","Female","Right-handed","1","3","no","right","d","769.387277958","647.411817116","29","red","0"
"100","93","26","765.789531603","1","1","6","357","3","right","in","Female","Right-handed","1","3","no","right","d","978.048047538","927.968462209","29","green","1"
"100","94","26","767.59894503","1","1","6","358","3","right","in","Female","Right-handed","1","3","no","right","d","713.570108372","879.529011361","29","red","1"
"100","94","26","771.71508691","1","1","6","359","2","right","out","Female","Right-handed","1","3","no","right","d","723.158833585","960.220164161","29","red","0"
"100","94","26","777.662288637","1","1","6","360","0","right","out","Female","Right-handed","1","3","no","right","s","769.70510613","999.718733294","29","red","1"
"100","95","26","775.022065165","1","1","6","361","2","left","out","Female","Right-handed","1","3","no","left","s","658.378011551","791.337626846","29","red","3"
"100","95","26","792.635268676","1","1","6","362","0","right","in","Female","Right-handed","1","3","no","right","d","793.902702246","1495.89597558","29","red","1"
"100","90","26","787.239236796","1","0","6","363","3","right","out","Female","Right-handed","1","3","no","right","d","644.484013499","703.361121116","29","red","0"
"100","91","26","788.338833751","1","1","6","364","1","left","in","Female","Right-handed","1","3","no","left","s","632.99986498","992.060068562","29","green","0"
"100","87","26","795.033715657","1","0","6","365","1","right","out","Female","Right-handed","1","3","no","right","s","1362.50724414","535.524754838","29","green","2"
"100","84","26","806.279630421","1","0","6","366","2","left","in","Female","Right-handed","1","3","no","left","s","784.106153967","1368.25701555","29","green","0"
"100","84","26","809.661205481","1","1","6","367","0","right","in","Female","Right-handed","1","3","no","right","s","1156.68832666","631.712837276","29","green","2"
"100","85","26","803.521414274","1","1","6","368","3","right","in","Female","Right-handed","1","3","no","right","s","616.277164127","671.496521689","29","green","2"
"100","82","26","802.091588394","1","0","6","369","0","left","out","Female","Right-handed","1","3","no","left","s","743.036724709","783.935854514","29","red","3"
"100","79","26","799.574368591","1","0","6","370","1","right","in","Female","Right-handed","1","3","no","right","d","762.610257672","695.574170544","29","red","2"
"100","80","26","800.208929528","1","1","6","371","2","right","out","Female","Right-handed","1","3","no","right","d","894.00735142","743.215042028","29","green","1"
"100","80","26","799.725813843","1","1","6","372","1","left","in","Female","Right-handed","1","3","no","left","d","658.653505394","911.8111812","29","green","2"
"100","81","26","801.914553932","1","1","6","373","2","left","out","Female","Right-handed","1","3","no","left","d","1068.17654826","671.354445121","29","green","0"
"100","81","26","804.575748955","1","1","6","374","3","left","in","Female","Right-handed","1","3","no","left","d","939.760817462","839.707161911","29","red","1"
"100","79","26","812.893897667","1","0","6","375","1","left","in","Female","Right-handed","1","3","no","left","d","791.330571124","1383.45503918","29","green","0"
"100","80","26","811.795095073","1","1","6","376","3","right","in","Female","Right-handed","1","3","no","right","s","972.871713839","575.999899936","29","green","2"
"100","80","26","811.138248021","1","1","6","377","0","right","out","Female","Right-handed","1","3","no","right","d","848.6387429","727.658459475","29","red","2"
"100","81","26","811.354014669","1","1","6","378","1","right","out","Female","Right-handed","1","3","no","right","s","726.94422805","911.29899998","29","green","2"
"100","81","26","809.113064946","1","1","6","379","2","right","in","Female","Right-handed","1","3","no","right","s","740.660870926","711.734979412","29","red","1"
"100","82","26","808.554187072","1","1","6","380","0","left","in","Female","Right-handed","1","3","no","left","s","775.316970261","799.316685465","29","red","1"
"100","82","26","807.564915843","1","1","6","381","2","left","out","Female","Right-handed","1","3","no","left","s","666.960334338","871.006341489","29","green","1"
"100","82","26","812.920073063","1","1","6","382","1","left","in","Female","Right-handed","1","3","no","left","d","998.575385731","1055.67733802","29","red","1"
"100","83","26","817.886332086","1","1","6","383","3","right","in","Female","Right-handed","1","3","no","right","s","1259.90070034","783.105203691","29","green","3"
"100","83","26","818.309788394","1","1","6","384","0","left","out","Female","Right-handed","1","3","no","left","d","696.651771612","975.538135049","29","red","1"
"100","84","26","825.624908031","1","1","6","385","3","right","in","Female","Right-handed","1","3","no","right","d","1097.12392765","1183.22617724","29","red","2"
"100","84","26","823.717725108","1","1","6","386","2","right","in","Female","Right-handed","1","3","no","right","d","672.795415834","806.807937174","29","green","1"
"100","84","26","824.880654775","1","1","6","387","3","left","out","Female","Right-handed","1","3","no","left","s","859.081531104","895.343448457","29","red","0"
"100","85","26","824.158351566","1","1","6","388","0","left","out","Female","Right-handed","1","3","no","left","s","551.01078018","1030.85402771","29","red","0"
"100","85","26","826.490018667","1","1","6","389","1","left","in","Female","Right-handed","1","3","no","left","s","1184.52346781","687.633276962","29","red","3"
"100","85","26","825.737321401","1","1","6","390","2","right","out","Female","Right-handed","1","3","no","right","s","820.081352466","759.1343528","29","green","2"
"100","86","26","825.807185739","1","1","6","391","0","left","in","Female","Right-handed","1","3","no","left","d","643.653041961","1014.80803467","29","red","0"
"100","86","26","827.257467489","1","1","6","392","1","right","in","Female","Right-handed","1","3","no","right","d","824.358081704","975.185028274","29","red","1"
"100","86","26","833.028653432","1","1","6","393","2","right","out","Female","Right-handed","1","3","no","right","s","1295.94581462","958.772458442","29","green","2"
"100","86","26","832.074856289","1","1","6","394","2","right","out","Female","Right-handed","1","3","no","right","s","709.394404237","855.560405473","29","red","2"
"100","87","26","828.861965967","1","1","6","395","1","left","out","Female","Right-handed","1","3","no","left","s","622.076967014","695.080590769","29","red","1"
"100","87","26","827.823158084","1","1","6","396","3","left","in","Female","Right-handed","1","3","no","left","s","895.743379568","647.71168527","29","green","1"
"100","87","26","828.911372879","1","1","6","397","3","left","out","Female","Right-handed","1","3","no","left","d","626.215147542","1151.31122562","29","red","3"
"100","87","26","831.523293257","1","1","6","398","0","left","out","Female","Right-handed","1","3","no","left","s","916.779371122","1038.80229773","29","green","2"
"100","87","26","833.366407487","1","1","6","399","1","right","out","Female","Right-handed","1","3","no","right","d","869.382884168","1007.46495311","29","green","0"
"100","88","26","835.66330409","1","1","6","400","1","right","in","Female","Right-handed","1","3","no","right","d","1018.94044234","918.826171723","29","green","1"
"100","88","26","837.136693161","1","1","6","401","3","right","out","Female","Right-handed","1","3","no","right","d","937.495610218","910.637686467","29","green","1"
"100","88","26","834.04734043","1","1","6","402","1","left","out","Female","Right-handed","1","3","no","left","s","530.159840951","767.21251223","29","green","1"
"100","88","26","834.437727864","1","1","6","403","2","left","in","Female","Right-handed","1","3","no","left","d","845.667963529","870.834759176","29","red","1"
"100","88","26","836.030387882","1","1","6","404","3","left","in","Female","Right-handed","1","3","no","left","d","862.327804321","1007.22281359","29","red","0"
"100","87","26","846.925004418","1","0","6","405","3","left","in","Female","Right-handed","1","3","no","left","d","675.817830255","2390.75386212","29","green","1"
"100","0","26","894.384672151","1","0","7","406","1","right","in","Female","Right-handed","1","3","no","right","d","709.272211973","1079.49713233","29","red","0"
"100","50","26","807.881368951","1","1","7","407","2","left","out","Female","Right-handed","1","3","no","left","s","730.802745446","711.953386057","29","green","1"
"100","66","26","703.931512038","1","1","7","408","3","right","in","Female","Right-handed","1","3","no","right","s","520.56855002","471.495046402","29","green","3"
"100","75","26","680.217673812","1","1","7","409","1","left","out","Female","Right-handed","1","3","no","left","s","587.036651587","631.115666683","29","red","0"
"100","80","26","666.047901292","1","1","7","410","0","right","out","Female","Right-handed","1","3","no","right","d","634.788490322","583.949132096","29","red","1"
"100","83","26","677.685645381","1","1","7","411","1","right","in","Female","Right-handed","1","3","no","right","s","584.284278858","887.464452795","29","red","1"
"100","85","26","671.50864012","1","1","7","412","2","right","out","Female","Right-handed","1","3","no","right","s","549.919388385","718.973828725","29","red","3"
"100","87","26","680.902860518","1","1","7","413","2","right","out","Female","Right-handed","1","3","no","right","d","829.646024086","663.678782518","29","green","1"
"100","88","26","688.716116368","1","1","7","414","3","right","in","Female","Right-handed","1","3","no","right","d","719.165936773","783.278389576","29","green","0"
"100","90","26","697.073270779","1","1","7","415","1","left","out","Female","Right-handed","1","3","no","left","d","696.736119553","847.839201395","29","red","2"
"100","90","26","687.734768556","1","1","7","416","2","right","out","Female","Right-handed","1","3","no","right","d","485.462488097","703.237004566","29","green","2"
"100","91","26","702.220900522","1","1","7","417","0","right","in","Female","Right-handed","1","3","no","right","d","796.028719351","927.107984928","29","green","1"
"100","92","26","704.7878447","1","1","7","418","3","left","out","Female","Right-handed","1","3","no","left","s","631.570439993","839.611909673","29","red","2"
"100","92","26","711.810954411","1","1","7","419","1","right","in","Female","Right-handed","1","3","no","right","s","759.090094185","847.132667124","29","green","3"
"100","86","26","713.569787658","1","0","7","420","1","left","in","Female","Right-handed","1","3","no","left","s","620.60809413","855.778812118","29","red","1"
"100","87","26","720.960385092","1","1","7","421","3","left","in","Female","Right-handed","1","3","no","left","s","752.247006691","911.391686501","29","red","1"
"100","82","26","727.256943655","1","0","7","422","2","left","out","Female","Right-handed","1","3","no","left","s","905.006579462","750.99718188","29","red","0"
"100","83","26","729.743344932","1","1","7","423","2","left","out","Female","Right-handed","1","3","no","left","d","696.541445788","847.48288747","29","green","0"
"100","84","26","730.419643412","1","1","7","424","0","left","in","Female","Right-handed","1","3","no","left","d","526.006907551","959.179124556","29","green","1"
"100","85","26","725.830658841","1","1","7","425","0","left","in","Female","Right-handed","1","3","no","left","d","589.508399034","687.771504956","29","green","1"
"100","85","26","725.447414817","1","1","7","426","3","right","in","Female","Right-handed","1","3","no","right","s","740.212191195","695.352877466","29","green","3"
"100","86","26","731.146726435","1","1","7","427","2","left","out","Female","Right-handed","1","3","no","left","s","822.714098645","878.950442217","29","red","1"
"100","86","26","741.44531793","1","1","7","428","2","left","in","Female","Right-handed","1","3","no","left","s","752.544950557","1183.48371107","29","green","3"
"100","87","26","741.660251038","1","1","7","429","0","right","out","Female","Right-handed","1","3","no","right","s","725.967652085","767.239772973","29","red","0"
"100","88","26","742.421440156","1","1","7","430","1","left","out","Female","Right-handed","1","3","no","left","d","889.658782111","631.721175854","29","green","2"
"100","88","26","735.840160381","1","1","7","431","1","left","out","Female","Right-handed","1","3","no","left","s","743.315104984","399.301227022","29","red","1"
"100","88","26","732.175694967","1","1","7","432","3","right","out","Female","Right-handed","1","3","no","right","d","530.84039734","742.958791059","29","green","2"
"100","85","26","739.849686334","1","0","7","433","3","left","in","Female","Right-handed","1","3","no","left","d","1070.54149774","823.553408762","29","green","0"
"100","86","26","736.700692532","1","1","7","434","2","right","in","Female","Right-handed","1","3","no","right","d","745.941436871","551.116295285","29","red","0"
"100","86","26","736.74949442","1","1","7","435","3","left","in","Female","Right-handed","1","3","no","left","d","812.644622243","663.684876094","29","green","1"
"100","83","26","735.572185424","1","0","7","436","1","left","out","Female","Right-handed","1","3","no","left","d","521.240447115","879.265383959","29","green","1"
"100","84","26","741.392596327","1","1","7","437","0","right","in","Female","Right-handed","1","3","no","right","d","1052.79443445","790.856234227","29","red","2"
"100","84","26","743.040578143","1","1","7","438","0","right","out","Female","Right-handed","1","3","no","right","d","640.218188559","951.333803929","29","green","1"
"100","85","26","741.099589638","1","1","7","439","2","left","out","Female","Right-handed","1","3","no","left","s","666.981180788","687.112757161","29","green","2"
"100","85","26","740.74466907","1","1","7","440","0","right","out","Female","Right-handed","1","3","no","right","d","506.550114704","950.804624832","29","red","0"
"100","86","26","743.788319382","1","1","7","441","0","right","in","Female","Right-handed","1","3","no","right","d","645.269443563","1055.36271699","29","red","0"
"100","86","26","748.801214319","1","1","7","442","3","right","out","Female","Right-handed","1","3","no","right","d","1075.78229508","782.748569052","29","red","1"
"100","84","26","755.172497784","1","0","7","443","2","left","out","Female","Right-handed","1","3","no","left","d","1046.38976382","935.430208172","29","green","0"
"100","82","26","754.832139087","1","0","7","444","3","right","out","Female","Right-handed","1","3","no","right","d","628.908829498","854.888187665","29","green","0"
"100","82","26","767.962222706","1","1","7","445","2","right","in","Female","Right-handed","1","3","no","right","d","905.528702835","1654.54226489","29","green","1"
"100","82","26","768.637106944","1","1","7","446","3","right","in","Female","Right-handed","1","3","no","right","s","672.133140179","919.13181274","29","red","0"
"100","83","26","777.92006943","1","1","7","447","2","right","out","Female","Right-handed","1","3","no","right","d","1366.5011031","950.541959574","29","red","2"
"100","83","26","786.308493691","1","1","7","448","2","left","out","Female","Right-handed","1","3","no","left","d","766.184301212","1511.06032417","29","red","1"
"100","81","26","798.251060173","1","0","7","449","3","left","in","Female","Right-handed","1","3","no","left","s","632.764139746","1990.79869803","29","green","2"
"100","80","26","805.472360406","1","0","7","450","0","left","in","Female","Right-handed","1","3","no","left","d","551.194870363","1695.22427091","29","red","2"
"100","78","26","822.151990527","1","0","7","451","3","right","out","Female","Right-handed","1","3","no","right","d","994.635086114","2150.83560586","29","green","1"
"100","78","26","819.35458588","1","1","7","452","3","left","in","Female","Right-handed","1","3","no","left","s","614.122924135","767.225020101","29","red","2"
"100","79","26","824.000768887","1","1","7","453","0","left","in","Female","Right-handed","1","3","no","left","d","1389.92160773","694.821132654","29","red","2"
"100","79","26","828.213987564","1","1","7","454","1","right","in","Female","Right-handed","1","3","no","right","d","758.405368506","1302.49159968","29","green","3"
"100","80","26","828.90991672","1","1","7","455","3","left","out","Female","Right-handed","1","3","no","left","d","758.920756875","967.100133834","29","green","1"
"100","80","26","827.384791187","1","1","7","456","0","left","in","Female","Right-handed","1","3","no","left","d","735.513080826","766.743948196","29","red","3"
"100","80","26","828.755627832","1","1","7","457","1","right","in","Female","Right-handed","1","3","no","right","d","886.108150736","911.228442767","29","green","1"
"100","81","26","831.990726192","1","1","7","458","0","right","out","Female","Right-handed","1","3","no","right","d","825.759925234","1174.67175662","29","green","0"
"100","81","26","843.413155753","1","1","7","459","3","left","in","Female","Right-handed","1","3","no","left","s","1442.18141093","1455.42243405","29","red","1"
"100","81","26","848.139880082","1","1","7","460","1","left","in","Female","Right-handed","1","3","no","left","s","687.829875014","1518.93611269","29","green","0"
"100","82","26","844.348171393","1","1","7","461","1","right","out","Female","Right-handed","1","3","no","right","s","553.234294526","718.374092417","29","red","1"
"100","80","26","847.673116243","1","0","7","462","0","left","out","Female","Right-handed","1","3","no","left","d","1068.84427606","998.895779619","29","green","3"
"100","81","26","844.834296331","1","1","7","463","2","right","out","Female","Right-handed","1","3","no","right","s","567.394164982","798.648957661","29","green","2"
"100","79","26","842.957188574","1","0","7","464","1","right","in","Female","Right-handed","1","3","no","right","s","773.052404445","695.117472949","29","red","0"
"100","80","26","839.945076021","1","1","7","465","0","left","out","Female","Right-handed","1","3","no","left","s","757.690495655","566.770375079","29","red","1"
"100","80","26","837.737645644","1","1","7","466","2","right","in","Female","Right-handed","1","3","no","right","s","715.270537199","695.313108856","29","red","1"
"100","80","26","837.282026708","1","1","7","467","1","left","in","Female","Right-handed","1","3","no","left","s","883.988227208","734.990316021","29","red","2"
"100","80","26","835.91935954","1","1","7","468","0","left","in","Female","Right-handed","1","3","no","left","d","768.556947849","734.311042492","29","green","2"
"100","81","26","834.35308968","1","1","7","469","1","right","out","Female","Right-handed","1","3","no","right","s","728.069615594","743.286561385","29","red","2"
"100","100","26","1209.99398019","1","1","8","470","1","left","out","Female","Right-handed","1","3","no","left","s","1372.46286686","1047.52509351","29","green","1"
"100","100","26","1247.72966132","1","1","8","471","3","left","in","Female","Right-handed","1","3","no","left","s","1963.92666283","607.004022082","29","red","2"
"100","100","26","1296.80399345","1","1","8","472","1","left","out","Female","Right-handed","1","3","no","left","s","1870.45375023","919.4515652","29","red","0"
"100","100","26","1257.99986498","1","1","8","473","1","right","in","Female","Right-handed","1","3","no","right","d","1452.09213361","831.082825509","29","green","1"
"100","100","26","1175.65673531","1","1","8","474","2","left","in","Female","Right-handed","1","3","no","left","d","757.748865713","934.819567569","29","green","1"
"100","83","26","1148.8488858","1","0","8","475","0","right","in","Female","Right-handed","1","3","no","right","d","758.274837663","1271.34443882","29","green","0"
"100","85","26","1118.55971287","1","1","8","476","0","right","out","Female","Right-handed","1","3","no","right","d","802.802211776","1070.84713876","29","red","1"
"100","87","26","1082.10287835","1","1","8","477","3","left","in","Female","Right-handed","1","3","no","left","s","630.344027348","1023.4660461","29","red","3"
"100","88","26","1044.36858475","1","1","8","478","2","left","in","Female","Right-handed","1","3","no","left","d","662.086113795","822.902358119","29","green","3"
"100","90","26","1002.60534112","1","1","8","479","2","right","out","Female","Right-handed","1","3","no","right","s","565.727731904","687.74456493","29","red","3"
"100","81","26","992.74734538","1","0","8","480","2","left","in","Female","Right-handed","1","3","no","left","d","877.12108612","911.213689896","29","green","0"
"100","83","26","981.953362538","1","1","8","481","3","left","out","Female","Right-handed","1","3","no","left","s","1167.74207618","558.697026367","29","red","1"
"100","84","26","956.136739484","1","1","8","482","2","right","out","Female","Right-handed","1","3","no","right","s","733.427473759","559.247051911","29","green","2"
"100","85","26","946.558065677","1","1","8","483","1","right","out","Female","Right-handed","1","3","no","right","s","909.076127063","734.994485312","29","green","0"
"100","86","26","944.957708969","1","1","8","484","3","right","out","Female","Right-handed","1","3","no","right","d","925.604474867","919.500955248","29","red","1"
"100","87","26","919.840120964","1","1","8","485","0","left","out","Female","Right-handed","1","3","no","left","s","671.065481261","415.087120519","29","red","1"
"100","88","26","906.86096073","1","1","8","486","1","right","out","Female","Right-handed","1","3","no","right","s","799.545675693","598.843118283","29","green","2"
"100","88","26","900.725440397","1","1","8","487","1","left","in","Female","Right-handed","1","3","no","left","d","809.394500449","783.44868903","29","green","2"
"100","89","26","896.685613754","1","1","8","488","2","left","in","Female","Right-handed","1","3","no","left","d","968.879458454","679.058009897","29","red","0"
"100","90","26","886.279725032","1","1","8","489","2","left","out","Female","Right-handed","1","3","no","left","d","738.59611031","638.539568325","29","red","1"
"100","90","26","886.582388367","1","1","8","490","3","left","out","Female","Right-handed","1","3","no","left","s","1194.08140442","591.189905701","29","green","0"
"100","90","26","882.701418174","1","1","8","491","0","right","out","Female","Right-handed","1","3","no","right","s","851.566225801","750.835862434","29","red","3"
"100","91","26","884.730667571","1","1","8","492","2","right","in","Female","Right-handed","1","3","no","right","s","843.368119107","1015.38018952","29","red","1"
"100","91","26","877.072858661","1","1","8","493","0","left","in","Female","Right-handed","1","3","no","left","s","722.992703422","678.893804019","29","green","0"
"100","92","26","869.710494135","1","1","8","494","0","left","out","Female","Right-handed","1","3","no","left","d","571.525610505","814.50188051","29","red","1"
"100","92","26","862.745189707","1","1","8","495","1","left","in","Female","Right-handed","1","3","no","left","d","554.00433029","823.220827721","29","red","1"
"100","92","26","859.851442145","1","1","8","496","3","left","out","Female","Right-handed","1","3","no","left","d","906.727213307","662.500797778","29","green","1"
"100","89","26","851.869346918","1","0","8","497","1","left","out","Female","Right-handed","1","3","no","left","d","577.333751973","695.371799629","29","green","1"
"100","89","26","842.18154696","1","1","8","498","3","right","in","Female","Right-handed","1","3","no","right","s","790.940582166","350.905714076","29","green","2"
"100","90","26","860.507567208","1","1","8","499","0","right","in","Female","Right-handed","1","3","no","right","d","945.429448078","1838.49486071","29","green","2"
"100","87","26","858.109771029","1","0","8","500","1","right","in","Female","Right-handed","1","3","no","right","s","773.114302365","799.237468958","29","green","2"
"100","87","26","868.96676198","1","1","8","501","0","right","out","Female","Right-handed","1","3","no","right","s","1068.55819864","1342.50876433","29","red","1"
"100","84","26","894.089191956","1","0","8","502","1","left","in","Female","Right-handed","1","3","no","left","s","1028.98682729","2367.02707505","29","green","3"
"100","85","26","903.472280797","1","1","8","503","2","right","in","Female","Right-handed","1","3","no","right","d","651.510229032","1774.7181961","29","red","0"
"100","82","26","901.821118314","1","0","8","504","0","right","in","Female","Right-handed","1","3","no","right","s","580.093821849","1111.26936595","29","green","0"
"100","83","26","893.540876484","1","1","8","505","2","right","in","Female","Right-handed","1","3","no","right","d","600.633667913","606.831156911","29","red","2"
"100","83","26","894.871742286","1","1","8","506","2","right","out","Female","Right-handed","1","3","no","right","d","775.23615018","1110.32967216","29","red","1"
"100","81","26","903.295575491","1","0","8","507","3","right","in","Female","Right-handed","1","3","no","right","s","1110.99258925","1318.96221886","29","red","0"
"100","82","26","900.954037954","1","1","8","508","1","right","out","Female","Right-handed","1","3","no","right","d","681.499930886","942.451292271","29","green","0"
"100","82","26","909.018518703","1","1","8","509","2","left","in","Female","Right-handed","1","3","no","left","s","1608.11048746","838.95604831","29","red","1"
"100","82","26","906.323938161","1","1","8","510","1","right","in","Female","Right-handed","1","3","no","right","s","806.586002667","790.495430298","29","red","3"
"100","83","26","906.034843931","1","1","8","511","2","left","in","Female","Right-handed","1","3","no","left","d","829.155651458","959.208309589","29","red","2"
"100","83","26","909.11783115","1","1","8","512","2","left","in","Female","Right-handed","1","3","no","left","s","702.557731034","1374.6488576","29","green","2"
"100","84","26","916.225679228","1","1","8","513","1","left","out","Female","Right-handed","1","3","no","left","d","629.290159161","1814.43613402","29","green","2"
"100","84","26","925.249654047","1","1","8","514","1","right","in","Female","Right-handed","1","3","no","right","d","1733.72734191","910.881750282","29","green","1"
"100","84","26","928.196901643","1","1","8","515","0","left","in","Female","Right-handed","1","3","no","left","s","1115.30716281","1006.33892414","29","green","0"
"100","82","26","927.061860026","1","0","8","516","3","left","in","Female","Right-handed","1","3","no","left","s","894.887713008","854.812178304","29","red","0"
"100","81","26","923.80994637","1","0","8","517","1","right","in","Female","Right-handed","1","3","no","right","s","607.449815381","934.490193669","29","green","1"
"100","81","26","926.17204481","1","1","8","518","0","left","out","Female","Right-handed","1","3","no","left","d","639.993046907","1439.11249289","29","red","1"
"100","82","26","926.508633477","1","1","8","519","0","left","out","Female","Right-handed","1","3","no","left","d","1103.38523885","782.617717494","29","red","2"
"100","82","26","924.150207075","1","1","8","520","3","right","in","Female","Right-handed","1","3","no","right","d","894.279958833","718.177815081","29","red","1"
"100","82","26","924.267168981","1","1","8","521","0","left","out","Female","Right-handed","1","3","no","left","s","773.699285801","1086.76516667","29","red","2"
"100","83","26","921.116482449","1","1","8","522","3","left","out","Female","Right-handed","1","3","no","left","s","692.283638713","822.277926785","29","green","0"
"100","83","26","916.630981228","1","1","8","523","3","right","out","Female","Right-handed","1","3","no","right","s","622.860472791","734.938360256","29","green","2"
"100","83","26","914.202096908","1","1","8","524","0","right","in","Female","Right-handed","1","3","no","right","s","767.513342529","798.571344727","29","red","3"
"100","83","26","918.92413858","1","1","8","525","3","right","out","Female","Right-handed","1","3","no","right","d","1535.03245792","822.240403177","29","green","3"
"100","84","26","914.911624925","1","1","8","526","0","left","out","Female","Right-handed","1","3","no","left","s","637.756383263","742.665337197","29","green","2"
"100","84","26","914.63254351","1","1","8","527","3","right","out","Female","Right-handed","1","3","no","right","d","1207.16142881","590.288376951","29","green","1"
"100","84","26","912.12734057","1","1","8","528","1","right","out","Female","Right-handed","1","3","no","right","d","798.934072944","734.71706718","29","green","0"
"100","85","26","911.399397014","1","1","8","529","0","right","out","Female","Right-handed","1","3","no","right","d","858.483719085","878.417735261","29","red","1"
"100","85","26","909.334954264","1","1","8","530","2","right","out","Female","Right-handed","1","3","no","right","s","836.967297051","733.96948144","29","red","1"
"100","85","26","908.276063102","1","1","8","531","3","left","out","Female","Right-handed","1","3","no","left","s","832.621934891","854.745469665","29","green","1"
"100","85","26","910.347343028","1","1","8","532","3","left","in","Female","Right-handed","1","3","no","left","s","839.200753551","1238.33264326","29","red","2"
"100","85","26","907.058413775","1","1","8","533","2","right","in","Female","Right-handed","1","3","no","right","s","696.770756729","702.940984984","29","red","0"
dis_reply=No
dis_loc=2
tar_loc=1
