"acc_1","acc_2","age","avg_rt","correct_1","correct_2","count_block_loop","count_trial_sequence","cue_position","detection","dis_shape","gender","hand","high_loc","low_loc","practice","response_keyboard_response_1","response_keyboard_response_2","response_time_keyboard_response_1","response_time_keyboard_response_2","subject_nr","tar_color","tar_position"
"100","0","20","2544.00145475","1","0","0","0","1","left","in","Female","Right-handed","0","1","yes","left","None","2087.91856208","3000.08434743","24","red","3"
"50","0","20","2454.31777043","0","0","0","1","0","right","in","Female","Right-handed","0","1","yes","None","d","3000.09332738","1729.17484484","24","red","1"
"66","0","20","2060.93620512","1","0","0","2","1","right","in","Female","Right-handed","0","1","yes","right","s","1290.67694743","1257.66920158","24","green","1"
"75","25","20","1893.36973903","1","1","0","3","3","left","out","Female","Right-handed","0","1","yes","left","d","1652.22337251","1129.11730899","24","green","2"
"80","40","20","1816.43267472","1","1","0","4","1","right","in","Female","Right-handed","0","1","yes","right","d","1759.77179371","1257.59704123","24","red","0"
"83","50","20","1783.06317569","1","1","0","5","0","right","in","Female","Right-handed","0","1","yes","right","s","2199.19655067","1033.23481041","24","green","1"
"85","57","20","1696.72184024","1","1","0","6","2","left","in","Female","Right-handed","0","1","yes","left","d","1643.5849773","713.762677769","24","red","1"
"87","62","20","1628.67195939","1","1","0","7","3","right","in","Female","Right-handed","0","1","yes","right","d","1751.29183055","553.353756313","24","green","0"
"88","66","20","1570.90894312","1","1","0","8","0","right","out","Female","Right-handed","0","1","yes","right","d","1727.8503016","489.759324402","24","green","2"
"90","70","20","1558.55574756","1","1","0","9","0","left","out","Female","Right-handed","0","1","yes","left","d","2125.38517589","769.368799021","24","green","0"
"90","72","20","1491.67889165","1","1","0","10","1","right","in","Female","Right-handed","0","1","yes","right","d","1059.9354213","585.885243883","24","red","3"
"83","66","20","1521.97188996","0","0","0","11","3","left","in","Female","Right-handed","0","1","yes","None","d","3000.08081959","710.308923251","24","green","3"
"84","69","20","1501.62202889","1","1","0","12","3","left","out","Female","Right-handed","0","1","yes","left","d","1912.96211486","601.885277236","24","red","3"
"85","71","20","1493.56524432","1","1","0","13","2","right","in","Female","Right-handed","0","1","yes","right","s","1784.29604857","993.358041033","24","green","3"
"86","66","20","1494.35053978","1","0","0","14","3","right","out","Female","Right-handed","0","1","yes","right","d","1984.87070149","1025.81865111","24","green","2"
"87","68","20","1483.50807362","1","1","0","15","3","right","in","Female","Right-handed","0","1","yes","right","s","1624.4371493","1017.30501312","24","red","1"
"88","70","20","1437.62262542","1","1","0","16","2","left","in","Female","Right-handed","0","1","yes","left","s","981.918220841","424.992687753","24","green","0"
"88","72","20","1441.19896607","1","1","0","17","0","left","out","Female","Right-handed","0","1","yes","left","d","1930.6099698","1073.38354411","24","green","2"
"89","68","20","1431.6633927","1","0","0","18","3","right","out","Female","Right-handed","0","1","yes","right","s","1726.95230618","793.093837954","24","red","1"
"90","70","20","1434.17931718","1","1","0","19","1","right","out","Female","Right-handed","0","1","yes","right","d","1730.53434576","1233.42941884","24","red","1"
"90","71","20","1421.52936531","1","1","0","20","0","left","in","Female","Right-handed","0","1","yes","left","d","1447.95410987","889.106545874","24","green","0"
"90","72","20","1403.01169878","1","1","0","21","1","left","in","Female","Right-handed","0","1","yes","left","s","954.530643456","1073.75076009","24","green","0"
"100","100","20","1104.06820788","1","1","1","22","2","right","in","Female","Right-handed","0","1","no","right","s","1422.99304438","785.143371384","24","red","2"
"100","100","20","901.06640163","1","1","1","23","0","left","out","Female","Right-handed","0","1","no","left","s","1042.51334806","353.61584269","24","red","0"
"100","100","20","934.970432431","1","1","1","24","0","left","out","Female","Right-handed","0","1","no","left","d","828.293334049","1177.26365402","24","green","0"
"100","100","20","881.189914484","1","1","1","25","1","right","in","Female","Right-handed","0","1","no","right","s","1069.78963816","369.907083132","24","green","3"
"100","100","20","861.342483906","1","1","1","26","0","right","in","Female","Right-handed","0","1","no","right","d","994.452312596","569.453210592","24","red","3"
"100","100","20","842.217928949","1","1","1","27","0","left","out","Female","Right-handed","0","1","no","left","s","964.053564145","529.136744175","24","green","0"
"100","100","20","850.489008902","1","1","1","28","3","right","out","Female","Right-handed","0","1","no","right","d","1270.69751153","529.533465724","24","red","2"
"100","100","20","952.141674973","1","1","1","29","3","right","out","Female","Right-handed","0","1","no","right","s","1678.27870955","1649.14196538","24","green","2"
"100","100","20","940.652142089","1","1","1","30","1","left","out","Female","Right-handed","0","1","no","left","s","1207.79100824","489.680749801","24","green","3"
"100","100","20","970.672928901","1","1","1","31","0","right","in","Female","Right-handed","0","1","no","right","d","1536.30627545","945.413744976","24","red","1"
"100","100","20","971.780668934","1","1","1","32","1","left","out","Female","Right-handed","0","1","no","left","s","1083.78072748","881.935411038","24","red","0"
"100","100","20","964.249412668","1","1","1","33","0","right","in","Female","Right-handed","0","1","no","right","d","1145.44607281","617.365114675","24","green","0"
"100","100","20","961.92242859","1","1","1","34","3","right","out","Female","Right-handed","0","1","no","right","s","1139.03759265","728.959646654","24","red","0"
"100","100","20","978.85717896","1","1","1","35","0","left","in","Female","Right-handed","0","1","no","left","d","1828.50308012","569.514787421","24","green","2"
"100","100","20","950.976516564","1","1","1","36","1","left","in","Female","Right-handed","0","1","no","left","d","744.152125553","377.142360496","24","green","0"
"100","100","20","940.80741935","1","1","1","37","3","right","out","Female","Right-handed","0","1","no","right","d","974.766328763","601.77559351","24","green","3"
"100","100","20","946.661722787","1","1","1","38","3","right","out","Female","Right-handed","0","1","no","right","d","895.426188625","1185.23496691","24","red","3"
"100","100","20","943.26425753","1","1","1","39","3","left","in","Female","Right-handed","0","1","no","left","d","882.032266261","888.982430079","24","green","0"
"100","100","20","954.378186786","1","1","1","40","1","left","in","Female","Right-handed","0","1","no","left","d","1939.28524696","369.572579839","24","red","1"
"100","100","20","962.712167453","1","1","1","41","0","left","out","Female","Right-handed","0","1","no","left","d","1305.00318147","937.112418764","24","red","3"
"100","100","20","967.109375353","1","1","1","42","2","right","out","Female","Right-handed","0","1","no","right","d","1204.59318242","905.513884292","24","red","3"
"100","100","20","967.242555793","1","1","1","43","2","left","out","Female","Right-handed","0","1","no","left","d","1083.09536455","856.983325506","24","green","3"
"100","100","20","967.415183496","1","1","1","44","1","left","in","Female","Right-handed","0","1","no","left","d","852.735165758","1089.69082018","24","red","0"
"100","100","20","976.203021209","1","1","1","45","2","right","in","Female","Right-handed","0","1","no","right","s","1627.36333151","729.283245713","24","green","1"
"100","100","20","966.448780907","1","1","1","46","2","right","in","Female","Right-handed","0","1","no","right","d","815.865718898","648.828308407","24","green","0"
"100","100","20","973.868863755","1","1","1","47","0","left","out","Female","Right-handed","0","1","no","left","d","1749.43779072","569.304079207","24","red","2"
"100","100","20","965.931823712","1","1","1","48","3","left","in","Female","Right-handed","0","1","no","left","s","646.090063808","873.047501394","24","green","3"
"100","100","20","979.811425085","1","1","1","49","2","left","out","Female","Right-handed","0","1","no","left","s","1555.57789854","1153.54342577","24","green","2"
"100","100","20","980.700049137","1","1","1","50","1","right","in","Female","Right-handed","0","1","no","right","d","1353.97696513","657.186080047","24","green","1"
"100","100","20","983.946028123","1","1","1","51","2","left","in","Female","Right-handed","0","1","no","left","d","1531.66460128","624.494236152","24","red","1"
"100","100","20","989.824718743","1","1","1","52","3","left","in","Female","Right-handed","0","1","no","left","d","1643.18825576","689.182618913","24","green","1"
"100","100","20","993.837661791","1","1","1","53","0","right","out","Female","Right-handed","0","1","no","right","s","1563.71309559","672.764696978","24","red","1"
"96","96","20","1032.04419871","0","0","1","54","3","left","out","Female","Right-handed","0","1","no","None","s","3000.18152336","1509.125237","24","green","2"
"97","97","20","1028.57713362","1","1","1","55","1","left","in","Female","Right-handed","0","1","no","left","s","939.725906141","888.602064879","24","red","0"
"97","97","20","1016.8955547","1","1","1","56","2","left","out","Female","Right-handed","0","1","no","left","s","806.151012039","433.292731112","24","green","0"
"97","97","20","1013.32553039","1","1","1","57","3","right","out","Female","Right-handed","0","1","no","right","s","1351.89425719","424.855102028","24","green","2"
"97","97","20","1014.38416601","1","1","1","58","1","left","in","Female","Right-handed","0","1","no","left","d","1375.47529615","729.514800245","24","red","2"
"97","97","20","1004.94049818","1","1","1","59","2","right","out","Female","Right-handed","0","1","no","right","s","926.017685379","385.031891667","24","green","0"
"97","97","20","1006.45795214","1","1","1","60","0","left","in","Female","Right-handed","0","1","no","left","d","1271.63174747","856.610657411","24","green","2"
"97","97","20","1003.46657902","1","1","1","61","3","left","in","Female","Right-handed","0","1","no","left","d","900.303586594","873.302467946","24","red","0"
"97","97","20","1002.36184137","1","1","1","62","2","left","in","Female","Right-handed","0","1","no","left","d","1299.69699069","616.647680479","24","green","0"
"97","97","20","1006.88435282","1","1","1","63","1","right","in","Female","Right-handed","0","1","no","right","s","1631.33824409","753.276400424","24","red","2"
"97","97","20","999.210472583","1","1","1","64","2","right","in","Female","Right-handed","0","1","no","right","s","808.906575123","544.908430125","24","red","0"
"97","97","20","994.977880448","1","1","1","65","2","left","in","Female","Right-handed","0","1","no","left","s","1097.37701953","528.575817752","24","green","2"
"97","97","20","989.788306132","1","1","1","66","3","right","out","Female","Right-handed","0","1","no","right","d","897.853341954","625.040730505","24","green","0"
"97","97","20","987.937307035","1","1","1","67","2","right","in","Female","Right-handed","0","1","no","right","d","856.681214191","952.603481142","24","green","0"
"97","95","20","984.50847361","1","0","1","68","0","right","in","Female","Right-handed","0","1","no","right","d","636.171383707","1017.39288839","24","green","0"
"97","95","20","983.067100409","1","1","1","69","0","left","in","Female","Right-handed","0","1","no","left","d","1277.82053946","552.824580445","24","red","2"
"97","95","20","980.684737083","1","1","1","70","1","right","in","Female","Right-handed","0","1","no","right","s","747.309220875","985.353374024","24","red","0"
"98","96","20","981.351585731","1","1","1","71","3","right","out","Female","Right-handed","0","1","no","right","s","1498.99649012","529.057848864","24","green","1"
"98","96","20","976.904884728","1","1","1","72","0","left","out","Female","Right-handed","0","1","no","left","s","876.510235867","632.62943321","24","green","0"
"98","96","20","972.227089448","1","1","1","73","1","left","out","Female","Right-handed","0","1","no","left","s","898.143266189","569.17579415","24","red","3"
"98","96","20","967.538137333","1","1","1","74","3","right","out","Female","Right-handed","0","1","no","right","s","910.670943689","536.754311019","24","green","3"
"98","96","20","972.097209619","1","1","1","75","1","right","in","Female","Right-handed","0","1","no","right","s","1762.19381563","665.262265975","24","red","2"
"98","96","20","975.547030819","1","1","1","76","1","right","out","Female","Right-handed","0","1","no","right","d","1650.80967115","672.865080036","24","red","2"
"98","94","20","972.937556514","1","0","1","77","2","left","out","Female","Right-handed","0","1","no","left","d","1154.44045905","504.392480445","24","red","3"
"98","94","20","972.402001355","1","1","1","78","3","left","out","Female","Right-handed","0","1","no","left","s","1275.86675801","608.955066873","24","red","0"
"98","94","20","972.775272754","1","1","1","79","2","left","out","Female","Right-handed","0","1","no","left","s","1435.52841899","552.575066002","24","red","2"
"98","94","20","968.373501016","1","1","1","80","2","right","in","Female","Right-handed","0","1","no","right","d","929.064776257","497.076704203","24","red","3"
"98","95","20","969.561376276","1","1","1","81","1","left","in","Female","Right-handed","0","1","no","left","s","1574.65645261","504.635580634","24","red","3"
"98","95","20","963.074060395","1","1","1","82","1","right","out","Female","Right-handed","0","1","no","right","d","707.309297843","440.360917186","24","red","0"
"98","95","20","962.910727896","1","1","1","83","0","right","out","Female","Right-handed","0","1","no","right","s","1040.87129929","865.023591621","24","green","3"
"98","93","20","960.055662073","1","0","1","84","0","right","out","Female","Right-handed","0","1","no","right","s","765.550073505","800.533088564","24","red","3"
"98","93","20","955.640767737","1","1","1","85","3","right","in","Female","Right-handed","0","1","no","right","s","977.925348358","377.079500817","24","green","0"
"100","100","20","590.478971511","1","1","2","86","3","right","out","Female","Right-handed","0","1","no","right","d","659.507398199","521.450544824","24","red","3"
"100","100","20","711.00623273","1","1","2","87","0","right","in","Female","Right-handed","0","1","no","right","s","902.023247821","761.043740076","24","green","3"
"100","100","20","677.371520375","1","1","2","88","3","right","in","Female","Right-handed","0","1","no","right","s","859.565383045","360.638808284","24","green","0"
"100","75","20","662.468377733","1","0","2","89","3","left","in","Female","Right-handed","0","1","no","left","d","714.181528492","521.336371123","24","green","0"
"100","80","20","695.837502598","1","1","2","90","2","right","in","Female","Right-handed","0","1","no","right","d","753.8158391","904.812165016","24","green","0"
"100","66","20","762.939873434","1","0","2","91","0","right","out","Female","Right-handed","0","1","no","right","s","1035.48428893","1161.4191663","24","green","2"
"100","57","20","774.802381447","1","0","2","92","1","left","in","Female","Right-handed","0","1","no","left","d","955.009467438","736.945391614","24","green","0"
"100","62","20","783.463518615","1","1","2","93","3","right","in","Female","Right-handed","0","1","no","right","s","1359.5769287","328.606028885","24","green","2"
"100","66","20","761.865156438","1","1","2","94","2","left","out","Female","Right-handed","0","1","no","left","s","784.980449356","393.176068679","24","green","3"
"100","70","20","779.905027363","1","1","2","95","0","right","in","Female","Right-handed","0","1","no","right","d","1075.75104488","808.776686499","24","green","1"
"100","72","20","776.302387828","1","1","2","96","0","left","in","Female","Right-handed","0","1","no","left","d","767.301485284","713.25049967","24","green","0"
"100","75","20","779.644499115","1","1","2","97","2","left","in","Female","Right-handed","0","1","no","left","s","1271.93385879","360.88158776","24","red","2"
"100","76","20","777.058933268","1","1","2","98","2","left","in","Female","Right-handed","0","1","no","left","s","842.571140478","649.493145731","24","green","0"
"100","78","20","766.232572933","1","1","2","99","1","left","out","Female","Right-handed","0","1","no","left","d","737.865516206","513.114260939","24","green","1"
"100","80","20","749.792402702","1","1","2","100","2","right","in","Female","Right-handed","0","1","no","right","s","574.532336814","464.727702132","24","red","0"
"100","75","20","749.39114708","1","0","2","101","3","right","in","Female","Right-handed","0","1","no","right","s","1013.47217625","473.272449246","24","green","2"
"100","76","20","751.537958644","1","1","2","102","1","left","in","Female","Right-handed","0","1","no","left","d","1018.85181023","552.922077088","24","green","3"
"100","77","20","752.954030759","1","1","2","103","1","left","out","Female","Right-handed","0","1","no","left","d","833.601449107","720.453064347","24","red","3"
"100","78","20","760.246456868","1","1","2","104","0","right","in","Female","Right-handed","0","1","no","right","d","981.931370061","801.088883589","24","red","0"
"95","75","20","767.937306129","0","0","2","105","2","left","out","Female","Right-handed","0","1","no","right","s","512.703748747","1315.42313544","24","green","1"
"95","76","20","772.613677973","1","1","2","106","1","left","out","Female","Right-handed","0","1","no","left","d","1275.04541291","457.236816786","24","green","2"
"95","72","20","779.683296842","1","0","2","107","3","right","out","Female","Right-handed","0","1","no","right","d","671.61365928","1184.67692691","24","red","0"
"95","69","20","784.775444254","1","0","2","108","0","right","out","Female","Right-handed","0","1","no","right","d","608.312358727","1185.2930159","24","red","0"
"95","70","20","778.448414653","1","1","2","109","0","left","out","Female","Right-handed","0","1","no","left","s","544.936011411","720.917456259","24","red","0"
"96","68","20","775.308705168","1","0","2","110","3","left","in","Female","Right-handed","0","1","no","left","s","823.467570819","576.443784201","24","red","3"
"96","69","20","780.069641765","1","1","2","111","1","right","in","Female","Right-handed","0","1","no","right","s","1173.08861675","625.097496646","24","red","0"
"96","70","20","774.796563652","1","1","2","112","2","right","in","Female","Right-handed","0","1","no","right","d","674.685765745","600.707299676","24","green","0"
"96","71","20","770.315096054","1","1","2","113","1","left","out","Female","Right-handed","0","1","no","left","d","753.223162123","545.407779722","24","red","3"
"96","72","20","764.86994151","1","1","2","114","3","right","out","Female","Right-handed","0","1","no","right","d","679.91338193","544.897846608","24","green","0"
"96","73","20","773.139829218","1","1","2","115","2","left","in","Female","Right-handed","0","1","no","left","d","1425.42564983","600.507495695","24","red","2"
"96","74","20","773.558294221","1","1","2","116","0","right","in","Female","Right-handed","0","1","no","right","s","931.072116727","641.152371863","24","red","3"
"96","75","20","772.076941731","1","1","2","117","0","left","in","Female","Right-handed","0","1","no","left","d","827.630100295","624.679928773","24","green","0"
"96","75","20","770.870628327","1","1","2","118","2","left","out","Female","Right-handed","0","1","no","left","d","799.306683395","665.230515424","24","green","0"
"97","76","20","767.342649696","1","1","2","119","1","left","out","Female","Right-handed","0","1","no","left","s","884.848444031","416.990265731","24","red","1"
"97","77","20","762.903355717","1","1","2","120","2","left","out","Female","Right-handed","0","1","no","left","d","711.420513293","512.51420757","24","red","2"
"97","77","20","767.19910668","1","1","2","121","2","right","in","Female","Right-handed","0","1","no","right","d","985.968821598","849.131959145","24","green","0"
"97","78","20","764.899382214","1","1","2","122","3","right","out","Female","Right-handed","0","1","no","right","s","555.538771594","808.67983128","24","green","1"
"97","78","20","760.658188611","1","1","2","123","1","left","in","Female","Right-handed","0","1","no","left","d","727.176484321","480.291566284","24","red","3"
"97","79","20","760.830671747","1","1","2","124","3","right","in","Female","Right-handed","0","1","no","right","d","837.830045388","696.940016471","24","red","2"
"97","80","20","763.398604772","1","1","2","125","2","left","in","Female","Right-handed","0","1","no","left","s","790.54096527","936.555020177","24","red","3"
"97","80","20","761.622806318","1","1","2","126","2","left","out","Female","Right-handed","0","1","no","left","s","684.129470414","697.052265899","24","red","3"
"97","80","20","758.398066891","1","1","2","127","1","right","out","Female","Right-handed","0","1","no","right","d","763.507133932","488.860366844","24","green","0"
"97","81","20","755.571006198","1","1","2","128","0","left","in","Female","Right-handed","0","1","no","left","s","721.328930587","552.339983631","24","red","2"
"97","81","20","759.044012884","1","1","2","129","0","left","out","Female","Right-handed","0","1","no","left","s","1087.90477144","728.861829295","24","green","0"
"97","82","20","759.787301946","1","1","2","130","1","right","out","Female","Right-handed","0","1","no","right","d","1104.51447954","480.469561804","24","red","2"
"97","82","20","763.936306719","1","1","2","131","1","left","in","Female","Right-handed","0","1","no","left","d","933.044820235","968.238222791","24","green","0"
"97","82","20","762.209185958","1","1","2","132","0","left","in","Female","Right-handed","0","1","no","left","s","636.759249992","728.764011936","24","green","1"
"97","83","20","766.073249379","1","1","2","133","0","right","in","Female","Right-handed","0","1","no","right","s","1351.23038201","544.138078341","24","red","3"
"97","83","20","769.04812237","1","1","2","134","0","right","out","Female","Right-handed","0","1","no","right","d","942.925014817","880.759037042","24","green","2"
"98","84","20","765.105485597","1","1","2","135","1","right","out","Female","Right-handed","0","1","no","right","s","567.421175248","576.411392227","24","red","2"
"98","84","20","766.210301371","1","1","2","136","2","right","in","Female","Right-handed","0","1","no","right","d","681.910138879","960.992041197","24","red","2"
"98","84","20","765.785738713","1","1","2","137","1","left","out","Female","Right-handed","0","1","no","left","s","943.665219609","544.600866695","24","green","2"
"98","84","20","765.577554951","1","1","2","138","3","left","out","Female","Right-handed","0","1","no","left","s","925.31179684","584.192201808","24","green","0"
"98","85","20","768.30434483","1","1","2","139","2","left","in","Female","Right-handed","0","1","no","left","s","1224.81219067","600.83622616","24","red","1"
"98","83","20","764.870226834","1","0","2","140","3","left","out","Female","Right-handed","0","1","no","left","s","646.337974689","512.517735413","24","red","0"
"98","83","20","768.317803625","1","1","2","141","3","right","out","Female","Right-handed","0","1","no","right","s","1260.00110325","655.867951056","24","red","3"
"98","84","20","766.32222297","1","1","2","142","0","right","out","Female","Right-handed","0","1","no","right","s","612.509525166","696.629887338","24","red","3"
"98","84","20","763.467257738","1","1","2","143","2","right","out","Female","Right-handed","0","1","no","right","s","713.179942886","488.288536188","24","green","3"
"98","84","20","761.09091473","1","1","2","144","3","right","out","Female","Right-handed","0","1","no","right","s","829.678812694","416.847227891","24","green","2"
"98","85","20","758.280672316","1","1","2","145","0","right","in","Female","Right-handed","0","1","no","right","s","608.450265165","576.502474621","24","red","2"
"98","85","20","756.440162359","1","1","2","146","3","right","out","Female","Right-handed","0","1","no","right","d","491.990843013","800.028286856","24","red","1"
"98","85","20","754.692975263","1","1","2","147","1","left","in","Female","Right-handed","0","1","no","left","d","815.609790203","480.619334609","24","red","0"
"98","85","20","753.281608186","1","1","2","148","1","left","out","Female","Right-handed","0","1","no","left","s","755.329923519","576.223775326","24","red","0"
"98","85","20","754.821661618","1","1","2","149","3","right","out","Female","Right-handed","0","1","no","right","d","639.920835289","1063.76922031","24","green","3"
"100","100","20","553.749996792","1","1","3","150","2","right","out","Female","Right-handed","0","1","no","right","s","786.22673871","321.273254874","24","green","2"
"100","100","20","542.315628711","1","1","3","151","0","right","out","Female","Right-handed","0","1","no","right","d","540.868733595","520.893787667","24","green","0"
"100","100","20","579.058394076","1","1","3","152","2","right","in","Female","Right-handed","0","1","no","right","s","784.596877027","520.490972583","24","green","0"
"100","75","20","649.810811608","1","0","3","153","3","right","in","Female","Right-handed","0","1","no","right","s","1363.16281683","360.973311573","24","red","2"
"100","80","20","665.073815223","1","1","3","154","0","right","out","Female","Right-handed","0","1","no","right","d","819.583099212","632.668560153","24","green","3"
"100","83","20","643.344122106","1","1","3","155","3","right","in","Female","Right-handed","0","1","no","right","d","484.210033428","585.181279617","24","green","3"
"100","71","20","696.990437081","1","0","3","156","3","left","out","Female","Right-handed","0","1","no","left","d","1228.8746578","808.861996066","24","green","1"
"100","75","20","693.423021427","1","1","3","157","1","right","in","Female","Right-handed","0","1","no","right","s","952.43446558","384.467758115","24","red","2"
"100","77","20","681.874967394","1","1","3","158","1","right","in","Female","Right-handed","0","1","no","right","d","545.968385428","633.012684826","24","red","0"
"100","80","20","706.703920648","1","1","3","159","0","left","out","Female","Right-handed","0","1","no","left","s","1163.6324043","696.696595569","24","green","2"
"100","81","20","695.514317545","1","1","3","160","1","left","out","Female","Right-handed","0","1","no","left","s","678.144330956","489.092242089","24","red","0"
"100","83","20","713.500588721","1","1","3","161","1","left","in","Female","Right-handed","0","1","no","left","d","1101.95102333","720.748119984","24","red","2"
"100","84","20","702.652648859","1","1","3","162","0","left","out","Female","Right-handed","0","1","no","left","s","776.487657695","368.467083335","24","green","2"
"100","78","20","700.221273401","1","0","3","163","3","left","in","Female","Right-handed","0","1","no","left","s","1064.13611558","273.090669314","24","green","3"
"100","80","20","696.949990635","1","1","3","164","1","left","out","Female","Right-handed","0","1","no","left","s","501.596507569","800.707556245","24","green","0"
"100","81","20","698.440651002","1","1","3","165","1","right","in","Female","Right-handed","0","1","no","right","d","945.336773937","496.264339064","24","red","1"
"100","82","20","694.292901429","1","1","3","166","2","right","out","Female","Right-handed","0","1","no","right","d","679.037515682","576.820300852","24","red","0"
"100","77","20","680.471386302","1","0","3","167","1","left","out","Female","Right-handed","0","1","no","left","d","562.605033392","328.406224904","24","green","0"
"100","78","20","672.821817588","1","1","3","168","0","right","out","Female","Right-handed","0","1","no","right","d","581.147997342","489.111164134","24","green","3"
"100","80","20","669.294690345","1","1","3","169","0","left","in","Female","Right-handed","0","1","no","left","d","715.713252102","488.845293348","24","green","0"
"100","80","20","677.75078599","1","1","3","170","3","right","in","Female","Right-handed","0","1","no","right","s","1173.43145858","520.3139392","24","green","2"
"100","81","20","666.537324713","1","1","3","171","3","right","out","Female","Right-handed","0","1","no","right","s","509.097335005","353.011940773","24","red","3"
"100","82","20","665.866202754","1","1","3","172","2","right","in","Female","Right-handed","0","1","no","right","d","813.545362882","488.657676448","24","green","0"
"100","79","20","666.170758051","1","0","3","173","1","left","out","Female","Right-handed","0","1","no","left","s","826.183686248","520.167373517","24","red","2"
"100","80","20","661.619945248","1","1","3","174","3","right","in","Female","Right-handed","0","1","no","right","s","743.890424034","360.910451895","24","green","3"
"100","80","20","654.171566169","1","1","3","175","1","left","out","Female","Right-handed","0","1","no","left","d","511.441744471","424.482433926","24","red","3"
"100","77","20","658.92855938","1","0","3","176","0","left","in","Female","Right-handed","0","1","no","left","s","693.085691855","872.135073903","24","green","0"
"100","78","20","658.204663418","1","1","3","177","2","left","in","Female","Right-handed","0","1","no","left","d","388.617459081","888.701485798","24","red","3"
"100","79","20","658.6403792","1","1","3","178","1","right","in","Female","Right-handed","0","1","no","right","d","957.24836244","384.432479721","24","green","2"
"100","80","20","657.465035907","1","1","3","179","1","right","out","Female","Right-handed","0","1","no","right","s","541.784688921","704.975471897","24","red","0"
"100","80","20","657.513869063","1","1","3","180","1","right","out","Female","Right-handed","0","1","no","right","s","525.545403929","792.412323575","24","green","3"
"100","81","20","660.438542276","1","1","3","181","2","left","in","Female","Right-handed","0","1","no","left","s","854.101722354","648.105101383","24","red","2"
"100","81","20","660.415826496","1","1","3","182","2","left","in","Female","Right-handed","0","1","no","left","d","806.595519774","512.782323345","24","red","0"
"100","82","20","655.515294484","1","1","3","183","3","left","in","Female","Right-handed","0","1","no","left","d","475.242266333","512.353209822","24","red","0"
"100","82","20","650.683159177","1","1","3","184","3","right","in","Female","Right-handed","0","1","no","right","s","532.98337169","439.797745774","24","red","0"
"97","83","20","646.679408936","0","1","3","185","2","right","out","Female","Right-handed","0","1","no","left","s","489.553106167","523.543194864","24","red","0"
"97","83","20","641.2202936","1","1","3","186","0","left","out","Female","Right-handed","0","1","no","left","s","561.178182816","328.20610021","24","red","0"
"97","84","20","641.326907062","1","1","3","187","2","left","in","Female","Right-handed","0","1","no","left","d","866.71470942","423.828500836","24","green","3"
"97","84","20","648.519573142","1","1","3","188","1","right","out","Female","Right-handed","0","1","no","right","d","731.437472579","1112.2442958","24","red","0"
"97","85","20","652.857056608","1","1","3","189","3","right","out","Female","Right-handed","0","1","no","right","d","1051.98142689","592.056396679","24","red","2"
"97","85","20","655.349781105","1","1","3","190","3","right","in","Female","Right-handed","0","1","no","right","s","965.551292215","544.566229728","24","red","0"
"97","85","20","652.452124626","1","1","3","191","0","left","out","Female","Right-handed","0","1","no","left","d","531.184173731","536.112244295","24","red","0"
"97","86","20","654.658040212","1","1","3","192","1","right","in","Female","Right-handed","0","1","no","right","s","853.722640004","640.890349627","24","green","3"
"97","86","20","654.871019431","1","1","3","193","2","left","in","Female","Right-handed","0","1","no","left","s","679.507039","648.551212678","24","green","0"
"97","84","20","659.863396367","1","0","3","194","0","left","out","Female","Right-handed","0","1","no","left","s","959.042429","800.013534073","24","green","2"
"97","84","20","659.378140543","1","1","3","195","2","left","out","Female","Right-handed","0","1","no","left","d","842.537144938","432.546112065","24","red","1"
"97","82","20","657.374563551","1","0","3","196","2","left","in","Female","Right-handed","0","1","no","left","s","610.195904115","520.224139655","24","green","3"
"97","81","20","666.015777004","1","0","3","197","0","right","in","Female","Right-handed","0","1","no","right","d","1536.64847585","607.657142784","24","red","3"
"97","79","20","664.552270349","1","0","3","198","0","left","out","Female","Right-handed","0","1","no","left","s","780.334926636","408.272975212","24","red","0"
"98","80","20","663.741279823","1","1","3","199","2","right","out","Female","Right-handed","0","1","no","right","s","696.017005466","551.988482566","24","green","2"
"98","80","20","663.611168084","1","1","3","200","0","right","out","Female","Right-handed","0","1","no","right","s","953.550224883","360.660937458","24","red","1"
"98","80","20","661.458080463","1","1","3","201","0","left","out","Female","Right-handed","0","1","no","left","d","662.976226213","440.324997369","24","green","1"
"98","81","20","658.615323863","1","1","3","202","2","left","in","Female","Right-handed","0","1","no","left","d","653.779470282","367.804491005","24","green","3"
"98","81","20","654.000803587","1","1","3","203","3","left","in","Female","Right-handed","0","1","no","left","s","410.471781135","408.390676756","24","green","2"
"98","81","20","651.774100739","1","1","3","204","2","left","in","Female","Right-handed","0","1","no","left","d","471.117901667","591.94639224","24","red","2"
"98","80","20","653.199392735","1","0","3","205","3","right","in","Female","Right-handed","0","1","no","right","d","663.502194959","799.678710067","24","red","0"
"98","80","20","653.369174716","1","1","3","206","1","right","out","Female","Right-handed","0","1","no","right","s","541.343067605","784.410863693","24","red","3"
"98","81","20","650.359459713","1","1","3","207","3","right","in","Female","Right-handed","0","1","no","right","s","421.754131421","535.857277737","24","green","0"
"98","79","20","652.244390061","1","0","3","208","2","right","out","Female","Right-handed","0","1","no","right","d","867.538940933","655.601759558","24","green","1"
"96","80","20","648.160087567","0","1","3","209","3","left","in","Female","Right-handed","0","1","no","right","s","459.106892242","355.265588558","24","red","0"
"96","80","20","648.32441626","1","1","3","210","1","right","out","Female","Right-handed","0","1","no","right","d","860.674086675","455.694188942","24","green","1"
"96","79","20","645.874697506","1","0","3","211","3","left","out","Female","Right-handed","0","1","no","left","s","568.391972436","424.491734593","24","red","1"
"96","77","20","647.281154953","1","0","3","212","0","left","in","Female","Right-handed","0","1","no","left","d","724.909687317","744.053346058","24","red","3"
"96","78","20","647.855003145","1","1","3","213","0","left","out","Female","Right-handed","0","1","no","left","s","792.531307969","575.48357053","24","green","2"
"100","100","20","634.645112212","1","1","4","214","1","right","out","Female","Right-handed","0","1","no","right","s","701.150652843","568.13957158","24","green","0"
"100","100","20","609.794933126","1","1","4","215","1","right","out","Female","Right-handed","0","1","no","right","d","737.003440605","432.886067476","24","green","2"
"100","100","20","599.336627266","1","1","4","216","2","left","in","Female","Right-handed","0","1","no","left","s","724.396226364","432.443804729","24","red","0"
"100","100","20","620.397051881","1","1","4","217","3","right","out","Female","Right-handed","0","1","no","right","s","655.081884353","712.074767096","24","red","0"
"100","100","20","591.559356214","1","1","4","218","2","right","in","Female","Right-handed","0","1","no","right","d","503.759072959","448.658074132","24","red","0"
"100","100","20","592.930846442","1","1","4","219","0","left","out","Female","Right-handed","0","1","no","left","s","527.204771177","672.371823985","24","green","0"
"100","85","20","593.143039857","1","0","4","220","0","left","in","Female","Right-handed","0","1","no","left","d","555.891555508","632.940845197","24","red","1"
"100","87","20","589.429299057","1","1","4","221","3","right","out","Female","Right-handed","0","1","no","right","d","686.440525766","440.425701141","24","red","1"
"88","88","20","583.064362325","0","1","4","222","3","left","out","Female","Right-handed","0","1","no","right","s","621.1841609","443.10557604","24","green","2"
"90","90","20","579.480836778","1","1","4","223","2","left","in","Female","Right-handed","0","1","no","left","s","605.662310107","488.795903598","24","green","0"
"90","90","20","575.699964104","1","1","4","224","3","right","out","Female","Right-handed","0","1","no","right","d","523.375782861","552.406691862","24","red","0"
"83","83","20","566.683669782","0","0","4","225","2","right","in","Female","Right-handed","0","1","no","left","s","460.056201686","474.952662814","24","red","1"
"84","84","20","579.097915743","1","1","4","226","1","left","in","Female","Right-handed","0","1","no","left","d","911.674132858","544.46360168","24","green","3"
"85","85","20","589.922466343","1","1","4","227","0","right","in","Female","Right-handed","0","1","no","right","s","981.153641882","480.129606396","24","green","2"
"86","86","20","588.453200755","1","1","4","228","1","right","out","Female","Right-handed","0","1","no","right","d","670.884679428","464.882285628","24","green","0"
"87","87","20","592.75919836","1","1","4","229","1","left","out","Female","Right-handed","0","1","no","left","d","754.388952603","560.30937225","24","green","2"
"88","82","20","597.806123619","1","0","4","230","0","left","out","Female","Right-handed","0","1","no","left","s","645.121832324","711.992023233","24","red","0"
"88","83","20","609.071815188","1","1","4","231","0","left","out","Female","Right-handed","0","1","no","left","d","1032.60108221","568.576061494","24","red","1"
"89","78","20","610.838460347","1","0","4","232","3","left","out","Female","Right-handed","0","1","no","left","s","589.152664354","696.123482067","24","red","3"
"90","80","20","609.233445455","1","1","4","233","2","right","in","Female","Right-handed","0","1","no","right","s","676.741533829","480.734791163","24","green","2"
"90","80","20","602.053674286","1","1","4","234","3","right","out","Female","Right-handed","0","1","no","right","s","572.479134437","344.437367384","24","green","3"
"90","77","20","604.481970935","1","0","4","235","0","left","out","Female","Right-handed","0","1","no","left","s","574.933227628","736.019173488","24","red","3"
"91","78","20","597.401888702","1","1","4","236","1","left","in","Female","Right-handed","0","1","no","left","s","466.606116119","416.674043059","24","green","3"
"91","79","20","594.982806061","1","1","4","237","2","left","out","Female","Right-handed","0","1","no","left","s","462.225822754","616.461987854","24","red","3"
"92","80","20","594.658697599","1","1","4","238","2","right","in","Female","Right-handed","0","1","no","right","s","821.857272607","351.902916431","24","green","2"
"92","76","20","587.651192577","1","0","4","239","3","right","out","Female","Right-handed","0","1","no","right","s","472.520698793","352.406435293","24","red","3"
"92","77","20","585.96470935","1","1","4","240","2","left","in","Female","Right-handed","0","1","no","left","s","652.165644235","432.066646656","24","red","3"
"89","78","20","582.063053527","0","1","4","241","3","left","out","Female","Right-handed","0","1","no","right","s","478.816929524","474.619763085","24","green","1"
"89","79","20","579.400666357","1","1","4","242","3","left","in","Female","Right-handed","0","1","no","left","s","513.284238641","496.423412536","24","red","2"
"90","80","20","584.119506941","1","1","4","243","1","right","out","Female","Right-handed","0","1","no","right","d","921.931164801","520.000602941","24","green","0"
"90","80","20","583.989511414","1","1","4","244","2","right","out","Female","Right-handed","0","1","no","right","s","623.596240734","536.583050463","24","red","1"
"90","81","20","583.542262591","1","1","4","245","3","right","out","Female","Right-handed","0","1","no","right","d","699.183080742","440.172017436","24","red","2"
"90","81","20","586.7646817","1","1","4","246","1","left","in","Female","Right-handed","0","1","no","left","d","907.883630058","471.880556346","24","red","3"
"91","82","20","589.007117406","1","1","4","247","2","left","in","Female","Right-handed","0","1","no","left","d","805.460196992","520.554794399","24","green","0"
"91","82","20","597.395776636","1","1","4","248","0","right","in","Female","Right-handed","0","1","no","right","s","1189.06587951","576.154501396","24","red","0"
"91","83","20","592.696810841","1","1","4","249","0","right","out","Female","Right-handed","0","1","no","right","s","464.805635307","391.660380701","24","green","3"
"91","83","20","597.725465153","1","1","4","250","0","left","out","Female","Right-handed","0","1","no","left","s","821.257539956","736.256500844","24","green","2"
"92","81","20","592.493650396","1","0","4","251","2","left","out","Female","Right-handed","0","1","no","left","s","445.954145791","351.878862984","24","green","3"
"92","82","20","594.19918068","1","1","4","252","1","left","out","Female","Right-handed","0","1","no","left","d","902.487639734","415.531023176","24","green","1"
"92","82","20","595.637574341","1","1","4","253","2","right","in","Female","Right-handed","0","1","no","right","s","735.229899656","568.239954638","24","green","2"
"92","82","20","594.442807767","1","1","4","254","2","right","in","Female","Right-handed","0","1","no","right","s","637.51516971","455.789119889","24","red","0"
"92","83","20","594.238590449","1","1","4","255","0","left","out","Female","Right-handed","0","1","no","left","d","651.330187782","520.401173038","24","red","2"
"93","83","20","594.105813903","1","1","4","256","1","left","in","Female","Right-handed","0","1","no","left","s","608.939993381","568.118404546","24","green","0"
"93","84","20","592.752856996","1","1","4","257","3","right","out","Female","Right-handed","0","1","no","right","d","509.563330485","559.588089502","24","green","2"
"93","84","20","593.518596915","1","1","4","258","1","right","in","Female","Right-handed","0","1","no","right","d","558.161559639","696.260747081","24","red","0"
"93","84","20","591.862407358","1","1","4","259","2","left","out","Female","Right-handed","0","1","no","left","d","506.859722853","527.808031671","24","green","0"
"93","85","20","589.811285308","1","1","4","260","0","right","in","Female","Right-handed","0","1","no","right","s","495.466726701","495.452615349","24","green","2"
"93","83","20","587.972268084","1","0","4","261","0","right","in","Female","Right-handed","0","1","no","right","d","531.037608045","472.039309108","24","green","3"
"93","81","20","592.867766955","1","0","4","262","1","left","in","Female","Right-handed","0","1","no","left","s","703.840469832","951.862955637","24","red","2"
"94","82","20","590.888245753","1","1","4","263","1","right","in","Female","Right-handed","0","1","no","right","d","547.453284995","440.330128775","24","red","1"
"94","82","20","588.350008631","1","1","4","264","3","right","in","Female","Right-handed","0","1","no","right","s","546.89941425","375.976890729","24","green","0"
"94","80","20","588.001022235","1","0","4","265","0","right","out","Female","Right-handed","0","1","no","right","s","412.651665014","727.753767089","24","green","3"
"94","81","20","586.900217727","1","1","4","266","3","right","in","Female","Right-handed","0","1","no","right","d","451.162198497","608.154568101","24","red","3"
"94","79","20","585.018197236","1","0","4","267","1","left","in","Female","Right-handed","0","1","no","left","s","466.769038143","503.773184319","24","red","3"
"94","78","20","583.025323821","1","0","4","268","0","left","out","Female","Right-handed","0","1","no","left","d","479.325900498","471.494418318","24","red","0"
"94","78","20","581.158887255","1","1","4","269","1","left","in","Female","Right-handed","0","1","no","left","s","548.867627778","408.142124452","24","green","0"
"94","77","20","578.686575585","1","0","4","270","3","right","in","Female","Right-handed","0","1","no","right","s","448.674430481","431.799813731","24","green","0"
"94","75","20","577.654925111","1","0","4","271","3","right","out","Female","Right-handed","0","1","no","right","d","582.30865642","455.393039767","24","red","0"
"94","76","20","576.608475585","1","1","4","272","3","left","in","Female","Right-handed","0","1","no","left","d","487.951146482","543.877659671","24","green","0"
"95","76","20","576.824740052","1","1","4","273","2","left","out","Female","Right-handed","0","1","no","left","d","515.574768382","663.593918776","24","red","3"
"95","77","20","579.01868617","1","1","4","274","0","left","in","Female","Right-handed","0","1","no","left","s","741.101186126","680.209720416","24","green","0"
"95","77","20","579.425597128","1","1","4","275","0","right","out","Female","Right-handed","0","1","no","right","d","712.80887835","495.685452734","24","red","0"
"95","77","20","582.471578445","1","1","4","276","1","right","in","Female","Right-handed","0","1","no","right","s","1095.31996859","447.324871649","24","red","2"
"95","78","20","583.837593841","1","1","4","277","2","left","in","Female","Right-handed","0","1","no","left","s","763.957414492","575.835713021","24","red","2"
"100","100","20","524.107649126","1","1","5","278","0","right","in","Female","Right-handed","0","1","no","right","d","583.59054488","464.624753371","24","green","0"
"100","100","20","619.161346044","1","1","5","279","3","left","in","Female","Right-handed","0","1","no","left","d","708.205048271","720.225037654","24","red","2"
"100","100","20","581.548353633","1","1","5","280","1","right","out","Female","Right-handed","0","1","no","right","s","588.884869292","423.759868328","24","red","0"
"75","100","20","602.765513192","0","1","5","281","0","left","in","Female","Right-handed","0","1","no","right","s","834.429208455","498.404775284","24","red","1"
"80","80","20","629.720248771","1","0","5","282","3","left","out","Female","Right-handed","0","1","no","left","s","675.033738972","800.044643198","24","green","0"
"83","83","20","635.146225726","1","1","5","283","1","left","out","Female","Right-handed","0","1","no","left","d","755.748132811","568.80408819","24","green","3"
"85","85","20","662.500197009","1","1","5","284","0","right","in","Female","Right-handed","0","1","no","right","d","1085.19474955","568.053299878","24","red","2"
"87","87","20","645.220511595","1","1","5","285","0","right","in","Female","Right-handed","0","1","no","right","s","512.867953625","535.65747376","24","red","3"
"88","88","20","631.471464557","1","1","5","286","0","right","out","Female","Right-handed","0","1","no","right","d","570.537540058","472.420636448","24","red","0"
"90","90","20","623.68320197","1","1","5","287","0","left","in","Female","Right-handed","0","1","no","left","d","627.095857162","480.081820213","24","green","2"
"90","90","20","615.31749561","1","1","5","288","3","left","in","Female","Right-handed","0","1","no","left","s","535.771006038","527.54985799","24","green","2"
"91","83","20","600.113219584","1","0","5","289","0","left","out","Female","Right-handed","0","1","no","left","d","465.30690918","400.425457399","24","red","2"
"92","76","20","588.443346654","1","0","5","290","2","left","in","Female","Right-handed","0","1","no","left","s","624.827456595","271.982286398","24","green","2"
"92","71","20","590.559252762","1","0","5","291","2","left","in","Female","Right-handed","0","1","no","left","s","716.499639522","519.632424821","24","red","0"
"93","73","20","582.595234553","1","1","5","292","3","right","out","Female","Right-handed","0","1","no","right","s","598.113375771","344.08458347","24","red","0"
"93","75","20","572.262743598","1","1","5","293","1","right","in","Female","Right-handed","0","1","no","right","d","474.718221863","359.832536684","24","red","3"
"94","76","20","575.005086126","1","1","5","294","1","left","out","Female","Right-handed","0","1","no","left","d","757.281459984","480.48367316","24","red","0"
"94","77","20","574.171410364","1","1","5","295","0","left","out","Female","Right-handed","0","1","no","left","s","495.965114162","624.032730652","24","green","1"
"94","73","20","576.983543593","1","0","5","296","2","right","out","Female","Right-handed","0","1","no","right","s","847.666302339","407.537581108","24","green","0"
"95","75","20","575.319582138","1","1","5","297","1","right","out","Female","Right-handed","0","1","no","right","d","623.190218521","464.218410445","24","red","1"
"95","76","20","580.751596508","1","1","5","298","1","left","in","Female","Right-handed","0","1","no","left","d","722.862899191","655.920868645","24","green","0"
"95","77","20","575.488038643","1","1","5","299","3","left","out","Female","Right-handed","0","1","no","left","s","538.470444404","391.436202557","24","green","0"
"95","78","20","581.060261517","1","1","5","300","1","right","out","Female","Right-handed","0","1","no","right","s","1087.13089181","320.167437661","24","green","2"
"95","79","20","582.961767685","1","1","5","301","3","left","out","Female","Right-handed","0","1","no","left","s","645.637538259","607.755280857","24","red","1"
"96","80","20","578.813940481","1","1","5","302","3","left","out","Female","Right-handed","0","1","no","left","s","511.226225572","447.305949605","24","red","0"
"96","80","20","580.221174792","1","1","5","303","3","right","out","Female","Right-handed","0","1","no","right","d","686.82987092","543.974194177","24","green","0"
"96","81","20","578.140567927","1","1","5","304","3","right","out","Female","Right-handed","0","1","no","right","d","560.547341032","487.542237857","24","green","0"
"92","82","20","582.801780753","0","1","5","305","0","left","in","Female","Right-handed","0","1","no","right","d","495.22394723","922.085106875","24","red","3"
"93","79","20","580.695084727","1","0","5","306","2","right","out","Female","Right-handed","0","1","no","right","d","587.65589842","455.759293611","24","red","0"
"93","80","20","579.333912968","1","1","5","307","1","right","out","Female","Right-handed","0","1","no","right","s","480.394835758","599.325028157","24","red","0"
"93","80","20","578.032615359","1","1","5","308","3","left","in","Female","Right-handed","0","1","no","left","s","709.942669404","368.044704778","24","green","3"
"93","78","20","576.363961833","1","0","5","309","2","right","in","Female","Right-handed","0","1","no","right","s","609.645561209","439.625843795","24","green","3"
"93","78","20","573.496852857","1","1","5","310","3","right","in","Female","Right-handed","0","1","no","right","s","563.20636961","400.29236165","24","green","3"
"94","79","20","571.067748812","1","1","5","311","3","left","out","Female","Right-handed","0","1","no","left","s","525.938276926","455.876353728","24","green","3"
"94","80","20","569.565208029","1","1","5","312","1","left","out","Female","Right-handed","0","1","no","left","s","509.549539842","527.408103","24","red","2"
"94","77","20","567.678422425","1","0","5","313","2","right","in","Female","Right-handed","0","1","no","right","s","435.178521489","568.10333105","24","red","3"
"94","78","20","572.62661458","1","1","5","314","1","right","in","Female","Right-handed","0","1","no","right","d","941.792899164","559.730165209","24","green","2"
"94","78","20","573.305134083","1","1","5","315","2","left","in","Female","Right-handed","0","1","no","left","d","637.368283315","559.452428049","24","red","3"
"94","79","20","573.858387965","1","1","5","316","2","right","out","Female","Right-handed","0","1","no","right","s","829.838848309","359.925222638","24","green","0"
"95","80","20","572.752690298","1","1","5","317","0","right","in","Female","Right-handed","0","1","no","right","s","563.554342832","495.706619767","24","red","0"
"95","80","20","573.009518846","1","1","5","318","2","left","in","Female","Right-handed","0","1","no","left","d","678.225791969","488.339529504","24","red","1"
"95","80","20","572.817986439","1","1","5","319","1","left","in","Female","Right-handed","0","1","no","left","d","585.923729402","544.006586154","24","red","3"
"95","81","20","578.820585647","1","1","5","320","1","left","out","Female","Right-handed","0","1","no","left","d","726.458729412","935.400775353","24","red","0"
"95","79","20","593.664577457","1","0","5","321","0","right","in","Female","Right-handed","0","1","no","right","s","1935.96619176","527.946258822","24","green","0"
"95","80","20","593.065821924","1","1","5","322","0","right","in","Female","Right-handed","0","1","no","right","d","573.712915997","559.728240929","24","red","3"
"95","80","20","596.685796619","1","1","5","323","0","right","in","Female","Right-handed","0","1","no","right","s","736.159324911","783.009990839","24","green","0"
"95","80","20","596.443592186","1","1","5","324","2","right","out","Female","Right-handed","0","1","no","right","s","802.780001384","367.824375186","24","green","2"
"95","81","20","596.05800858","1","1","5","325","2","right","in","Female","Right-handed","0","1","no","right","s","604.388118751","551.483039431","24","green","3"
"95","79","20","594.129025081","1","0","5","326","1","left","in","Female","Right-handed","0","1","no","left","d","603.090515371","399.985118933","24","green","2"
"96","80","20","594.487404973","1","1","5","327","3","left","out","Female","Right-handed","0","1","no","left","s","736.627565381","487.468473948","24","green","1"
"96","80","20","592.923443325","1","1","5","328","0","left","out","Female","Right-handed","0","1","no","left","s","502.195278084","527.255443776","24","red","3"
"96","80","20","596.122663016","1","1","5","329","0","left","in","Female","Right-handed","0","1","no","left","d","534.792832456","983.772902091","24","green","2"
"96","81","20","594.336581923","1","1","5","330","1","left","out","Female","Right-handed","0","1","no","left","d","555.436143546","447.484586552","24","green","0"
"96","81","20","601.287174872","1","1","5","331","2","right","in","Female","Right-handed","0","1","no","right","d","1116.21760482","823.119597597","24","red","0"
"96","81","20","601.185024492","1","1","5","332","2","right","out","Female","Right-handed","0","1","no","right","d","631.571722897","559.766085022","24","red","1"
"96","82","20","599.830428341","1","1","5","333","2","right","out","Female","Right-handed","0","1","no","right","s","683.288882559","367.366397524","24","green","2"
"96","82","20","603.375423549","1","1","5","334","3","left","in","Female","Right-handed","0","1","no","left","s","1155.86506464","447.925245731","24","red","3"
"96","82","20","601.405314169","1","1","5","335","0","left","out","Female","Right-handed","0","1","no","left","s","514.600443352","463.617715653","24","red","0"
"96","83","20","601.468780222","1","1","5","336","1","left","in","Female","Right-handed","0","1","no","left","s","859.198808488","351.100814096","24","green","1"
"96","83","20","597.748586513","1","1","5","337","3","left","out","Female","Right-handed","0","1","no","left","s","444.758208319","311.75610701","24","green","2"
"96","83","20","605.494661512","1","1","5","338","3","right","in","Female","Right-handed","0","1","no","right","d","1701.26129871","439.257024249","24","red","2"
"96","83","20","604.470466896","1","1","5","339","1","right","in","Female","Right-handed","0","1","no","right","s","516.968264841","567.020925857","24","green","3"
"96","84","20","601.790837543","1","1","5","340","2","right","out","Female","Right-handed","0","1","no","right","s","431.615724668","439.6919106","24","red","2"
"96","84","20","599.735683167","1","1","5","341","2","right","out","Female","Right-handed","0","1","no","right","d","533.176119993","407.345794945","24","green","0"
"100","100","20","460.215435516","1","1","6","342","3","left","out","Female","Right-handed","0","1","no","left","s","584.683854301","335.747016732","24","red","0"
"100","100","20","618.218370679","1","1","6","343","1","left","out","Female","Right-handed","0","1","no","left","d","1104.24892946","448.193682219","24","red","2"
"100","100","20","615.923404413","1","1","6","344","1","left","out","Female","Right-handed","0","1","no","left","s","510.877290209","711.789653553","24","green","2"
"100","100","20","572.67224354","1","1","6","345","3","right","out","Female","Right-handed","0","1","no","right","s","454.411017636","431.426504208","24","green","3"
"100","100","20","574.658056174","1","1","6","346","3","right","in","Female","Right-handed","0","1","no","right","d","445.094956602","720.10765682","24","red","3"
"100","100","20","588.665956182","1","1","6","347","3","left","in","Female","Right-handed","0","1","no","left","d","725.627442229","591.783470216","24","red","0"
"85","85","20","583.115821434","0","0","6","348","2","right","out","Female","Right-handed","0","1","no","left","s","768.311409418","331.31861647","24","green","0"
"87","87","20","579.657465261","1","1","6","349","2","left","in","Female","Right-handed","0","1","no","left","s","694.893228345","416.00471576","24","red","2"
"88","88","20","596.090498554","1","1","6","350","1","left","in","Female","Right-handed","0","1","no","left","s","935.602182897","519.507346886","24","green","1"
"90","90","20","593.302429463","1","1","6","351","0","left","in","Female","Right-handed","0","1","no","left","d","664.176974369","472.242640928","24","green","0"
"90","90","20","601.748682805","1","1","6","352","3","right","out","Female","Right-handed","0","1","no","right","s","740.596063701","631.826368739","24","green","2"
"91","91","20","596.881692204","1","1","6","353","2","right","in","Female","Right-handed","0","1","no","right","d","591.299835538","495.389755666","24","green","3"
"92","92","20","597.202428496","1","1","6","354","0","left","out","Female","Right-handed","0","1","no","left","d","546.072296326","656.030231658","24","green","2"
"92","92","20","585.51814244","1","1","6","355","0","left","in","Female","Right-handed","0","1","no","left","s","475.590239559","391.654607869","24","green","2"
"93","93","20","589.895338634","1","1","6","356","1","left","out","Female","Right-handed","0","1","no","left","d","806.197836089","496.154334625","24","red","2"
"93","93","20","603.08388063","1","1","6","357","3","right","in","Female","Right-handed","0","1","no","right","s","801.859235369","799.96478575","24","green","0"
"94","94","20","603.899833743","1","1","6","358","2","left","out","Female","Right-handed","0","1","no","left","d","626.467901795","607.442265311","24","green","1"
"94","94","20","618.684624508","1","1","6","359","3","right","in","Female","Right-handed","0","1","no","right","d","915.965588815","824.086546232","24","red","1"
"94","94","20","635.41348064","1","1","6","360","1","left","in","Female","Right-handed","0","1","no","left","d","1129.36329559","743.70248642","24","green","3"
"95","95","20","633.026603756","1","1","6","361","2","right","in","Female","Right-handed","0","1","no","right","d","688.20765246","487.144233459","24","green","0"
"95","95","20","627.707837985","1","1","6","362","1","right","in","Female","Right-handed","0","1","no","right","s","626.792462997","415.872582147","24","green","0"
"95","95","20","639.220500909","1","1","6","363","0","right","in","Female","Right-handed","0","1","no","right","s","1178.47787211","583.494972507","24","red","2"
"95","95","20","647.581140579","1","1","6","364","1","left","in","Female","Right-handed","0","1","no","left","s","1207.05112416","455.979302489","24","red","1"
"95","95","20","644.624006112","1","1","6","365","1","right","in","Female","Right-handed","0","1","no","right","d","545.660501284","607.559325428","24","red","3"
"96","96","20","641.585135097","1","1","6","366","3","right","out","Female","Right-handed","0","1","no","right","d","522.183373232","615.121088267","24","red","3"
"96","96","20","641.770872374","1","1","6","367","1","right","out","Female","Right-handed","0","1","no","right","s","572.908889386","719.91971921","24","red","3"
"96","96","20","645.795649597","1","1","6","368","0","left","out","Female","Right-handed","0","1","no","left","s","1077.5492807","423.330434092","24","red","0"
"96","96","20","641.023067395","1","1","6","369","0","right","out","Female","Right-handed","0","1","no","right","s","553.123484635","471.203211229","24","red","3"
"96","96","20","643.221178572","1","1","6","370","1","right","in","Female","Right-handed","0","1","no","right","s","761.699276729","647.837306322","24","green","0"
"96","96","20","638.540546845","1","1","6","371","0","right","in","Female","Right-handed","0","1","no","right","s","430.299199244","575.305254301","24","green","0"
"96","96","20","635.393510696","1","1","6","372","2","left","in","Female","Right-handed","0","1","no","left","d","577.99058131","503.974271149","24","red","3"
"96","96","20","633.070743839","1","1","6","373","2","left","in","Female","Right-handed","0","1","no","left","d","618.61749757","503.512444935","24","red","0"
"96","93","20","631.31586223","1","0","6","374","1","right","out","Female","Right-handed","0","1","no","right","s","695.094315179","455.224986337","24","green","0"
"97","94","20","631.431363947","1","1","6","375","1","right","out","Female","Right-handed","0","1","no","right","s","887.719142952","382.766698225","24","red","2"
"97","94","20","628.270274812","1","1","6","376","3","left","out","Female","Right-handed","0","1","no","left","d","546.135476721","495.451011786","24","red","3"
"94","94","20","624.180325284","0","1","6","377","2","right","in","Female","Right-handed","0","1","no","left","s","608.013133824","354.051049755","24","green","2"
"94","94","20","626.382154501","1","1","6","378","0","left","in","Female","Right-handed","0","1","no","left","s","707.728148562","703.567864079","24","green","0"
"94","92","20","626.696046646","1","0","6","379","1","right","out","Female","Right-handed","0","1","no","right","s","837.303755929","439.316356089","24","green","0"
"94","92","20","635.788506257","1","1","6","380","3","left","in","Female","Right-handed","0","1","no","left","s","1314.78203085","647.821912116","24","green","2"
"95","92","20","633.094630918","1","1","6","381","0","right","in","Female","Right-handed","0","1","no","right","d","520.556397962","535.510587368","24","red","3"
"95","92","20","630.666390197","1","1","6","382","2","right","out","Female","Right-handed","0","1","no","right","d","627.965309155","439.108213581","24","red","2"
"95","92","20","626.072684543","1","1","6","383","1","right","in","Female","Right-handed","0","1","no","right","s","483.807218341","391.654287159","24","red","0"
"95","93","20","624.824204718","1","1","6","384","1","right","out","Female","Right-handed","0","1","no","right","s","601.360912056","543.415192031","24","red","3"
"95","90","20","628.181822993","1","0","6","385","0","right","in","Female","Right-handed","0","1","no","right","d","434.089702045","1111.02911557","24","green","3"
"95","91","20","626.589056344","1","1","6","386","0","right","out","Female","Right-handed","0","1","no","right","s","697.577272505","415.437375083","24","green","1"
"95","91","20","630.611767187","1","1","6","387","3","left","in","Female","Right-handed","0","1","no","left","s","928.152990196","695.114520073","24","green","0"
"95","91","20","628.347786283","1","1","6","388","0","left","out","Female","Right-handed","0","1","no","left","s","576.693940071","471.715389332","24","green","1"
"95","91","20","629.088197636","1","1","6","389","0","left","in","Female","Right-handed","0","1","no","left","s","808.32063311","519.454429301","24","red","2"
"95","91","20","629.913386509","1","1","6","390","2","left","out","Female","Right-handed","0","1","no","left","d","748.069951278","590.974953626","24","green","3"
"96","92","20","628.606311112","1","1","6","391","2","left","out","Female","Right-handed","0","1","no","left","s","529.626472391","599.492760874","24","red","1"
"96","90","20","626.363113654","1","0","6","392","2","left","in","Female","Right-handed","0","1","no","left","s","677.145631765","351.260849708","24","green","0"
"96","88","20","627.609577151","1","0","6","393","1","right","in","Female","Right-handed","0","1","no","right","s","799.666843701","582.691587322","24","red","0"
"96","88","20","623.935073649","1","1","6","394","2","right","out","Female","Right-handed","0","1","no","right","s","482.350541493","383.371241569","24","green","0"
"96","88","20","625.991601938","1","1","6","395","2","left","out","Female","Right-handed","0","1","no","left","d","958.968023668","511.007178833","24","red","2"
"96","89","20","624.274734584","1","1","6","396","0","right","out","Female","Right-handed","0","1","no","right","d","639.606536894","423.521258119","24","red","0"
"96","89","20","622.676574305","1","1","6","397","3","right","in","Female","Right-handed","0","1","no","right","d","638.308292091","431.247225835","24","red","1"
"96","89","20","621.373021265","1","1","6","398","2","left","out","Female","Right-handed","0","1","no","left","s","649.929635645","446.818466378","24","green","3"
"96","89","20","622.37481767","1","1","6","399","0","right","out","Female","Right-handed","0","1","no","right","d","687.393683758","671.560741692","24","green","0"
"96","88","20","623.903304071","1","0","6","400","3","left","out","Female","Right-handed","0","1","no","left","s","801.998745373","623.112285346","24","green","2"
"96","88","20","625.892882724","1","1","6","401","3","left","in","Female","Right-handed","0","1","no","left","d","623.665514664","862.890531793","24","red","0"
"96","88","20","626.80890872","1","1","6","402","3","right","out","Female","Right-handed","0","1","no","right","d","788.266471162","575.274465885","24","red","2"
"96","88","20","626.383518159","1","1","6","403","2","left","in","Female","Right-handed","0","1","no","left","d","601.957116869","598.912270979","24","red","0"
"96","87","20","624.576834932","1","0","6","404","0","left","out","Female","Right-handed","0","1","no","left","d","514.568692801","510.556256846","24","green","3"
"96","87","20","623.240322356","1","1","6","405","3","left","out","Female","Right-handed","0","1","no","left","s","694.992649267","383.087410875","24","red","0"
"100","100","20","553.886460026","1","1","7","406","1","right","out","Female","Right-handed","0","1","no","right","s","547.824349531","559.948570521","24","red","0"
"100","100","20","520.217324514","1","1","7","407","3","right","in","Female","Right-handed","0","1","no","right","d","549.553952849","423.542425153","24","green","3"
"100","100","20","493.361034355","1","1","7","408","2","right","in","Female","Right-handed","0","1","no","right","d","392.168068822","487.128839253","24","green","3"
"100","100","20","560.491176233","1","1","7","409","3","right","out","Female","Right-handed","0","1","no","right","s","1059.94375983","463.81944391","24","green","1"
"100","100","20","589.50022065","1","1","7","410","0","right","out","Female","Right-handed","0","1","no","right","d","563.583206971","847.489589665","24","red","1"
"100","100","20","573.268060826","1","1","7","411","3","left","out","Female","Right-handed","0","1","no","left","s","537.100359968","447.114163442","24","red","2"
"100","100","20","565.839008115","1","1","7","412","1","left","in","Female","Right-handed","0","1","no","left","s","602.775254836","439.754128857","24","green","0"
"100","100","20","586.642867383","1","1","7","413","0","right","in","Female","Right-handed","0","1","no","right","d","777.260575181","687.27918934","24","green","2"
"100","100","20","579.008024373","1","1","7","414","3","right","in","Female","Right-handed","0","1","no","right","s","524.876397347","510.982163247","24","red","3"
"100","100","20","584.763840034","1","1","7","415","1","left","in","Female","Right-handed","0","1","no","left","s","809.591617341","463.540744619","24","red","3"
"90","100","20","579.831573963","0","1","7","416","2","right","out","Female","Right-handed","0","1","no","left","s","659.009652169","402.008174326","24","red","2"
"91","100","20","580.115917311","1","1","7","417","3","right","out","Female","Right-handed","0","1","no","right","d","550.789658682","615.697729609","24","green","0"
"92","100","20","587.215004872","1","1","7","418","1","left","in","Female","Right-handed","0","1","no","left","d","865.429613834","479.37849737","24","green","2"
"92","100","20","581.313164356","1","1","7","419","0","right","out","Female","Right-handed","0","1","no","right","d","482.076332173","527.102143133","24","green","3"
"93","93","20","570.130972632","1","0","7","420","2","right","out","Female","Right-handed","0","1","no","right","s","443.508070413","383.652506563","24","red","0"
"93","93","20","565.760495081","1","1","7","421","2","right","out","Female","Right-handed","0","1","no","right","s","625.208783935","375.197879705","24","red","0"
"94","94","20","562.442979178","1","1","7","422","0","right","out","Female","Right-handed","0","1","no","right","d","450.846617252","567.878832193","24","green","0"
"94","88","20","567.718992575","1","0","7","423","0","left","out","Female","Right-handed","0","1","no","left","d","627.432284731","687.390155919","24","red","1"
"94","84","20","566.108658728","1","0","7","424","2","right","in","Female","Right-handed","0","1","no","right","s","747.147260983","327.098038008","24","red","2"
"95","85","20","560.714985555","1","1","7","425","3","left","out","Female","Right-handed","0","1","no","left","s","548.775903961","367.694486565","24","red","3"
"95","85","20","564.48101149","1","1","7","426","0","left","in","Female","Right-handed","0","1","no","left","s","744.307991903","535.295068468","24","green","2"
"95","86","20","566.525752818","1","1","7","427","2","left","out","Female","Right-handed","0","1","no","left","s","691.987571743","526.943069657","24","red","0"
"95","82","20","571.419095465","1","0","7","428","3","left","out","Female","Right-handed","0","1","no","left","s","534.49072114","823.654546297","24","green","0"
"95","83","20","577.307282967","1","1","7","429","2","left","in","Female","Right-handed","0","1","no","left","s","730.30343265","695.167758374","24","red","3"
"96","84","20","576.524411364","1","1","7","430","0","left","out","Female","Right-handed","0","1","no","left","d","460.768504476","654.70248129","24","green","3"
"96","84","20","574.285332567","1","1","7","431","0","left","in","Female","Right-handed","0","1","no","left","d","645.182767723","391.433957567","24","red","0"
"96","85","20","571.311704757","1","1","7","432","0","right","in","Female","Right-handed","0","1","no","right","s","636.955846847","351.038916553","24","green","3"
"96","82","20","567.095147929","1","0","7","433","0","right","out","Female","Right-handed","0","1","no","right","s","547.646674724","358.849552413","24","green","2"
"96","82","20","568.11939433","1","1","7","434","2","right","out","Female","Right-handed","0","1","no","right","s","834.282001349","359.314585756","24","red","2"
"96","80","20","564.130364133","1","0","7","435","3","right","in","Female","Right-handed","0","1","no","right","s","609.901810614","286.995166222","24","red","0"
"96","80","20","563.636828058","1","1","7","436","0","right","out","Female","Right-handed","0","1","no","right","s","754.250725451","343.410766196","24","green","0"
"96","81","20","571.616667966","1","1","7","437","2","left","in","Female","Right-handed","0","1","no","left","d","1206.88724","431.096170177","24","green","1"
"96","81","20","575.406871616","1","1","7","438","3","right","in","Female","Right-handed","0","1","no","right","d","810.612766414","582.774010472","24","red","2"
"97","82","20","571.30013814","1","1","7","439","1","left","out","Female","Right-handed","0","1","no","left","d","560.258378937","311.297487922","24","red","3"
"97","82","20","575.747888153","1","1","7","440","3","right","in","Female","Right-handed","0","1","no","right","d","886.971882479","566.970894688","24","green","1"
"97","83","20","574.577013869","1","1","7","441","3","right","out","Female","Right-handed","0","1","no","right","d","588.596869333","478.595958506","24","green","0"
"97","83","20","574.742212906","1","1","7","442","3","left","in","Female","Right-handed","0","1","no","left","s","714.157795752","447.220960752","24","red","0"
"94","84","20","575.466416625","0","1","7","443","1","right","in","Female","Right-handed","0","1","no","left","d","706.73650505","497.787403434","24","red","2"
"94","84","20","580.591515667","1","1","7","444","0","left","in","Female","Right-handed","0","1","no","left","d","984.268403132","566.422155345","24","red","2"
"95","85","20","578.965764245","1","1","7","445","2","right","out","Female","Right-handed","0","1","no","right","s","623.968267406","407.154650205","24","green","3"
"95","85","20","582.311136075","1","1","7","446","1","left","out","Female","Right-handed","0","1","no","left","s","1097.5412244","334.710794163","24","red","0"
"95","83","20","580.773924217","1","0","7","447","2","left","in","Female","Right-handed","0","1","no","left","s","548.195093354","487.301382654","24","green","2"
"95","83","20","582.761808476","1","1","7","448","1","right","in","Female","Right-handed","0","1","no","right","s","645.778651826","686.727242872","24","red","0"
"95","84","20","585.595549249","1","1","7","449","2","left","in","Female","Right-handed","0","1","no","left","s","872.334877884","542.557927118","24","red","0"
"95","84","20","583.818261549","1","1","7","450","0","left","out","Female","Right-handed","0","1","no","left","d","548.176492019","463.058713507","24","red","0"
"95","84","20","581.891363944","1","1","7","451","0","left","out","Female","Right-handed","0","1","no","left","d","439.606280325","550.755663142","24","green","0"
"93","85","20","581.69615326","0","1","7","452","3","right","in","Female","Right-handed","0","1","no","left","s","768.238928359","377.193995235","24","red","2"
"93","83","20","581.274565252","1","0","7","453","1","left","out","Female","Right-handed","0","1","no","left","d","571.933281506","550.986576251","24","green","1"
"93","83","20","582.441791439","1","1","7","454","1","right","out","Female","Right-handed","0","1","no","right","s","910.504173113","366.433123716","24","red","3"
"94","84","20","583.265518644","1","1","7","455","1","left","in","Female","Right-handed","0","1","no","left","d","608.033018008","639.223285278","24","red","2"
"94","84","20","584.607738497","1","1","7","456","1","right","in","Female","Right-handed","0","1","no","right","s","632.686199347","670.751262965","24","green","3"
"94","84","20","586.823723105","1","1","7","457","3","right","out","Female","Right-handed","0","1","no","right","s","961.251177014","438.426699202","24","red","0"
"94","84","20","586.220936233","1","1","7","458","3","left","in","Female","Right-handed","0","1","no","left","s","718.850783953","390.901253857","24","green","3"
"94","83","20","585.84753639","1","0","7","459","0","left","in","Female","Right-handed","0","1","no","left","s","717.510846502","414.603842906","24","red","0"
"94","83","20","587.161091281","1","1","7","460","1","left","out","Female","Right-handed","0","1","no","left","d","725.161767463","591.024343372","24","green","0"
"94","83","20","589.101356055","1","1","7","461","0","left","in","Female","Right-handed","0","1","no","left","s","552.890967963","838.740869309","24","green","3"
"94","84","20","591.130848105","1","1","7","462","1","right","in","Female","Right-handed","0","1","no","right","d","867.338816235","542.225989528","24","red","1"
"94","84","20","591.861641157","1","1","7","463","1","left","out","Female","Right-handed","0","1","no","left","s","771.989021363","495.04466886","24","green","2"
"94","84","20","593.780811516","1","1","7","464","2","right","in","Female","Right-handed","0","1","no","right","d","755.596115018","654.589269725","24","green","0"
"95","85","20","592.638530225","1","1","7","465","2","left","out","Female","Right-handed","0","1","no","left","s","572.205245829","478.282622247","24","green","3"
"95","85","20","592.772161591","1","1","7","466","3","left","in","Female","Right-handed","0","1","no","left","s","690.711456114","510.868630965","24","green","2"
"95","85","20","591.436570342","1","1","7","467","2","right","in","Female","Right-handed","0","1","no","right","s","613.427404765","406.503603528","24","green","0"
"95","84","20","590.859698153","1","0","7","468","2","left","out","Female","Right-handed","0","1","no","left","s","752.028828218","358.158416657","24","green","1"
"95","84","20","589.629516456","1","1","7","469","1","left","out","Female","Right-handed","0","1","no","left","d","593.592289555","430.663849526","24","red","0"
"100","100","20","496.315172017","1","1","8","470","3","left","in","Female","Right-handed","0","1","no","left","s","593.881251651","398.749092383","24","green","0"
"100","100","20","555.842566651","1","1","8","471","1","left","out","Female","Right-handed","0","1","no","left","s","655.485020154","575.254902415","24","red","3"
"100","100","20","621.09516314","1","1","8","472","1","right","in","Female","Right-handed","0","1","no","right","d","928.225791966","574.97492027","24","red","2"
"100","75","20","608.615031289","1","0","8","473","1","right","out","Female","Right-handed","0","1","no","right","d","527.662428129","614.686843343","24","red","3"
"100","60","20","622.639362474","1","0","8","474","0","right","out","Female","Right-handed","0","1","no","right","s","550.299930466","807.173443966","24","red","0"
"100","66","20","605.764483811","1","1","8","475","3","left","out","Female","Right-handed","0","1","no","left","s","555.853390703","486.926790283","24","red","0"
"100","71","20","579.675468121","1","1","8","476","2","left","in","Female","Right-handed","0","1","no","left","s","462.704326029","383.578421941","24","red","3"
"100","75","20","578.733151361","1","1","8","477","3","right","in","Female","Right-handed","0","1","no","right","s","689.078387302","455.195480776","24","green","0"
"100","77","20","572.517459597","1","1","8","478","3","left","in","Female","Right-handed","0","1","no","left","s","678.787359815","366.796491147","24","red","2"
"100","80","20","571.467654846","1","1","8","479","1","left","in","Female","Right-handed","0","1","no","left","d","516.473725937","607.565098253","24","green","0"
"100","81","20","590.931642839","1","1","8","480","2","right","in","Female","Right-handed","0","1","no","right","d","828.113093543","743.029951995","24","green","2"
"100","83","20","611.031133394","1","1","8","481","0","right","in","Female","Right-handed","0","1","no","right","s","993.664642327","670.586416665","24","red","1"
"100","84","20","606.235078227","1","1","8","482","3","right","in","Female","Right-handed","0","1","no","right","d","594.175345152","503.189487295","24","red","2"
"100","85","20","607.998415404","1","1","8","483","1","left","in","Female","Right-handed","0","1","no","left","d","718.98003115","542.863566272","24","green","2"
"100","86","20","611.336967649","1","1","8","484","0","left","out","Female","Right-handed","0","1","no","left","s","773.622731598","542.530666542","24","red","0"
"100","81","20","612.537026275","1","0","8","485","2","right","out","Female","Right-handed","0","1","no","right","s","630.085219764","630.990591573","24","red","3"
"100","82","20","624.982473997","1","1","8","486","0","left","in","Female","Right-handed","0","1","no","left","d","953.694224863","694.525050225","24","red","1"
"100","83","20","629.296480456","1","1","8","487","2","right","out","Female","Right-handed","0","1","no","right","s","814.101799326","591.167381211","24","red","0"
"100","84","20","627.987590243","1","1","8","488","2","left","in","Female","Right-handed","0","1","no","left","s","761.894270021","446.960862795","24","red","0"
"100","85","20","623.387569049","1","1","8","489","0","right","in","Female","Right-handed","0","1","no","right","s","545.480902201","526.493430523","24","red","3"
"100","85","20","626.493864248","1","1","8","490","0","left","out","Female","Right-handed","0","1","no","left","s","554.140464443","823.099071986","24","green","3"
"100","86","20","622.759734678","1","1","8","491","0","left","in","Female","Right-handed","0","1","no","left","s","657.815638977","430.870388475","24","green","0"
"100","86","20","613.69734721","1","1","8","492","3","left","in","Female","Right-handed","0","1","no","left","d","462.341920734","366.307725071","24","red","0"
"100","87","20","612.211730108","1","1","8","493","2","left","in","Female","Right-handed","0","1","no","left","d","597.015255658","559.06981786","24","green","3"
"100","88","20","608.108116082","1","1","8","494","2","left","out","Female","Right-handed","0","1","no","left","d","612.688803536","406.553955414","24","green","1"
"100","88","20","603.515786513","1","1","8","495","1","right","in","Female","Right-handed","0","1","no","right","d","523.176941017","454.238153518","24","red","0"
"100","88","20","602.526470909","1","1","8","496","0","right","in","Female","Right-handed","0","1","no","right","s","482.806274165","670.802256275","24","green","0"
"100","89","20","597.382105114","1","1","8","497","3","right","in","Female","Right-handed","0","1","no","right","d","510.377619903","406.590837371","24","green","0"
"100","89","20","592.341604225","1","1","8","498","2","right","out","Female","Right-handed","0","1","no","right","d","447.146234707","455.268923972","24","green","0"
"100","90","20","587.856899726","1","1","8","499","1","right","out","Female","Right-handed","0","1","no","right","s","468.767398659","446.833539874","24","green","3"
"100","90","20","589.162347805","1","1","8","500","0","right","out","Female","Right-handed","0","1","no","right","d","522.326731785","734.32484856","24","green","0"
"100","90","20","586.283498837","1","1","8","501","2","right","out","Female","Right-handed","0","1","no","right","s","499.015732879","495.062628765","24","red","2"
"100","87","20","586.020433983","1","0","8","502","1","right","out","Female","Right-handed","0","1","no","right","s","444.623829721","710.580887578","24","red","0"
"100","88","20","592.808038651","1","1","8","503","0","left","out","Female","Right-handed","0","1","no","left","s","1026.23782254","607.36016287","24","red","2"
"100","88","20","593.988461309","1","1","8","504","3","right","in","Female","Right-handed","0","1","no","right","s","813.572944168","454.672719155","24","green","3"
"100","88","20","597.891714332","1","1","8","505","0","left","out","Female","Right-handed","0","1","no","left","d","774.513671338","694.497468936","24","green","2"
"100","89","20","599.110527738","1","1","8","506","3","left","out","Female","Right-handed","0","1","no","left","d","599.04312174","686.932498967","24","green","0"
"100","86","20","596.257306172","1","0","8","507","3","left","in","Female","Right-handed","0","1","no","left","s","622.594334418","358.781882045","24","green","3"
"100","87","20","596.425222507","1","1","8","508","1","left","out","Female","Right-handed","0","1","no","left","d","799.188340425","406.423746077","24","green","0"
"100","87","20","598.173228768","1","1","8","509","0","right","in","Female","Right-handed","0","1","no","right","d","821.846689091","510.844256805","24","green","2"
"100","87","20","597.301632499","1","1","8","510","0","left","out","Female","Right-handed","0","1","no","left","d","534.423692196","590.451871292","24","red","3"
"100","88","20","598.010320105","1","1","8","511","2","left","out","Female","Right-handed","0","1","no","left","d","704.084211444","550.048812463","24","green","1"
"100","88","20","601.726349202","1","1","8","512","1","left","out","Female","Right-handed","0","1","no","left","s","740.778869913","774.820272628","24","green","1"
"100","88","20","600.578624659","1","1","8","513","1","right","out","Female","Right-handed","0","1","no","right","d","552.184437995","550.268500632","24","green","0"
"100","88","20","599.784997803","1","1","8","514","2","right","out","Female","Right-handed","0","1","no","right","s","490.84974741","638.881084881","24","green","0"
"100","89","20","601.183380174","1","1","8","515","3","left","out","Female","Right-handed","0","1","no","left","s","825.588764285","502.632409421","24","red","2"
"100","89","20","601.046016588","1","1","8","516","0","right","in","Female","Right-handed","0","1","no","right","s","631.221504678","558.233078558","24","green","3"
"100","89","20","603.500997496","1","1","8","517","1","left","in","Female","Right-handed","0","1","no","left","d","894.806251071","542.963949334","24","red","0"
"100","89","20","601.742471748","1","1","8","518","0","left","in","Female","Right-handed","0","1","no","left","d","628.235990629","406.430481042","24","red","0"
"100","90","20","601.608203958","1","1","8","519","2","left","out","Female","Right-handed","0","1","no","left","s","591.925225206","598.132939242","24","green","3"
"100","88","20","602.167623849","1","0","8","520","3","right","out","Female","Right-handed","0","1","no","right","s","717.616360962","542.660875879","24","red","1"
"100","88","20","600.572791558","1","1","8","521","3","left","out","Female","Right-handed","0","1","no","left","s","640.289975548","398.182713845","24","red","1"
"100","88","20","604.889891844","1","1","8","522","0","right","in","Female","Right-handed","0","1","no","right","d","1043.95014073","614.808072722","24","green","2"
"100","88","20","601.799204495","1","1","8","523","1","right","out","Female","Right-handed","0","1","no","right","s","429.472722746","446.51282722","24","green","3"
"100","89","20","605.793501988","1","1","8","524","2","left","in","Female","Right-handed","0","1","no","left","d","1004.89311289","638.078020405","24","green","2"
"100","89","20","606.747933877","1","1","8","525","1","left","in","Female","Right-handed","0","1","no","left","s","687.798102404","630.685273132","24","red","1"
"100","89","20","607.548477461","1","1","8","526","1","right","out","Female","Right-handed","0","1","no","right","d","738.365186517","566.39264978","24","green","2"
"100","89","20","611.703013031","1","1","8","527","1","left","in","Female","Right-handed","0","1","no","left","d","875.053559016","821.969522036","24","green","2"
"100","89","20","612.097789918","1","1","8","528","3","right","in","Female","Right-handed","0","1","no","right","s","727.435299432","542.554399279","24","red","2"
"100","90","20","611.699140426","1","1","8","529","2","right","out","Female","Right-handed","0","1","no","right","d","794.207672989","382.149967802","24","green","0"
"100","90","20","610.649320823","1","1","8","530","3","right","in","Female","Right-handed","0","1","no","right","s","512.672318907","582.647970401","24","red","3"
"100","90","20","608.814517143","1","1","8","531","3","right","in","Female","Right-handed","0","1","no","right","s","483.388367621","510.394617671","24","red","3"
"100","90","20","607.499451428","1","1","8","532","2","right","out","Female","Right-handed","0","1","no","right","s","605.952875769","445.977878524","24","red","2"
"100","90","20","607.024642317","1","1","8","533","2","left","out","Female","Right-handed","0","1","no","left","s","739.51718635","414.70615024","24","red","0"
dis_reply=Yes
dis_loc=3
tar_loc=2
