"acc_1","acc_2","age","avg_rt","correct_1","correct_2","count_block_loop","count_trial_sequence","cue_position","detection","dis_shape","gender","hand","high_loc","low_loc","practice","response_keyboard_response_1","response_keyboard_response_2","response_time_keyboard_response_1","response_time_keyboard_response_2","subject_nr","tar_color","tar_position"
"0","0","24","3000.09204509","0","0","0","0","1","right","in","Female","Right-handed","3","0","yes","None","None","3000.10230796","3000.08178222","33","red","1"
"50","0","24","2241.91919467","1","0","0","1","1","right","in","Female","Right-handed","3","0","yes","right","s","1869.83252604","1097.66016247","33","red","3"
"66","33","24","2013.02411314","1","1","0","2","1","left","in","Female","Right-handed","3","0","yes","left","s","1493.28792442","1617.17997573","33","red","1"
"75","50","24","1859.82458675","1","1","0","3","2","left","in","Female","Right-handed","3","0","yes","left","s","1526.70125467","1273.75076049","33","green","2"
"80","60","24","1792.70544256","1","1","0","4","1","right","out","Female","Right-handed","3","0","yes","right","s","1695.32337172","1353.13435986","33","red","2"
"83","66","24","1746.12942908","1","1","0","5","2","right","out","Female","Right-handed","3","0","yes","right","d","1696.76979459","1329.72892881","33","red","0"
"85","71","24","1694.30262877","1","1","0","6","0","right","out","Female","Right-handed","3","0","yes","right","s","1493.4566203","1273.22703355","33","red","1"
"87","75","24","1647.00256524","1","1","0","7","0","left","in","Female","Right-handed","3","0","yes","left","s","1469.96331346","1161.84092748","33","red","3"
"88","77","24","1613.18800543","1","1","0","8","3","right","in","Female","Right-handed","3","0","yes","right","s","1596.13243845","1089.21061553","33","green","3"
"90","80","24","1567.4147709","1","1","0","9","1","left","in","Female","Right-handed","3","0","yes","left","s","1349.03819294","961.873127226","33","green","2"
"90","72","24","1524.28676935","1","0","0","10","3","left","out","Female","Right-handed","3","0","yes","left","s","1168.51018766","1017.5033202","33","red","2"
"91","75","24","1524.92295901","1","1","0","11","0","right","in","Female","Right-handed","3","0","yes","right","d","1542.95635363","1520.88573676","33","green","0"
"92","76","24","1495.89294112","1","1","0","12","0","left","in","Female","Right-handed","3","0","yes","left","d","1245.5391004","1049.52635264","33","green","0"
"92","71","24","1479.72100945","1","0","0","13","3","left","out","Female","Right-handed","3","0","yes","left","d","1177.94112129","1361.03067411","33","red","1"
"93","73","24","1451.8325579","1","1","0","14","3","right","out","Female","Right-handed","3","0","yes","right","d","969.455141167","1153.33333119","33","green","0"
"93","68","24","1458.59528367","1","0","0","15","0","left","out","Female","Right-handed","3","0","yes","left","d","1503.02802693","1617.04431346","33","green","3"
"94","64","24","1429.01124688","1","0","0","16","0","right","in","Female","Right-handed","3","0","yes","right","s","1221.65997389","689.673342555","33","red","2"
"94","66","24","1418.15837265","1","1","0","17","1","left","out","Female","Right-handed","3","0","yes","left","s","1338.19836006","1129.12066149","33","red","3"
"94","68","24","1394.42379933","1","1","0","18","3","right","in","Female","Right-handed","3","0","yes","right","d","1100.67744546","833.725513841","33","green","1"
"95","70","24","1372.58950904","1","1","0","19","2","left","in","Female","Right-handed","3","0","yes","left","d","1010.27922375","905.19676322","33","red","1"
"95","71","24","1368.21420015","1","1","0","20","1","left","in","Female","Right-handed","3","0","yes","left","s","1455.79702871","1105.61901607","33","red","0"
"95","72","24","1351.22108587","1","1","0","21","2","right","out","Female","Right-handed","3","0","yes","right","d","1099.33782056","889.393551135","33","red","1"
"100","100","24","1003.90277601","1","1","1","22","3","right","in","Female","Right-handed","3","0","no","right","d","1093.95109808","913.85445394","33","green","3"
"100","100","24","1220.37454976","1","1","1","23","0","left","out","Female","Right-handed","3","0","no","left","d","2048.33008717","825.362559841","33","green","3"
"100","66","24","1100.39965316","1","0","1","24","1","right","in","Female","Right-handed","3","0","no","right","d","950.904687788","769.995032131","33","green","1"
"100","75","24","1029.68201628","1","1","1","25","3","right","out","Female","Right-handed","3","0","no","right","d","857.438510191","777.619701114","33","red","3"
"100","80","24","959.265108143","1","1","1","26","1","right","out","Female","Right-handed","3","0","no","right","s","842.098730707","513.096220475","33","red","3"
"100","66","24","1005.77641745","1","0","1","27","1","right","in","Female","Right-handed","3","0","no","right","d","1690.86543874","785.800489217","33","red","0"
"100","57","24","979.27308569","1","0","1","28","3","right","in","Female","Right-handed","3","0","no","right","d","871.295305347","769.210884926","33","red","3"
"100","50","24","974.339584488","1","0","1","29","2","right","in","Female","Right-handed","3","0","no","right","s","813.864299878","1065.74585228","33","red","3"
"100","55","24","975.671623596","1","1","1","30","1","left","in","Female","Right-handed","3","0","no","left","d","1243.32456607","729.331306844","33","red","3"
"100","50","24","954.390390492","1","0","1","31","1","right","out","Female","Right-handed","3","0","no","right","d","812.818128843","712.900456281","33","green","3"
"100","54","24","969.632204784","1","1","1","32","2","right","out","Female","Right-handed","3","0","no","right","d","1514.57760123","729.523094178","33","green","1"
"100","58","24","986.334083485","1","1","1","33","3","right","in","Female","Right-handed","3","0","no","right","d","1571.02112643","769.088371948","33","green","1"
"100","61","24","1003.88720902","1","1","1","34","2","left","out","Female","Right-handed","3","0","no","left","s","1579.57362276","849.475808016","33","red","2"
"100","64","24","1004.15926751","1","1","1","35","0","right","in","Female","Right-handed","3","0","no","right","s","1190.22192488","825.17013108","33","red","3"
"100","66","24","1019.73288536","1","1","1","36","1","left","in","Female","Right-handed","3","0","no","left","s","1481.72840797","993.798662428","33","green","2"
"100","68","24","1008.1396765","1","1","1","37","1","right","in","Female","Right-handed","3","0","no","right","s","883.197344996","785.28574228","33","red","3"
"100","70","24","1012.53638484","1","1","1","38","3","left","in","Female","Right-handed","3","0","no","left","s","1140.90628174","1024.86115463","33","green","1"
"100","72","24","1012.35805127","1","1","1","39","0","left","in","Female","Right-handed","3","0","no","left","d","1033.36426091","985.288500424","33","red","2"
"100","73","24","1016.92231193","1","1","1","40","0","right","in","Female","Right-handed","3","0","no","right","s","1277.02397374","921.13403401","33","green","3"
"100","75","24","1011.05514463","1","1","1","41","0","left","out","Female","Right-handed","3","0","no","left","d","1013.6095242","785.548407541","33","green","3"
"100","76","24","1007.86786992","1","1","1","42","1","left","out","Female","Right-handed","3","0","no","left","d","1119.12045944","769.124291983","33","green","1"
"100","77","24","1002.29416632","1","1","1","43","0","right","out","Female","Right-handed","3","0","no","right","s","928.725027958","841.767753236","33","green","1"
"100","78","24","1006.77499142","1","1","1","44","2","left","out","Female","Right-handed","3","0","no","left","s","1289.3326795","921.373607818","33","red","3"
"100","79","24","997.174564478","1","1","1","45","1","right","out","Female","Right-handed","3","0","no","right","d","807.814981028","744.91450871","33","green","0"
"100","80","24","991.84426612","1","1","1","46","3","left","out","Female","Right-handed","3","0","no","left","d","886.400642456","841.433568621","33","green","1"
"100","80","24","993.175754489","1","1","1","47","3","right","in","Female","Right-handed","3","0","no","right","d","1235.97346664","816.952460795","33","green","1"
"100","81","24","990.412646732","1","1","1","48","2","left","out","Female","Right-handed","3","0","no","left","d","1075.53117554","761.61251454","33","green","3"
"100","82","24","983.529300647","1","1","1","49","0","right","out","Female","Right-handed","3","0","no","right","d","770.174632309","825.183280378","33","red","1"
"100","82","24","984.158235808","1","1","1","50","2","left","out","Female","Right-handed","3","0","no","left","s","802.745445291","1200.79139536","33","red","1"
"100","80","24","980.779124815","1","0","1","51","3","right","in","Female","Right-handed","3","0","no","right","d","932.295864353","833.273947679","33","green","2"
"100","80","24","982.669638084","1","1","1","52","0","left","in","Female","Right-handed","3","0","no","left","d","1229.89688705","848.873185276","33","green","2"
"100","81","24","981.379330168","1","1","1","53","0","left","in","Female","Right-handed","3","0","no","left","s","753.2947813","1129.46478826","33","red","1"
"100","81","24","976.124969886","1","1","1","54","1","left","in","Female","Right-handed","3","0","no","left","s","663.03254259","952.938339089","33","green","1"
"100","82","24","972.974285914","1","1","1","55","2","right","out","Female","Right-handed","3","0","no","right","d","833.420193539","904.583236183","33","green","2"
"100","82","24","966.894235059","1","1","1","56","3","right","out","Female","Right-handed","3","0","no","right","s","703.210705966","817.134305975","33","green","3"
"100","83","24","970.030730339","1","1","1","57","0","left","in","Female","Right-handed","3","0","no","left","s","1270.76362468","888.852505599","33","red","2"
"100","83","24","969.754848964","1","1","1","58","1","left","out","Female","Right-handed","3","0","no","left","d","1102.35798998","817.288248985","33","red","3"
"100","84","24","969.194893927","1","1","1","59","3","right","out","Female","Right-handed","3","0","no","right","d","1040.01908893","856.93402612","33","red","2"
"100","84","24","968.280190883","1","1","1","60","3","right","out","Female","Right-handed","3","0","no","right","s","746.684853324","1120.3580971","33","red","3"
"100","85","24","970.675877163","1","1","1","61","0","right","in","Female","Right-handed","3","0","no","right","s","1447.17205088","681.043233289","33","red","3"
"100","85","24","969.969708193","1","1","1","62","2","right","out","Female","Right-handed","3","0","no","right","d","994.627068249","888.818830565","33","green","1"
"100","85","24","976.002140358","1","1","1","63","2","left","out","Female","Right-handed","3","0","no","left","d","997.344162368","1449.31955586","33","red","2"
"100","86","24","975.693480255","1","1","1","64","2","left","out","Female","Right-handed","3","0","no","left","d","1212.68285142","712.776660443","33","red","3"
"100","86","24","975.537584734","1","1","1","65","3","right","out","Female","Right-handed","3","0","no","right","s","960.41163078","977.256523896","33","green","2"
"100","86","24","984.832633124","1","1","1","66","2","left","in","Female","Right-handed","3","0","no","left","s","2130.88715753","656.742367071","33","green","0"
"100","86","24","987.811185719","1","1","1","67","1","left","in","Female","Right-handed","3","0","no","left","s","1547.36072728","696.331377721","33","red","3"
"100","87","24","985.899461745","1","1","1","68","0","right","in","Female","Right-handed","3","0","no","right","s","771.012018138","1024.90829968","33","green","3"
"100","87","24","979.581033275","1","1","1","69","3","right","in","Female","Right-handed","3","0","no","right","d","620.61643271","744.6133577","33","red","3"
"100","87","24","981.777768565","1","1","1","70","1","right","in","Female","Right-handed","3","0","no","right","d","1389.21763917","785.22448579","33","red","2"
"100","88","24","987.227322832","1","1","1","71","1","right","in","Female","Right-handed","3","0","no","right","d","795.709608321","1712.80135547","33","green","1"
"100","86","24","984.610371406","1","0","1","72","0","right","out","Female","Right-handed","3","0","no","right","d","994.242210725","713.283389517","33","red","1"
"100","86","24","985.150611648","1","1","1","73","3","left","in","Female","Right-handed","3","0","no","left","s","1288.78714396","736.618584066","33","red","0"
"98","86","24","997.387280329","0","1","1","74","2","right","out","Female","Right-handed","3","0","no","left","d","1328.32804742","1939.06005605","33","red","0"
"98","85","24","996.248173664","1","0","1","75","0","left","out","Female","Right-handed","3","0","no","left","d","1063.01592957","808.735111226","33","red","0"
"98","83","24","994.42432997","1","0","1","76","3","left","out","Female","Right-handed","3","0","no","left","s","815.460817173","976.412723774","33","green","0"
"98","83","24","990.257157101","1","1","1","77","0","left","out","Female","Right-handed","3","0","no","left","d","833.123532529","689.001766175","33","green","2"
"98","84","24","989.062546094","1","1","1","78","2","left","out","Female","Right-handed","3","0","no","left","d","939.690580964","904.638078382","33","red","3"
"98","84","24","989.8746529","1","1","1","79","2","right","out","Female","Right-handed","3","0","no","right","s","815.139140426","1257.19034123","33","red","3"
"98","84","24","987.365021484","1","1","1","80","3","left","in","Female","Right-handed","3","0","no","left","d","898.792734019","784.820064675","33","red","2"
"98","85","24","985.520697798","1","1","1","81","0","left","out","Female","Right-handed","3","0","no","left","s","777.276215773","976.134984929","33","green","0"
"98","85","24","982.591080305","1","1","1","82","1","left","in","Female","Right-handed","3","0","no","left","s","908.838156827","704.789904674","33","green","2"
"98","85","24","979.669050359","1","1","1","83","2","left","in","Female","Right-handed","3","0","no","left","d","842.41303102","760.437416233","33","green","1"
"98","85","24","975.976806449","1","1","1","84","2","left","in","Female","Right-handed","3","0","no","left","s","741.100891362","753.014476737","33","green","2"
"98","85","24","972.910590461","1","1","1","85","1","left","in","Female","Right-handed","3","0","no","left","d","870.635274692","688.842691732","33","red","2"
"100","100","24","905.656667961","1","1","2","86","0","left","in","Female","Right-handed","3","0","no","left","d","1058.05351251","753.259823408","33","green","3"
"100","100","24","825.440894383","1","1","2","87","1","left","out","Female","Right-handed","3","0","no","left","d","777.805394868","712.644846741","33","green","2"
"100","100","24","815.403676522","1","1","2","88","0","left","out","Female","Right-handed","3","0","no","left","s","861.366622654","729.291858948","33","green","1"
"100","75","24","876.647029846","1","0","2","89","3","right","in","Female","Right-handed","3","0","no","right","s","807.836148193","1312.91803144","33","green","3"
"100","80","24","900.1157459","1","1","2","90","2","left","out","Female","Right-handed","3","0","no","left","d","1402.53852023","585.442700007","33","red","2"
"100","66","24","911.531999139","1","0","2","91","3","left","out","Female","Right-handed","3","0","no","left","s","720.040846212","1217.18568445","33","red","2"
"100","71","24","929.896300598","1","1","2","92","2","right","in","Female","Right-handed","3","0","no","right","s","1438.60768811","641.5565306","33","green","1"
"100","75","24","907.864988453","1","1","2","93","0","right","in","Female","Right-handed","3","0","no","right","d","842.180512931","665.111093935","33","red","3"
"100","66","24","896.035800017","1","0","2","94","3","right","in","Female","Right-handed","3","0","no","right","s","753.862125434","848.94245963","33","green","3"
"100","70","24","882.96737659","1","1","2","95","0","left","in","Female","Right-handed","3","0","no","left","d","889.347688946","641.355442542","33","red","2"
"100","72","24","893.694829617","1","1","2","96","3","right","in","Female","Right-handed","3","0","no","right","d","648.93938077","1352.99933901","33","red","3"
"100","66","24","895.29896267","1","0","2","97","2","left","in","Female","Right-handed","3","0","no","left","s","936.504281381","889.384571125","33","green","1"
"100","69","24","891.169039515","1","1","2","98","2","right","out","Female","Right-handed","3","0","no","right","s","954.040955896","729.178967409","33","green","0"
"100","64","24","900.059556702","1","0","2","99","3","left","in","Female","Right-handed","3","0","no","left","d","1166.7452952","864.527265072","33","red","2"
"100","66","24","905.596630187","1","1","2","100","0","left","out","Female","Right-handed","3","0","no","left","d","653.177944971","1313.053373","33","red","1"
"100","68","24","900.733057369","1","1","2","101","0","right","out","Female","Right-handed","3","0","no","right","s","822.750339397","832.808590789","33","green","1"
"100","70","24","895.124985216","1","1","2","102","0","right","in","Female","Right-handed","3","0","no","right","d","729.419824076","881.371837473","33","green","3"
"100","72","24","893.783358996","1","1","2","103","0","left","out","Female","Right-handed","3","0","no","left","s","908.947841223","833.003585269","33","red","1"
"100","73","24","902.954748706","1","1","2","104","1","left","in","Female","Right-handed","3","0","no","left","s","1415.49988021","720.579646746","33","green","3"
"100","75","24","891.659512058","1","1","2","105","2","right","in","Female","Right-handed","3","0","no","right","d","673.085021121","681.015010405","33","red","3"
"100","71","24","898.229979158","1","0","2","106","1","left","out","Female","Right-handed","3","0","no","left","s","1170.67148337","888.607158928","33","green","2"
"100","72","24","890.384777929","1","1","2","107","2","left","in","Female","Right-handed","3","0","no","left","d","842.059924242","609.211179983","33","red","3"
"100","73","24","891.969231031","1","1","2","108","2","right","out","Female","Right-handed","3","0","no","right","s","836.94067774","1016.71372084","33","red","2"
"100","70","24","883.658819903","1","0","2","109","0","right","out","Female","Right-handed","3","0","no","right","d","680.568896392","704.4698315","33","green","3"
"100","72","24","879.713441502","1","1","2","110","2","right","in","Female","Right-handed","3","0","no","right","s","689.032875493","881.015844263","33","green","3"
"100","73","24","876.169643075","1","1","2","111","3","left","out","Female","Right-handed","3","0","no","left","d","878.488292474","696.661072334","33","red","3"
"100","74","24","877.654767098","1","1","2","112","1","right","in","Female","Right-handed","3","0","no","right","d","1007.20870214","825.327281234","33","green","1"
"100","75","24","884.69361607","1","1","2","113","0","right","out","Female","Right-handed","3","0","no","right","d","1332.85140619","816.633670478","33","red","2"
"100","75","24","890.69849462","1","1","2","114","0","left","in","Female","Right-handed","3","0","no","left","s","1293.27811056","824.392077451","33","green","0"
"100","76","24","888.621836966","1","1","2","115","3","left","out","Female","Right-handed","3","0","no","left","d","863.776792899","793.020737086","33","green","1"
"100","74","24","912.080705616","1","0","2","116","1","right","out","Female","Right-handed","3","0","no","right","s","1927.39085521","1304.30267505","33","green","2"
"100","75","24","909.857578262","1","1","2","117","3","right","in","Female","Right-handed","3","0","no","right","d","1024.94742686","656.933833692","33","red","1"
"100","72","24","909.345328098","1","0","2","118","0","left","out","Female","Right-handed","3","0","no","left","s","825.467754232","960.43889152","33","red","3"
"100","73","24","908.000770998","1","1","2","119","3","left","out","Female","Right-handed","3","0","no","left","d","1022.11070619","705.150067175","33","green","0"
"100","74","24","904.763354086","1","1","2","120","2","right","out","Female","Right-handed","3","0","no","right","s","804.596930697","784.785427497","33","red","3"
"100","75","24","900.903624086","1","1","2","121","3","left","out","Female","Right-handed","3","0","no","left","s","875.25677213","656.369375989","33","red","3"
"100","72","24","906.090499472","1","0","2","122","0","right","out","Female","Right-handed","3","0","no","right","d","1216.85310341","968.782923359","33","green","2"
"100","73","24","901.136642938","1","1","2","123","2","left","out","Female","Right-handed","3","0","no","left","s","747.365088997","688.322813359","33","green","2"
"100","74","24","899.813975662","1","1","2","124","1","left","out","Female","Right-handed","3","0","no","left","s","1002.04070702","697.064531307","33","red","0"
"100","75","24","907.434974312","1","1","2","125","3","right","out","Female","Right-handed","3","0","no","right","d","864.690188089","1544.61765528","33","red","0"
"100","75","24","910.427727915","1","1","2","126","3","right","out","Female","Right-handed","3","0","no","right","d","1227.10634928","833.169394718","33","red","2"
"100","76","24","914.411233582","1","1","2","127","1","right","in","Female","Right-handed","3","0","no","right","d","842.713540602","1312.75639128","33","red","3"
"100","76","24","908.55846013","1","1","2","128","1","left","in","Female","Right-handed","3","0","no","left","d","709.312622012","616.171328307","33","red","1"
"100","77","24","911.244671655","1","1","2","129","2","left","in","Female","Right-handed","3","0","no","left","s","844.64873252","1208.85480192","33","green","1"
"100","75","24","916.650112448","1","0","2","130","2","right","out","Female","Right-handed","3","0","no","right","d","868.410156774","1440.56885791","33","green","1"
"100","76","24","913.115339248","1","1","2","131","3","right","out","Female","Right-handed","3","0","no","right","s","787.104514798","720.996575728","33","red","1"
"100","76","24","914.167375861","1","1","2","132","0","right","out","Female","Right-handed","3","0","no","right","s","796.582593473","1128.53952663","33","red","2"
"100","77","24","915.853935772","1","1","2","133","1","right","out","Female","Right-handed","3","0","no","right","d","1342.14860183","648.095901364","33","green","3"
"100","77","24","927.542801933","1","1","2","134","1","left","in","Female","Right-handed","3","0","no","left","d","2376.64530601","600.571449282","33","green","1"
"100","76","24","938.336559188","1","0","2","135","2","right","in","Female","Right-handed","3","0","no","right","d","1662.23492537","1272.22640398","33","red","0"
"100","76","24","932.060852867","1","1","2","136","3","right","in","Female","Right-handed","3","0","no","right","d","571.681798516","664.869275122","33","red","3"
"100","76","24","934.633025769","1","1","2","137","2","right","out","Female","Right-handed","3","0","no","right","d","723.359600928","1408.26808662","33","red","2"
"100","75","24","934.354059398","1","0","2","138","2","left","in","Female","Right-handed","3","0","no","left","d","1054.94482586","784.750790321","33","red","3"
"100","75","24","931.881845557","1","1","2","139","1","left","in","Female","Right-handed","3","0","no","left","s","729.412768356","872.296255628","33","red","3"
"100","76","24","930.410628109","1","1","2","140","2","left","in","Female","Right-handed","3","0","no","left","s","765.888602349","936.041169491","33","red","3"
"100","75","24","935.904502118","1","0","2","141","0","left","in","Female","Right-handed","3","0","no","left","d","875.70064114","1600.43450414","33","green","3"
"100","75","24","938.302826369","1","1","2","142","0","right","out","Female","Right-handed","3","0","no","right","s","761.076921153","1384.14104772","33","green","0"
"100","75","24","941.275201408","1","1","2","143","1","right","in","Female","Right-handed","3","0","no","right","s","1300.70586077","920.69529643","33","red","2"
"100","76","24","941.217367296","1","1","2","144","1","left","in","Female","Right-handed","3","0","no","left","s","1083.39670119","792.329276399","33","green","3"
"100","76","24","943.352545742","1","1","2","145","1","right","in","Female","Right-handed","3","0","no","right","s","1209.92214011","928.734007968","33","green","0"
"100","75","24","942.672398702","1","0","2","146","3","left","out","Female","Right-handed","3","0","no","left","d","1067.42094465","736.30620804","33","green","2"
"100","75","24","942.860299088","1","1","2","147","1","left","out","Female","Right-handed","3","0","no","left","s","924.864586275","983.779858929","33","green","1"
"100","76","24","945.974489821","1","1","2","148","3","left","in","Female","Right-handed","3","0","no","left","d","957.596077275","1320.51255325","33","red","1"
"100","76","24","941.349660159","1","1","2","149","1","right","in","Female","Right-handed","3","0","no","right","s","756.059020467","543.911762434","33","green","3"
"100","100","24","831.984835329","1","1","3","150","1","right","in","Female","Right-handed","3","0","no","right","d","951.52911912","712.440551539","33","green","3"
"100","100","24","871.561979539","1","1","3","151","1","right","out","Female","Right-handed","3","0","no","right","s","1061.23500138","761.043246119","33","red","2"
"100","100","24","849.096456092","1","1","3","152","1","right","out","Female","Right-handed","3","0","no","right","d","991.60080525","616.730013146","33","green","1"
"100","100","24","805.648152988","1","1","3","153","2","left","out","Female","Right-handed","3","0","no","left","d","789.331557004","561.274930347","33","green","2"
"100","100","24","841.204578393","1","1","3","154","2","left","out","Female","Right-handed","3","0","no","left","d","1301.96851417","664.892045861","33","red","0"
"100","100","24","839.90426776","1","1","3","155","3","right","in","Female","Right-handed","3","0","no","right","s","1002.45154243","664.353886758","33","green","0"
"100","100","24","820.782915661","1","1","3","156","0","right","in","Female","Right-handed","3","0","no","right","s","763.052843824","649.056762315","33","green","0"
"100","100","24","836.651693838","1","1","3","157","1","left","in","Female","Right-handed","3","0","no","left","s","1246.76711662","648.699165533","33","green","3"
"100","100","24","845.662404476","1","1","3","158","3","left","in","Female","Right-handed","3","0","no","left","s","1043.13386916","792.362310003","33","red","2"
"100","100","24","862.373874973","1","1","3","159","1","right","out","Female","Right-handed","3","0","no","right","d","1384.91461134","640.639607547","33","red","2"
"100","100","24","864.238767707","1","1","3","160","2","right","in","Female","Right-handed","3","0","no","right","s","1149.44370449","616.331685611","33","red","3"
"100","100","24","864.926969009","1","1","3","161","0","left","out","Female","Right-handed","3","0","no","left","s","1104.01800877","640.976357881","33","green","0"
"100","100","24","878.244759073","1","1","3","162","2","right","in","Female","Right-handed","3","0","no","right","d","771.620413743","1304.49606595","33","red","3"
"100","100","24","877.016636245","1","1","3","163","3","right","in","Female","Right-handed","3","0","no","right","s","688.989258306","1033.11282066","33","red","3"
"100","100","24","879.191619599","1","1","3","164","2","right","in","Female","Right-handed","3","0","no","right","s","1242.66389398","576.618879124","33","green","0"
"100","100","24","884.414126179","1","1","3","165","0","left","in","Female","Right-handed","3","0","no","left","d","901.1554385","1024.34801126","33","red","1"
"100","94","24","884.823085052","1","0","3","166","1","left","in","Female","Right-handed","3","0","no","left","s","1005.91622229","776.816631744","33","green","3"
"100","94","24","888.135058122","1","1","3","167","1","right","out","Female","Right-handed","3","0","no","right","s","1128.50328588","760.373914741","33","red","1"
"100","94","24","890.158210708","1","1","3","168","0","right","out","Female","Right-handed","3","0","no","right","s","876.026166461","977.123748049","33","green","1"
"100","95","24","894.583362866","1","1","3","169","3","left","out","Female","Right-handed","3","0","no","left","d","980.661230125","976.661277589","33","red","2"
"100","95","24","906.938778041","1","1","3","170","1","left","out","Female","Right-handed","3","0","no","left","d","1612.07419925","696.019963842","33","green","3"
"100","95","24","906.469701348","1","1","3","171","3","left","out","Female","Right-handed","3","0","no","left","s","760.533951328","1032.70423026","33","red","3"
"100","91","24","902.632385027","1","0","3","172","3","left","out","Female","Right-handed","3","0","no","left","d","828.193828362","808.22902358","33","green","2"
"100","91","24","901.223196143","1","1","3","173","1","left","out","Female","Right-handed","3","0","no","left","d","1168.77157006","568.852133572","33","red","2"
"100","88","24","896.330364264","1","0","3","174","3","right","out","Female","Right-handed","3","0","no","right","d","765.443129763","792.361668573","33","red","3"
"100","88","24","901.835378131","1","1","3","175","3","right","in","Female","Right-handed","3","0","no","right","s","1422.04983456","656.871615058","33","green","1"
"100","85","24","902.897275148","1","0","3","176","3","left","in","Female","Right-handed","3","0","no","left","s","852.52548318","1008.48771198","33","red","1"
"100","85","24","897.034771282","1","1","3","177","0","right","in","Female","Right-handed","3","0","no","right","d","837.212964441","640.281369335","33","red","3"
"100","86","24","904.16048457","1","1","3","178","3","left","out","Female","Right-handed","3","0","no","left","d","806.720382086","1400.64053121","33","red","1"
"100","86","24","905.113120851","1","1","3","179","0","right","in","Female","Right-handed","3","0","no","right","d","1001.24533481","864.233811208","33","green","2"
"100","87","24","899.247491807","1","1","3","180","0","left","in","Female","Right-handed","3","0","no","left","d","773.774012301","672.783228678","33","green","2"
"100","87","24","906.347206592","1","1","3","181","2","left","out","Female","Right-handed","3","0","no","left","d","1012.44308519","1240.43364463","33","green","3"
"100","87","24","912.686216982","1","1","3","182","2","right","out","Female","Right-handed","3","0","no","right","s","759.083038461","1471.98606046","33","green","3"
"100","88","24","908.507283117","1","1","3","183","1","right","in","Female","Right-handed","3","0","no","right","s","764.653851122","776.551080056","33","red","3"
"100","88","24","908.855603702","1","1","3","184","1","left","out","Female","Right-handed","3","0","no","left","s","721.137048724","1120.25995843","33","green","1"
"100","86","24","919.698938609","1","0","3","185","0","left","in","Female","Right-handed","3","0","no","left","d","1821.70609265","776.725228086","33","red","3"
"100","86","24","919.311001189","1","1","3","186","3","left","out","Female","Right-handed","3","0","no","left","s","1058.38416927","752.306338894","33","red","2"
"100","86","24","925.113857482","1","1","3","187","0","right","in","Female","Right-handed","3","0","no","right","d","830.825933113","1448.8131475","33","green","1"
"100","84","24","924.479531389","1","0","3","188","0","right","in","Female","Right-handed","3","0","no","right","s","1000.34637177","800.403907971","33","red","1"
"100","82","24","931.165393483","1","0","3","189","1","right","out","Female","Right-handed","3","0","no","right","s","1096.01970727","1287.808323","33","green","0"
"100","82","24","924.430811953","1","1","3","190","3","left","out","Female","Right-handed","3","0","no","left","s","773.540532071","536.554569429","33","red","3"
"100","83","24","926.221892477","1","1","3","191","3","right","out","Female","Right-handed","3","0","no","right","s","575.137177653","1424.17521024","33","red","3"
"100","81","24","935.928195908","1","0","3","192","0","left","in","Female","Right-handed","3","0","no","left","d","1670.55618647","1016.62969362","33","red","2"
"100","81","24","945.625929507","1","1","3","193","2","right","out","Female","Right-handed","3","0","no","right","s","1125.10948395","1600.14746457","33","red","3"
"100","82","24","939.150761271","1","1","3","194","1","left","out","Female","Right-handed","3","0","no","left","s","763.749115227","544.737602537","33","red","1"
"100","82","24","938.475898806","1","1","3","195","2","right","out","Female","Right-handed","3","0","no","right","s","1208.27142205","607.942753726","33","red","1"
"100","80","24","933.994894319","1","0","3","196","1","left","in","Female","Right-handed","3","0","no","left","s","807.798303867","647.939071921","33","red","2"
"100","81","24","937.929259793","1","1","3","197","1","right","in","Female","Right-handed","3","0","no","right","d","957.42898497","1288.25988915","33","red","0"
"97","79","24","967.797586646","0","0","3","198","2","right","out","Female","Right-handed","3","0","no","None","s","3000.17927946","1802.77527175","33","red","3"
"98","80","24","972.116767697","1","1","3","199","0","left","in","Female","Right-handed","3","0","no","left","s","935.362537388","1432.150741","33","green","3"
"98","80","24","972.826838947","1","1","3","200","0","left","in","Female","Right-handed","3","0","no","left","d","888.894519212","1127.76628372","33","green","3"
"98","80","24","970.952391126","1","1","3","201","0","left","in","Female","Right-handed","3","0","no","left","d","990.322116126","760.388988328","33","red","2"
"98","79","24","975.781996148","1","0","3","202","0","left","in","Female","Right-handed","3","0","no","left","s","1069.99307577","1383.84983886","33","green","3"
"98","79","24","976.279012511","1","1","3","203","2","right","in","Female","Right-handed","3","0","no","right","d","1068.64286729","936.598892185","33","red","1"
"98","80","24","974.130498247","1","1","3","204","3","left","in","Female","Right-handed","3","0","no","left","d","644.146942453","1072.07451355","33","green","3"
"98","78","24","976.730371545","1","0","3","205","2","left","in","Female","Right-handed","3","0","no","left","s","743.776934014","1495.66987178","33","red","2"
"98","78","24","975.116676676","1","1","3","206","3","right","out","Female","Right-handed","3","0","no","right","d","745.220470442","1024.27905762","33","green","1"
"98","79","24","971.171116359","1","1","3","207","2","right","out","Female","Right-handed","3","0","no","right","s","692.858679995","799.689676551","33","green","2"
"98","79","24","969.284309","1","1","3","208","2","left","out","Female","Right-handed","3","0","no","left","s","1311.35358561","408.345378841","33","green","1"
"98","80","24","965.731358651","1","1","3","209","0","right","out","Female","Right-handed","3","0","no","right","s","872.125314741","640.089261291","33","green","3"
"98","80","24","964.966232932","1","1","3","210","2","left","in","Female","Right-handed","3","0","no","left","d","838.510896439","999.606483183","33","green","1"
"98","80","24","962.018951502","1","1","3","211","1","left","out","Female","Right-handed","3","0","no","left","s","948.187593669","616.281974842","33","green","3"
"98","80","24","962.879672193","1","1","3","212","3","right","in","Female","Right-handed","3","0","no","right","s","1216.72674186","815.761968188","33","green","0"
"98","81","24","958.856197525","1","1","3","213","2","right","out","Female","Right-handed","3","0","no","right","d","682.341165291","728.41342165","33","green","2"
"100","100","24","794.900605735","1","1","4","214","1","left","in","Female","Right-handed","3","0","no","left","s","557.445277271","1032.3559342","33","green","1"
"100","100","24","665.943749224","1","1","4","215","2","left","in","Female","Right-handed","3","0","no","left","d","489.01311947","584.960665958","33","red","2"
"100","100","24","720.626845245","1","1","4","216","0","right","in","Female","Right-handed","3","0","no","right","s","1043.44367947","616.542395102","33","red","1"
"100","100","24","725.371644082","1","1","4","217","2","right","in","Female","Right-handed","3","0","no","right","d","823.046679689","656.165401502","33","red","3"
"100","100","24","724.960928943","1","1","4","218","2","left","out","Female","Right-handed","3","0","no","left","d","845.86873087","600.7674059","33","red","3"
"100","100","24","713.195246453","1","1","4","219","2","left","in","Female","Right-handed","3","0","no","left","s","612.328846641","696.404821367","33","green","3"
"100","100","24","720.580265266","1","1","4","220","3","right","in","Female","Right-handed","3","0","no","right","d","834.038531291","695.742224994","33","green","0"
"100","100","24","741.814922337","1","1","4","221","3","right","out","Female","Right-handed","3","0","no","right","d","620.527594765","1160.3874489","33","green","3"
"100","100","24","736.017155095","1","1","4","222","1","left","out","Female","Right-handed","3","0","no","left","d","755.221634638","624.048399681","33","red","2"
"100","100","24","755.237093081","1","1","4","223","3","left","in","Female","Right-handed","3","0","no","left","s","1063.68237452","792.750695389","33","green","2"
"100","100","24","771.333272125","1","1","4","224","2","left","in","Female","Right-handed","3","0","no","left","s","984.398838114","880.191287019","33","red","1"
"100","91","24","786.002539418","1","0","4","225","1","left","in","Female","Right-handed","3","0","no","left","s","990.922814581","903.806144699","33","green","3"
"100","92","24","774.186660981","1","1","4","226","3","left","out","Female","Right-handed","3","0","no","left","d","656.481626102","608.310613377","33","red","2"
"100","92","24","790.646841953","1","1","4","227","0","right","in","Female","Right-handed","3","0","no","right","s","1137.16065589","872.097733285","33","green","3"
"100","93","24","785.247064098","1","1","4","228","1","right","out","Female","Right-handed","3","0","no","right","d","642.630924521","776.66942374","33","red","1"
"100","93","24","784.996698243","1","1","4","229","3","left","in","Female","Right-handed","3","0","no","left","s","714.21282044","848.269600392","33","red","3"
"100","94","24","795.545779755","1","1","4","230","0","right","out","Female","Right-handed","3","0","no","right","s","1208.84036976","719.821798139","33","green","2"
"100","94","24","791.457119762","1","1","4","231","3","left","out","Female","Right-handed","3","0","no","left","d","675.430407016","768.469392762","33","green","2"
"100","94","24","785.858749558","1","1","4","232","1","right","in","Female","Right-handed","3","0","no","right","s","738.066931211","632.109240527","33","green","1"
"100","95","24","799.89382743","1","1","4","233","2","right","out","Female","Right-handed","3","0","no","right","d","1076.56548014","1056.55513388","33","red","0"
"100","95","24","823.170528979","1","1","4","234","1","right","out","Female","Right-handed","3","0","no","right","d","1785.14591071","792.263209194","33","red","3"
"100","95","24","827.126883764","1","1","4","235","1","left","in","Female","Right-handed","3","0","no","left","s","1179.59825364","640.822414873","33","red","3"
"100","95","24","856.717425237","1","1","4","236","3","right","in","Female","Right-handed","3","0","no","right","d","1487.17414194","1528.24453334","33","green","1"
"100","91","24","861.389380027","1","0","4","237","0","right","in","Female","Right-handed","3","0","no","right","s","960.775000425","976.913679988","33","red","0"
"100","92","24","860.585836537","1","1","4","238","0","left","in","Female","Right-handed","3","0","no","left","d","1050.27361766","632.327967884","33","red","2"
"100","92","24","855.482638349","1","1","4","239","0","left","out","Female","Right-handed","3","0","no","left","s","799.928608929","655.876758359","33","green","2"
"100","92","24","874.130962905","1","1","4","240","2","right","in","Female","Right-handed","3","0","no","right","d","701.477564249","2016.49723848","33","red","3"
"100","92","24","879.073837161","1","1","4","241","0","right","out","Female","Right-handed","3","0","no","right","s","889.044613647","1136.01827047","33","green","1"
"100","93","24","889.557248292","1","1","4","242","1","left","in","Female","Right-handed","3","0","no","left","s","765.590979197","1600.59454073","33","green","2"
"100","93","24","888.378403891","1","1","4","243","0","left","out","Female","Right-handed","3","0","no","left","s","700.219080143","1008.16475238","33","green","3"
"100","93","24","879.762951974","1","1","4","244","0","left","out","Female","Right-handed","3","0","no","left","s","682.918451577","559.680337341","33","green","1"
"100","93","24","880.138298952","1","1","4","245","1","left","in","Female","Right-handed","3","0","no","left","s","999.386793679","784.161316878","33","green","3"
"100","90","24","889.070227081","1","0","4","246","0","right","in","Female","Right-handed","3","0","no","right","d","909.891704301","1439.89215009","33","green","1"
"100","91","24","899.933430968","1","1","4","247","0","right","out","Female","Right-handed","3","0","no","right","d","1100.4917517","1416.34656677","33","red","2"
"100","91","24","899.691811592","1","1","4","248","0","right","in","Female","Right-handed","3","0","no","right","s","974.993561653","807.959944028","33","green","3"
"100","91","24","908.213952667","1","1","4","249","1","left","out","Female","Right-handed","3","0","no","left","s","1021.482747","1391.49503357","33","red","0"
"100","91","24","941.170310471","1","1","4","250","1","left","out","Female","Right-handed","3","0","no","left","s","1383.22123823","2871.97714459","33","red","2"
"100","92","24","938.708894663","1","1","4","251","2","left","out","Female","Right-handed","3","0","no","left","d","854.615580251","840.657439283","33","red","2"
"100","89","24","944.067332041","1","0","4","252","3","right","out","Female","Right-handed","3","0","no","right","d","1295.17609958","1000.1998052","33","red","0"
"100","90","24","949.731750297","1","1","4","253","3","left","in","Female","Right-handed","3","0","no","left","d","1173.60538057","1167.68274398","33","red","1"
"100","90","24","952.376482305","1","1","4","254","3","right","out","Female","Right-handed","3","0","no","right","s","908.176843314","1208.15468194","33","red","1"
"100","88","24","949.552394664","1","0","4","255","3","left","in","Female","Right-handed","3","0","no","left","d","795.759960511","871.769642246","33","green","3"
"100","88","24","949.825643506","1","1","4","256","2","right","out","Female","Right-handed","3","0","no","right","s","866.300496113","1056.30369364","33","green","2"
"100","86","24","949.122607939","1","0","4","257","0","left","out","Female","Right-handed","3","0","no","left","s","1085.87871151","751.905445635","33","green","3"
"100","86","24","968.060392555","1","1","4","258","1","left","out","Female","Right-handed","3","0","no","left","d","1146.38408717","2456.26174417","33","green","3"
"100","84","24","970.078477887","1","0","4","259","2","left","in","Female","Right-handed","3","0","no","left","s","769.896252033","1351.88838362","33","red","1"
"100","85","24","966.169542882","1","1","4","260","0","right","out","Female","Right-handed","3","0","no","right","d","620.426569665","952.290495592","33","green","0"
"100","83","24","963.397423603","1","0","4","261","2","right","out","Female","Right-handed","3","0","no","right","d","962.120398188","704.095236844","33","red","0"
"100","83","24","955.726710394","1","1","4","262","3","left","out","Female","Right-handed","3","0","no","left","d","567.56735087","607.497601857","33","red","3"
"100","82","24","960.625095212","1","0","4","263","0","left","in","Female","Right-handed","3","0","no","left","s","657.066609536","1744.22529303","33","red","3"
"100","80","24","957.373605101","1","0","4","264","2","right","in","Female","Right-handed","3","0","no","right","d","821.739446965","767.858752155","33","red","2"
"100","80","24","961.468191118","1","1","4","265","2","right","in","Female","Right-handed","3","0","no","right","d","956.21155233","1384.37260366","33","red","1"
"100","79","24","957.833236648","1","0","4","266","0","right","in","Female","Right-handed","3","0","no","right","s","881.763109286","655.868099064","33","red","3"
"100","79","24","951.641357355","1","1","4","267","1","right","in","Female","Right-handed","3","0","no","right","d","647.528877947","599.414631706","33","green","0"
"100","80","24","954.167495301","1","1","4","268","3","right","out","Female","Right-handed","3","0","no","right","d","733.016959068","1448.14092969","33","green","3"
"100","80","24","948.981505488","1","1","4","269","1","right","out","Female","Right-handed","3","0","no","right","d","695.729075698","631.77505591","33","green","3"
"100","80","24","946.389704174","1","1","4","270","1","right","out","Female","Right-handed","3","0","no","right","s","722.282641291","880.215019898","33","green","2"
"100","79","24","950.36058164","1","0","4","271","2","left","out","Female","Right-handed","3","0","no","left","d","1713.63232701","639.768867397","33","red","1"
"100","79","24","944.73122249","1","1","4","272","2","right","in","Female","Right-handed","3","0","no","right","s","669.18288654","567.273897006","33","green","3"
"100","80","24","958.116602422","1","1","4","273","3","left","in","Female","Right-handed","3","0","no","left","d","751.949704256","2743.75833257","33","green","2"
"100","80","24","956.629882472","1","1","4","274","2","right","out","Female","Right-handed","3","0","no","right","s","735.479405794","999.373965093","33","red","3"
"100","79","24","952.788280865","1","0","4","275","3","right","in","Female","Right-handed","3","0","no","right","d","772.863824259","664.037341441","33","red","3"
"100","79","24","955.362526599","1","1","4","276","1","left","out","Female","Right-handed","3","0","no","left","d","1206.42635094","1023.50517329","33","green","1"
"100","78","24","970.39932496","1","0","4","277","3","left","out","Female","Right-handed","3","0","no","left","None","835.226137471","3000.20910592","33","green","1"
"100","0","24","825.418203825","1","0","5","278","3","left","in","Female","Right-handed","3","0","no","left","s","1018.42601611","632.410391539","33","green","3"
"100","50","24","716.455657839","1","1","5","279","3","left","in","Female","Right-handed","3","0","no","left","s","598.918165499","616.068058207","33","green","3"
"100","66","24","673.002437111","1","1","5","280","3","left","out","Female","Right-handed","3","0","no","left","d","555.617845458","616.57414585","33","red","3"
"100","75","24","696.34164059","1","1","5","281","1","left","out","Female","Right-handed","3","0","no","left","s","868.329657409","664.388844645","33","red","3"
"100","80","24","751.625878718","1","1","5","282","0","left","out","Female","Right-handed","3","0","no","left","d","1257.75736465","687.768297808","33","red","2"
"100","66","24","842.738235627","1","0","5","283","0","right","out","Female","Right-handed","3","0","no","right","d","1500.3327414","1096.26729895","33","green","1"
"100","71","24","884.459815125","1","1","5","284","2","left","in","Female","Right-handed","3","0","no","left","s","1029.77225735","1239.80632686","33","red","0"
"100","75","24","896.888651417","1","1","5","285","1","left","out","Female","Right-handed","3","0","no","left","s","735.242718412","1232.53829252","33","green","1"
"100","77","24","873.999463979","1","1","5","286","2","left","out","Female","Right-handed","3","0","no","left","s","773.781709453","607.990219487","33","green","3"
"100","80","24","847.55698858","1","1","5","287","3","left","out","Female","Right-handed","3","0","no","left","s","642.616813079","576.532606894","33","red","1"
"100","81","24","832.253929461","1","1","5","288","2","right","out","Female","Right-handed","3","0","no","right","s","774.172660556","584.27401599","33","red","3"
"100","83","24","830.213622117","1","1","5","289","2","right","in","Female","Right-handed","3","0","no","right","s","903.747453929","711.793028753","33","red","1"
"100","76","24","830.610536249","1","0","5","290","0","right","in","Female","Right-handed","3","0","no","right","s","862.392588671","808.354422992","33","red","3"
"100","78","24","840.497425601","1","1","5","291","1","left","in","Female","Right-handed","3","0","no","left","d","1194.13400162","743.919972723","33","green","0"
"100","80","24","839.105116456","1","1","5","292","2","right","in","Female","Right-handed","3","0","no","right","s","726.683807796","912.54176907","33","green","2"
"100","81","24","828.203038883","1","1","5","293","1","right","out","Female","Right-handed","3","0","no","right","s","705.123447861","624.220302707","33","green","2"
"100","82","24","835.817903078","1","1","5","294","3","right","in","Female","Right-handed","3","0","no","right","s","1203.55371023","711.757750148","33","green","0"
"100","83","24","820.706630129","1","1","5","295","1","left","in","Female","Right-handed","3","0","no","left","d","535.239960271","592.390019745","33","red","1"
"100","84","24","806.27322997","1","1","5","296","0","left","in","Female","Right-handed","3","0","no","left","s","556.919305316","536.024748904","33","red","3"
"100","85","24","807.484685076","1","1","5","297","1","right","out","Female","Right-handed","3","0","no","right","d","1109.53301709","551.471647064","33","red","2"
"100","85","24","799.299290516","1","1","5","298","3","left","in","Female","Right-handed","3","0","no","left","d","655.059577548","616.123221116","33","red","1"
"100","81","24","804.297266634","1","0","5","299","0","left","out","Female","Right-handed","3","0","no","left","s","795.664708276","1022.84482192","33","green","2"
"100","82","24","800.948132765","1","1","5","300","3","right","in","Female","Right-handed","3","0","no","right","d","774.302229253","680.23214606","33","red","2"
"100","83","24","807.45095659","1","1","5","301","0","right","in","Female","Right-handed","3","0","no","right","d","890.021831041","1024.00997807","33","green","1"
"100","84","24","807.192448325","1","1","5","302","1","left","out","Female","Right-handed","3","0","no","left","d","658.556328868","943.42017109","33","green","3"
"100","80","24","800.095947941","1","0","5","303","0","left","in","Female","Right-handed","3","0","no","left","d","557.148295549","688.218581115","33","red","0"
"100","81","24","793.523825454","1","1","5","304","2","left","out","Female","Right-handed","3","0","no","left","s","525.735582996","719.561698596","33","green","2"
"100","82","24","792.068804599","1","1","5","305","3","left","in","Female","Right-handed","3","0","no","left","d","937.392660832","568.173822183","33","green","1"
"100","79","24","802.475906785","1","0","5","306","1","left","out","Female","Right-handed","3","0","no","left","d","883.92697072","1303.82256529","33","green","3"
"100","80","24","803.726479192","1","1","5","307","0","right","out","Female","Right-handed","3","0","no","right","d","952.533276548","727.452881412","33","red","1"
"100","80","24","805.430147237","1","1","5","308","1","right","in","Female","Right-handed","3","0","no","right","s","641.018692208","1072.06168496","33","green","1"
"100","81","24","803.344705539","1","1","5","309","0","right","in","Female","Right-handed","3","0","no","right","s","701.687632314","775.704393501","33","red","3"
"100","81","24","805.23492437","1","1","5","310","1","right","out","Female","Right-handed","3","0","no","right","d","595.20845968","1136.23539425","33","red","1"
"100","82","24","802.353574493","1","1","5","311","2","right","out","Female","Right-handed","3","0","no","right","s","558.77720502","855.760852097","33","green","2"
"100","82","24","804.269774312","1","1","5","312","1","right","in","Female","Right-handed","3","0","no","right","s","819.415869664","919.425266602","33","red","3"
"100","83","24","802.527688984","1","1","5","313","3","right","out","Female","Right-handed","3","0","no","right","s","811.046822088","672.062582966","33","green","0"
"100","83","24","802.963392534","1","1","5","314","1","right","in","Female","Right-handed","3","0","no","right","s","661.742949171","975.554491495","33","green","3"
"100","81","24","809.244064201","1","0","5","315","2","left","out","Female","Right-handed","3","0","no","left","s","771.271796966","1311.9860348","33","red","3"
"100","82","24","806.692447022","1","1","5","316","2","right","in","Female","Right-handed","3","0","no","right","s","883.737107677","535.724880752","33","red","1"
"100","82","24","802.559964009","1","1","5","317","2","left","out","Female","Right-handed","3","0","no","left","s","723.365053076","559.421199942","33","green","3"
"100","80","24","801.437434248","1","0","5","318","1","left","in","Female","Right-handed","3","0","no","left","s","945.064154144","568.008333448","33","green","3"
"100","78","24","796.132523978","1","0","5","319","2","right","out","Female","Right-handed","3","0","no","right","s","581.636459094","575.625946709","33","green","0"
"100","79","24","796.876569427","1","1","5","320","1","right","out","Female","Right-handed","3","0","no","right","d","1056.16482421","600.088132374","33","green","2"
"100","79","24","792.238707325","1","1","5","321","2","left","out","Female","Right-handed","3","0","no","left","s","585.841668973","599.779604923","33","green","3"
"100","80","24","796.883794373","1","1","5","322","2","right","out","Female","Right-handed","3","0","no","right","s","1347.23096615","655.304282791","33","green","1"
"100","80","24","793.070127134","1","1","5","323","2","left","out","Female","Right-handed","3","0","no","left","d","531.010055365","711.900147431","33","red","2"
"100","80","24","787.091669152","1","1","5","324","3","left","in","Female","Right-handed","3","0","no","left","s","456.529540865","567.63566308","33","green","3"
"100","79","24","789.863335222","1","0","5","325","1","right","in","Female","Right-handed","3","0","no","right","d","1329.14362466","511.119656374","33","green","2"
"100","77","24","788.981510103","1","0","5","326","0","left","out","Female","Right-handed","3","0","no","left","s","709.613452309","783.694356418","33","red","3"
"100","78","24","790.627561507","1","1","5","327","1","left","in","Female","Right-handed","3","0","no","left","d","1087.26580217","655.302358504","33","red","0"
"100","78","24","789.369549105","1","1","5","328","0","right","in","Female","Right-handed","3","0","no","right","d","820.951451183","631.986406832","33","red","2"
"100","78","24","786.064536018","1","1","5","329","0","left","out","Female","Right-handed","3","0","no","left","d","579.480615528","655.537121594","33","red","1"
"100","77","24","790.831348589","1","0","5","330","3","right","out","Female","Right-handed","3","0","no","right","d","686.308404936","1391.10279961","33","green","2"
"100","77","24","798.596033813","1","1","5","331","3","left","in","Female","Right-handed","3","0","no","left","d","652.688213769","1767.56048757","33","green","2"
"100","76","24","801.559661357","1","0","5","332","0","right","out","Female","Right-handed","3","0","no","right","s","604.14388925","1319.04720823","33","red","0"
"100","76","24","799.19556416","1","1","5","333","2","right","out","Female","Right-handed","3","0","no","right","s","626.753627363","711.586809262","33","red","1"
"100","77","24","798.294607411","1","1","5","334","3","left","in","Female","Right-handed","3","0","no","left","d","672.252766726","823.429292209","33","red","1"
"100","77","24","796.347943738","1","1","5","335","3","right","in","Female","Right-handed","3","0","no","right","d","714.911336843","655.86489192","33","green","3"
"100","77","24","794.383727945","1","1","5","336","2","left","in","Female","Right-handed","3","0","no","left","d","745.538298615","615.380125379","33","red","3"
"100","78","24","796.896989997","1","1","5","337","3","left","in","Female","Right-handed","3","0","no","left","d","819.271548094","1071.087354","33","green","2"
"100","78","24","796.6154194","1","1","5","338","0","right","in","Female","Right-handed","3","0","no","right","s","623.60805853","935.834308574","33","green","3"
"100","79","24","793.006638575","1","1","5","339","3","right","in","Female","Right-handed","3","0","no","right","s","506.4029067","639.339109831","33","red","3"
"100","79","24","790.839786149","1","1","5","340","0","right","out","Female","Right-handed","3","0","no","right","d","617.935900056","695.053971456","33","red","3"
"100","79","24","788.976162626","1","1","5","341","0","right","out","Female","Right-handed","3","0","no","right","d","863.525031935","479.610729442","33","red","2"
"100","100","24","614.593412458","1","1","6","342","2","left","in","Female","Right-handed","3","0","no","left","d","749.637031247","479.549793669","33","red","1"
"100","100","24","598.399008735","1","1","6","343","2","left","out","Female","Right-handed","3","0","no","left","s","676.179275615","488.22993441","33","green","3"
"100","100","24","622.385547915","1","1","6","344","1","left","out","Female","Right-handed","3","0","no","left","d","772.844260667","567.872991884","33","red","0"
"100","100","24","663.639775602","1","1","6","345","2","right","out","Female","Right-handed","3","0","no","right","d","983.465879333","591.33903799","33","red","2"
"100","100","24","679.387896936","1","1","6","346","1","right","in","Female","Right-handed","3","0","no","right","s","788.822903643","695.937860903","33","red","3"
"100","100","24","680.432485781","1","1","6","347","1","right","out","Female","Right-handed","3","0","no","right","d","675.724181594","695.586678412","33","green","1"
"100","100","24","688.466882941","1","1","6","348","0","right","out","Female","Right-handed","3","0","no","right","s","673.172576208","800.173955602","33","green","3"
"100","87","24","758.011110035","1","0","6","349","1","left","out","Female","Right-handed","3","0","no","left","s","977.846959482","1511.7944399","33","green","3"
"100","88","24","763.59600964","1","1","6","350","0","right","out","Female","Right-handed","3","0","no","right","d","504.347767521","1112.20264545","33","red","3"
"100","90","24","756.132688611","1","1","6","351","2","right","out","Female","Right-handed","3","0","no","right","s","657.939594686","719.986004013","33","red","2"
"100","90","24","748.851965632","1","1","6","352","1","right","out","Female","Right-handed","3","0","no","right","d","648.503850338","703.585621337","33","green","3"
"100","91","24","738.215448801","1","1","6","353","3","right","in","Female","Right-handed","3","0","no","right","s","522.24492525","720.182602065","33","green","3"
"100","92","24","752.909455039","1","1","6","354","3","left","in","Female","Right-handed","3","0","no","left","s","1170.74428559","687.730774203","33","red","0"
"100","92","24","762.587738925","1","1","6","355","0","left","in","Female","Right-handed","3","0","no","left","d","721.289388163","1055.52147072","33","green","3"
"100","93","24","769.741710356","1","1","6","356","2","left","in","Female","Right-handed","3","0","no","left","s","875.956250678","863.838370104","33","green","2"
"100","93","24","778.750931676","1","1","6","357","3","left","in","Female","Right-handed","3","0","no","left","s","716.348779697","1111.42972325","33","red","3"
"100","88","24","775.439851117","1","0","6","358","0","left","in","Female","Right-handed","3","0","no","left","s","676.881319883","768.043804485","33","red","0"
"100","88","24","773.346749181","1","1","6","359","0","right","out","Female","Right-handed","3","0","no","right","s","707.746893317","767.781139224","33","red","3"
"100","89","24","779.681465581","1","1","6","360","3","left","out","Female","Right-handed","3","0","no","left","s","956.190385172","831.222336361","33","green","1"
"100","90","24","771.238498773","1","1","6","361","3","right","out","Female","Right-handed","3","0","no","right","s","669.853180062","551.791078808","33","red","3"
"100","90","24","771.081353581","1","1","6","362","3","left","in","Female","Right-handed","3","0","no","left","s","528.457487839","1007.41941164","33","green","3"
"100","90","24","767.694167254","1","1","6","363","2","left","in","Female","Right-handed","3","0","no","left","d","545.004757802","848.121750962","33","red","1"
"100","91","24","757.47703917","1","1","6","364","3","left","out","Female","Right-handed","3","0","no","left","d","489.655510825","575.744931826","33","green","3"
"100","91","24","749.490431266","1","1","6","365","0","right","in","Female","Right-handed","3","0","no","right","d","588.265950661","543.330948283","33","green","0"
"100","92","24","747.844845972","1","1","6","366","3","right","in","Female","Right-handed","3","0","no","right","s","912.879481548","503.822116287","33","red","1"
"100","92","24","742.830659408","1","1","6","367","0","left","in","Female","Right-handed","3","0","no","left","d","611.587675198","623.364315433","33","red","1"
"100","92","24","736.917775154","1","1","6","368","3","left","in","Female","Right-handed","3","0","no","left","d","495.142937689","671.222631416","33","green","2"
"100","89","24","733.788512498","1","0","6","369","3","left","out","Female","Right-handed","3","0","no","left","d","706.736000888","591.86084065","33","red","1"
"100","89","24","738.241057125","1","1","6","370","0","left","in","Female","Right-handed","3","0","no","left","s","654.453106232","1071.37150714","33","green","2"
"100","90","24","743.650267781","1","1","6","371","1","right","out","Female","Right-handed","3","0","no","right","s","913.02252026","888.012233339","33","red","2"
"100","90","24","742.406975721","1","1","6","372","0","left","out","Female","Right-handed","3","0","no","left","s","658.660561115","751.555866722","33","green","2"
"100","90","24","746.94561434","1","1","6","373","2","left","out","Female","Right-handed","3","0","no","left","d","904.182022215","871.10480087","33","red","0"
"100","90","24","744.604042398","1","1","6","374","0","right","out","Female","Right-handed","3","0","no","right","s","707.548050261","631.799430219","33","green","3"
"100","91","24","745.124600359","1","1","6","375","0","right","in","Female","Right-handed","3","0","no","right","d","725.289982128","799.316044034","33","red","1"
"100","91","24","745.231997842","1","1","6","376","1","left","out","Female","Right-handed","3","0","no","left","s","761.946057726","735.820966845","33","red","2"
"100","91","24","744.115167652","1","1","6","377","1","left","out","Female","Right-handed","3","0","no","left","d","778.558432757","631.493789202","33","red","3"
"100","91","24","748.303668952","1","1","6","378","1","right","out","Female","Right-handed","3","0","no","right","d","903.047333948","895.132097536","33","green","2"
"100","89","24","747.247057583","1","0","6","379","2","left","in","Female","Right-handed","3","0","no","left","s","520.646804383","895.658069483","33","green","2"
"100","87","24","748.619967117","1","0","6","380","2","left","in","Female","Right-handed","3","0","no","left","s","810.33355281","791.24750604","33","green","1"
"100","85","24","747.388320761","1","0","6","381","0","left","out","Female","Right-handed","3","0","no","left","d","655.91107482","742.797150899","33","red","3"
"100","85","24","744.488619274","1","1","6","382","3","right","out","Female","Right-handed","3","0","no","right","d","705.51343682","551.487682795","33","red","2"
"100","85","24","747.763874698","1","1","6","383","1","right","in","Female","Right-handed","3","0","no","right","s","725.069971908","1039.02872224","33","green","1"
"100","86","24","748.084970217","1","1","6","384","0","right","out","Female","Right-handed","3","0","no","right","d","907.531565536","615.610398469","33","green","2"
"100","86","24","747.575809425","1","1","6","385","0","right","in","Female","Right-handed","3","0","no","right","s","772.231054347","679.132736397","33","green","1"
"100","86","24","743.100753597","1","1","6","386","1","right","out","Female","Right-handed","3","0","no","right","d","524.653171211","567.743423188","33","green","1"
"100","86","24","744.671902058","1","1","6","387","1","left","in","Female","Right-handed","3","0","no","left","d","959.460391267","671.286774341","33","red","3"
"100","87","24","745.072774545","1","1","6","388","0","left","out","Female","Right-handed","3","0","no","left","s","927.93382503","599.091992815","33","red","2"
"100","87","24","743.478418874","1","1","6","389","3","left","out","Female","Right-handed","3","0","no","left","s","713.491533297","623.595871377","33","green","3"
"100","87","24","746.453277744","1","1","6","390","1","right","in","Female","Right-handed","3","0","no","right","d","779.348352826","999.144654153","33","green","1"
"100","86","24","752.800168824","1","0","6","391","1","left","in","Female","Right-handed","3","0","no","left","s","935.793577817","1191.80208573","33","green","3"
"100","86","24","752.183857356","1","1","6","392","3","left","in","Female","Right-handed","3","0","no","left","s","747.406461178","695.33010673","33","red","2"
"100","86","24","751.247120322","1","1","6","393","2","right","in","Female","Right-handed","3","0","no","right","s","815.911100475","591.03596269","33","green","3"
"100","86","24","762.808876831","1","1","6","394","1","right","in","Female","Right-handed","3","0","no","right","s","1032.59550801","1695.44492256","33","green","2"
"100","85","24","761.027162876","1","0","6","395","2","left","out","Female","Right-handed","3","0","no","left","s","550.073331393","783.119315132","33","green","3"
"100","85","24","760.400971392","1","1","6","396","2","right","in","Female","Right-handed","3","0","no","right","d","638.605314816","814.567947716","33","green","3"
"100","85","24","757.765645959","1","1","6","397","2","left","out","Female","Right-handed","3","0","no","left","s","642.338753518","583.306740747","33","red","3"
"100","85","24","759.880233689","1","1","6","398","2","left","out","Female","Right-handed","3","0","no","left","d","1061.80619409","694.788099052","33","green","0"
"100","84","24","766.632004975","1","0","6","399","0","right","in","Female","Right-handed","3","0","no","right","d","1151.53123584","1151.43470074","33","red","1"
"100","84","24","765.289306343","1","1","6","400","1","right","in","Female","Right-handed","3","0","no","right","s","815.965942675","558.859628669","33","red","0"
"100","85","24","768.460597164","1","1","6","401","3","right","out","Female","Right-handed","3","0","no","right","s","775.58027695","1135.55323429","33","green","0"
"100","85","24","772.653209401","1","1","6","402","3","right","in","Female","Right-handed","3","0","no","right","d","793.259348753","1255.16053851","33","red","1"
"100","85","24","772.937953301","1","1","6","403","3","right","in","Female","Right-handed","3","0","no","right","d","837.915970849","742.698691516","33","red","2"
"100","85","24","771.516016047","1","1","6","404","2","right","in","Female","Right-handed","3","0","no","right","d","535.420201875","831.291610713","33","red","3"
"100","85","24","777.208121548","1","1","6","405","2","right","out","Female","Right-handed","3","0","no","right","s","1128.77268615","1142.84885009","33","red","1"
"100","100","24","666.0546363","1","1","7","406","3","right","out","Female","Right-handed","3","0","no","right","d","707.967224251","624.14204835","33","green","2"
"100","50","24","705.57525456","1","0","7","407","2","right","out","Female","Right-handed","3","0","no","right","s","618.649169333","871.542576307","33","green","3"
"100","66","24","669.928922161","1","1","7","408","0","right","out","Female","Right-handed","3","0","no","right","s","646.065136494","551.207378231","33","green","1"
"100","75","24","646.764254241","1","1","7","409","0","left","out","Female","Right-handed","3","0","no","left","d","530.735844379","623.804656585","33","red","1"
"100","80","24","665.80694841","1","1","7","410","3","right","out","Female","Right-handed","3","0","no","right","s","684.550247479","799.405202695","33","green","1"
"100","83","24","701.241331218","1","1","7","411","1","left","out","Female","Right-handed","3","0","no","left","d","636.980895353","1119.84559516","33","red","2"
"100","85","24","709.441549283","1","1","7","412","1","right","out","Female","Right-handed","3","0","no","right","d","837.620913415","679.664801926","33","green","3"
"100","87","24","693.228904917","1","1","7","413","2","right","in","Female","Right-handed","3","0","no","right","s","464.192054166","695.288734547","33","red","2"
"100","88","24","692.518775969","1","1","7","414","0","right","in","Female","Right-handed","3","0","no","right","s","829.947816528","543.727672248","33","green","0"
"100","90","24","725.3058575","1","1","7","415","3","right","out","Female","Right-handed","3","0","no","right","d","1225.3321561","815.447026446","33","red","1"
"100","81","24","719.467058631","1","0","7","416","0","right","out","Female","Right-handed","3","0","no","right","s","562.124824049","760.033315833","33","green","3"
"100","75","24","726.464278647","1","0","7","417","0","left","out","Female","Right-handed","3","0","no","left","s","727.431072821","879.436324841","33","green","3"
"100","76","24","745.320804774","1","1","7","418","0","right","in","Female","Right-handed","3","0","no","right","s","904.058867808","1039.13936877","33","red","2"
"100","78","24","739.593853441","1","1","7","419","2","left","out","Female","Right-handed","3","0","no","left","d","674.636317657","655.650654564","33","red","1"
"100","80","24","743.773758939","1","1","7","420","2","left","in","Female","Right-handed","3","0","no","left","d","877.306779876","727.278091956","33","red","0"
"100","81","24","750.49772902","1","1","7","421","1","left","out","Female","Right-handed","3","0","no","left","s","934.87761691","767.836943564","33","red","3"
"100","82","24","740.058880183","1","1","7","422","2","left","out","Female","Right-handed","3","0","no","left","s","562.577352353","583.497245221","33","green","3"
"100","83","24","735.091875647","1","1","7","423","1","right","out","Female","Right-handed","3","0","no","right","d","598.091683966","703.213913111","33","green","3"
"100","84","24","738.386244801","1","1","7","424","1","left","out","Female","Right-handed","3","0","no","left","d","787.695271098","807.674508029","33","green","2"
"100","85","24","742.127522861","1","1","7","425","0","right","in","Female","Right-handed","3","0","no","right","s","755.26236539","871.161246643","33","red","0"
"100","85","24","738.166849085","1","1","7","426","2","left","in","Female","Right-handed","3","0","no","left","d","573.999602955","743.907144144","33","red","1"
"100","81","24","742.845600672","1","0","7","427","0","right","in","Female","Right-handed","3","0","no","right","d","650.676691778","1031.52207623","33","red","3"
"100","82","24","733.813983662","1","1","7","428","1","left","in","Female","Right-handed","3","0","no","left","s","463.172181731","607.064637144","33","green","1"
"100","83","24","726.372059836","1","1","7","429","3","left","out","Female","Right-handed","3","0","no","left","s","534.690896868","575.724726808","33","green","3"
"100","80","24","732.968954506","1","0","7","430","0","left","in","Female","Right-handed","3","0","no","left","s","615.3278489","1167.26100428","33","red","3"
"100","80","24","731.390047895","1","1","7","431","1","right","in","Female","Right-handed","3","0","no","right","s","760.923619572","622.9111457","33","red","3"
"100","81","24","732.666804051","1","1","7","432","3","right","in","Female","Right-handed","3","0","no","right","s","804.347414734","727.377513482","33","red","2"
"100","82","24","749.771719927","1","1","7","433","2","left","in","Female","Right-handed","3","0","no","left","d","728.151077102","1695.05782003","33","green","3"
"100","82","24","745.786404539","1","1","7","434","0","right","out","Female","Right-handed","3","0","no","right","s","620.665502043","647.729645287","33","red","2"
"100","83","24","748.05168551","1","1","7","435","0","right","in","Female","Right-handed","3","0","no","right","d","684.281167927","943.208499451","33","green","3"
"100","83","24","753.820898089","1","1","7","436","3","right","out","Female","Right-handed","3","0","no","right","d","710.990280102","1142.80427076","33","red","3"
"100","84","24","753.569603648","1","1","7","437","3","left","out","Female","Right-handed","3","0","no","left","d","900.297847653","591.261104342","33","green","1"
"100","84","24","760.583341378","1","1","7","438","3","left","in","Female","Right-handed","3","0","no","left","d","1203.01523042","767.030667051","33","red","0"
"100","85","24","759.438093111","1","1","7","439","2","right","in","Female","Right-handed","3","0","no","right","s","563.583754778","879.706045824","33","red","2"
"100","85","24","755.88653099","1","1","7","440","2","right","in","Female","Right-handed","3","0","no","right","d","615.098537961","655.1682998","33","green","3"
"100","86","24","758.327385859","1","1","7","441","3","right","out","Female","Right-handed","3","0","no","right","d","592.74505081","1094.76956174","33","red","0"
"100","86","24","761.194029657","1","1","7","442","0","left","in","Female","Right-handed","3","0","no","left","s","641.386231146","1087.40018159","33","red","1"
"100","86","24","762.912408808","1","1","7","443","2","left","in","Female","Right-handed","3","0","no","left","d","693.927621771","959.057253011","33","red","1"
"100","87","24","771.596401263","1","1","7","444","1","left","in","Female","Right-handed","3","0","no","left","d","732.641402268","1470.53482688","33","green","2"
"100","87","24","767.411134794","1","1","7","445","1","right","in","Female","Right-handed","3","0","no","right","d","625.146526483","583.224958526","33","green","0"
"100","87","24","764.796573035","1","1","7","446","3","right","in","Female","Right-handed","3","0","no","right","d","497.765741715","822.662463593","33","red","3"
"100","88","24","769.392153583","1","1","7","447","1","left","in","Female","Right-handed","3","0","no","left","s","676.351499358","1239.27041276","33","green","1"
"100","88","24","767.529393177","1","1","7","448","2","left","out","Female","Right-handed","3","0","no","left","s","635.766669864","742.820242351","33","red","3"
"100","88","24","785.982203197","1","1","7","449","2","left","out","Female","Right-handed","3","0","no","left","d","791.4485941","2367.45747404","33","green","1"
"100","88","24","782.251543377","1","1","7","450","1","left","out","Female","Right-handed","3","0","no","left","d","501.105022165","735.100000416","33","red","1"
"100","89","24","780.128334227","1","1","7","451","0","left","in","Female","Right-handed","3","0","no","left","s","474.53734513","894.630499894","33","green","1"
"100","87","24","781.234686944","1","0","7","452","3","left","out","Female","Right-handed","3","0","no","left","s","497.117256786","1167.13656701","33","green","2"
"100","87","24","777.341578077","1","1","7","453","1","left","in","Female","Right-handed","3","0","no","left","d","501.934710843","686.796211849","33","red","1"
"100","87","24","773.222340642","1","1","7","454","3","left","out","Female","Right-handed","3","0","no","left","s","575.434480092","575.563407361","33","green","3"
"100","88","24","770.897731489","1","1","7","455","2","left","out","Female","Right-handed","3","0","no","left","s","579.003712916","734.980053156","33","red","2"
"100","88","24","773.625427114","1","1","7","456","3","right","out","Female","Right-handed","3","0","no","right","s","1181.57096917","638.449447521","33","red","1"
"100","88","24","774.21560239","1","1","7","457","0","right","in","Female","Right-handed","3","0","no","right","s","897.294676102","711.334406871","33","green","2"
"100","86","24","773.782956005","1","0","7","458","3","right","out","Female","Right-handed","3","0","no","right","d","623.746927955","878.823759951","33","green","3"
"100","87","24","772.19379503","1","1","7","459","1","right","in","Female","Right-handed","3","0","no","right","s","801.438533279","574.49799345","33","green","2"
"100","87","24","770.90715321","1","1","7","460","1","right","in","Female","Right-handed","3","0","no","right","s","723.889742167","678.967247663","33","green","0"
"100","87","24","767.144237247","1","1","7","461","2","right","out","Female","Right-handed","3","0","no","right","s","521.602533903","598.765184633","33","red","2"
"100","87","24","768.26030372","1","1","7","462","0","left","in","Female","Right-handed","3","0","no","left","s","1014.22337195","647.296680571","33","green","2"
"100","87","24","766.210467101","1","1","7","463","3","left","in","Female","Right-handed","3","0","no","left","s","499.857442359","798.882117179","33","red","3"
"100","88","24","766.724833062","1","1","7","464","2","right","out","Female","Right-handed","3","0","no","right","d","626.557991454","966.558126154","33","red","3"
"100","88","24","768.178988361","1","1","7","465","0","left","out","Female","Right-handed","3","0","no","left","s","932.847172757","775.101129329","33","red","3"
"100","88","24","764.179190883","1","1","7","466","3","left","in","Female","Right-handed","3","0","no","left","s","689.585787466","358.796896893","33","green","2"
"100","88","24","764.195803425","1","1","7","467","2","left","in","Female","Right-handed","3","0","no","left","d","915.237054592","615.181282326","33","green","0"
"100","88","24","766.110702302","1","1","7","468","1","right","in","Female","Right-handed","3","0","no","right","d","922.824520683","846.844344698","33","green","3"
"100","89","24","769.873356017","1","1","7","469","1","right","out","Female","Right-handed","3","0","no","right","s","583.504942369","1430.33613777","33","red","3"
"100","100","24","666.803825612","1","1","8","470","1","left","in","Female","Right-handed","3","0","no","left","d","773.808008049","559.799643175","33","green","0"
"100","100","24","752.556015211","1","1","8","471","1","right","out","Female","Right-handed","3","0","no","right","d","1173.17915086","503.437258761","33","green","2"
"100","100","24","695.188831948","1","1","8","472","0","right","in","Female","Right-handed","3","0","no","right","s","569.838972406","591.069958438","33","red","3"
"100","100","24","661.667982131","1","1","8","473","1","left","out","Female","Right-handed","3","0","no","left","s","554.444671438","567.766193923","33","green","1"
"100","100","24","657.090214132","1","1","8","474","0","right","out","Female","Right-handed","3","0","no","right","d","654.289541788","623.268742482","33","red","1"
"100","100","24","640.702387432","1","1","8","475","3","left","in","Female","Right-handed","3","0","no","left","s","590.750526695","526.775981172","33","red","2"
"100","100","24","650.809169817","1","1","8","476","2","left","in","Female","Right-handed","3","0","no","left","s","863.384879656","559.514848602","33","red","1"
"100","100","24","643.351029029","1","1","8","477","0","right","in","Female","Right-handed","3","0","no","right","s","631.125929551","551.162157469","33","green","1"
"100","100","24","638.730856768","1","1","8","478","2","left","in","Female","Right-handed","3","0","no","left","s","555.751583448","647.787373913","33","green","2"
"100","100","24","644.194825142","1","1","8","479","1","left","out","Female","Right-handed","3","0","no","left","d","731.487471126","655.253609886","33","green","3"
"100","100","24","649.938523384","1","1","8","480","2","left","in","Female","Right-handed","3","0","no","left","d","695.900016581","718.850995036","33","green","3"
"100","100","24","688.44825286","1","1","8","481","0","left","in","Female","Right-handed","3","0","no","left","s","616.582163715","1607.52839046","33","red","2"
"100","100","24","676.035287093","1","1","8","482","0","right","in","Female","Right-handed","3","0","no","right","s","567.178003337","486.981392459","33","green","3"
"100","100","24","679.408379146","1","1","8","483","2","right","in","Female","Right-handed","3","0","no","right","d","558.830443643","887.686708014","33","red","3"
"100","93","24","693.200668669","1","0","8","484","1","left","in","Female","Right-handed","3","0","no","left","s","582.377951254","1190.20749273","33","red","1"
"100","93","24","693.118889786","1","1","8","485","1","right","in","Female","Right-handed","3","0","no","right","s","712.928358451","670.856054625","33","green","3"
"100","88","24","701.880202569","1","0","8","486","2","right","out","Female","Right-handed","3","0","no","right","d","948.631783395","735.490630803","33","red","0"
"100","88","24","714.969528727","1","1","8","487","0","left","out","Female","Right-handed","3","0","no","left","d","532.00106349","1342.97508336","33","red","1"
"100","89","24","708.871884188","1","1","8","488","1","right","out","Female","Right-handed","3","0","no","right","d","503.562016744","694.666548213","33","red","3"
"100","90","24","711.789845662","1","1","8","489","2","left","in","Female","Right-handed","3","0","no","left","s","719.202818953","815.259408402","33","red","0"
"100","85","24","710.343093305","1","0","8","490","1","left","in","Female","Right-handed","3","0","no","left","s","635.936969316","726.879122987","33","green","3"
"100","86","24","716.483290317","1","1","8","491","1","right","in","Female","Right-handed","3","0","no","right","s","1083.45026053","607.404594623","33","green","2"
"100","86","24","720.354867641","1","1","8","492","3","right","in","Female","Right-handed","3","0","no","right","d","940.071910631","670.987226898","33","red","2"
"100","87","24","726.626860906","1","1","8","493","2","right","out","Female","Right-handed","3","0","no","right","d","535.507115535","1206.25829648","33","green","3"
"100","88","24","734.487153295","1","1","8","494","1","left","out","Female","Right-handed","3","0","no","left","s","767.160877178","1079.10746408","33","red","2"
"100","88","24","740.327025527","1","1","8","495","0","left","out","Female","Right-handed","3","0","no","left","s","965.868589756","806.77907286","33","red","2"
"100","88","24","752.643320853","1","1","8","496","0","left","out","Female","Right-handed","3","0","no","left","d","618.445836273","1527.28816239","33","red","3"
"100","89","24","758.653418343","1","1","8","497","3","left","in","Female","Right-handed","3","0","no","left","d","482.986571362","1358.86552982","33","green","3"
"100","89","24","752.370238512","1","1","8","498","3","left","out","Female","Right-handed","3","0","no","left","s","746.553039618","406.329366844","33","green","0"
"100","90","24","745.696651451","1","1","8","499","2","left","in","Female","Right-handed","3","0","no","left","s","505.174569771","599.150683589","33","green","3"
"100","90","24","742.003232244","1","1","8","500","2","left","in","Female","Right-handed","3","0","no","left","s","695.680006364","566.721305742","33","red","1"
"100","87","24","738.714554221","1","0","8","501","3","right","out","Female","Right-handed","3","0","no","right","s","634.200941167","639.330129823","33","green","2"
"100","87","24","734.387916811","1","1","8","502","2","right","out","Female","Right-handed","3","0","no","right","s","592.881675235","598.989364142","33","green","2"
"100","88","24","727.214505567","1","1","8","503","2","right","out","Female","Right-handed","3","0","no","right","s","502.484736389","478.499132627","33","red","3"
"100","88","24","728.313848928","1","1","8","504","0","right","in","Female","Right-handed","3","0","no","right","s","748.262127745","783.120918706","33","green","2"
"100","88","24","726.257921072","1","1","8","505","0","left","out","Female","Right-handed","3","0","no","left","d","685.842406616","622.758485548","33","red","1"
"100","89","24","724.15195236","1","1","8","506","3","left","in","Female","Right-handed","3","0","no","left","s","658.381860125","638.292297364","33","red","1"
"100","86","24","726.189907304","1","0","8","507","3","right","in","Female","Right-handed","3","0","no","right","s","932.173672088","671.014808355","33","green","1"
"100","87","24","724.289434798","1","1","8","508","1","right","in","Female","Right-handed","3","0","no","right","d","489.622797933","814.520161243","33","red","1"
"100","87","24","725.784780617","1","1","8","509","0","right","in","Female","Right-handed","3","0","no","right","d","761.167041954","807.03949312","33","red","3"
"100","87","24","725.359596751","1","1","8","510","2","right","out","Female","Right-handed","3","0","no","right","s","553.873158016","862.831326249","33","red","3"
"100","88","24","727.192602421","1","1","8","511","1","right","out","Female","Right-handed","3","0","no","right","s","558.367011039","1046.32465875","33","green","3"
"100","88","24","727.535551195","1","1","8","512","1","left","out","Female","Right-handed","3","0","no","left","d","756.91276274","726.966036644","33","red","2"
"100","88","24","727.545750157","1","1","8","513","3","right","in","Female","Right-handed","3","0","no","right","d","537.503563941","918.465047078","33","green","3"
"100","88","24","742.313466952","1","1","8","514","3","right","out","Female","Right-handed","3","0","no","right","d","801.237445223","1982.94856668","33","green","0"
"100","89","24","744.113077778","1","1","8","515","2","left","out","Female","Right-handed","3","0","no","left","d","595.549058591","1054.64207128","33","green","2"
"100","89","24","745.774798341","1","1","8","516","0","right","out","Female","Right-handed","3","0","no","right","s","694.279766405","950.148122039","33","red","3"
"100","89","24","742.996702199","1","1","8","517","0","right","in","Female","Right-handed","3","0","no","right","s","561.936243863","662.91612319","33","green","0"
"100","87","24","744.363661745","1","0","8","518","2","left","out","Female","Right-handed","3","0","no","left","s","781.600731487","838.35470843","33","green","1"
"100","88","24","741.539141453","1","1","8","519","2","left","out","Female","Right-handed","3","0","no","left","s","608.102790313","598.172504047","33","green","1"
"100","88","24","751.177983166","1","1","8","520","3","right","out","Female","Right-handed","3","0","no","right","d","619.64851604","1846.59162159","33","red","1"
"100","88","24","748.679528548","1","1","8","521","3","left","in","Female","Right-handed","3","0","no","left","s","476.333667622","766.183018353","33","red","3"
"100","88","24","749.106647959","1","1","8","522","3","right","in","Female","Right-handed","3","0","no","right","s","567.792492519","974.841222218","33","red","3"
"100","88","24","747.824803685","1","1","8","523","2","left","in","Female","Right-handed","3","0","no","left","d","809.337733964","550.436380323","33","green","2"
"100","89","24","746.219825894","1","1","8","524","1","right","out","Female","Right-handed","3","0","no","right","s","545.060882858","774.041167566","33","green","1"
"100","89","24","743.204555806","1","1","8","525","3","left","out","Female","Right-handed","3","0","no","left","d","563.974705881","590.754695983","33","red","3"
"100","89","24","741.784646457","1","1","8","526","3","right","in","Female","Right-handed","3","0","no","right","s","718.252220867","606.287224942","33","red","1"
"100","89","24","740.753045962","1","1","8","527","0","right","out","Female","Right-handed","3","0","no","right","d","524.959132945","838.944502582","33","green","0"
"100","89","24","739.486438509","1","1","8","528","0","left","out","Female","Right-handed","3","0","no","left","d","629.561804428","702.484608104","33","green","3"
"100","90","24","746.386762462","1","1","8","529","3","right","out","Female","Right-handed","3","0","no","right","d","844.93994138","1462.07180992","33","red","2"
"100","90","24","743.728306319","1","1","8","530","3","left","out","Female","Right-handed","3","0","no","left","d","577.667615876","590.774259573","33","red","3"
"100","90","24","743.301720322","1","1","8","531","1","right","in","Female","Right-handed","3","0","no","right","s","924.360102206","510.199846893","33","red","3"
"100","90","24","744.056543695","1","1","8","532","0","left","out","Female","Right-handed","3","0","no","left","d","814.877116594","766.834069","33","green","2"
"100","90","24","744.062610546","1","1","8","533","1","left","in","Female","Right-handed","3","0","no","left","s","650.579515252","838.3101291","33","green","0"
dis_reply=Yes
dis_loc=1
tar_loc=0
