"acc_1","acc_2","age","avg_rt","correct_1","correct_2","count_block_loop","count_trial_sequence","cue_position","detection","dis_shape","gender","hand","high_loc","low_loc","practice","response_keyboard_response_1","response_keyboard_response_2","response_time_keyboard_response_1","response_time_keyboard_response_2","subject_nr","tar_color","tar_position"
"100","0","22","1271.48751822","1","0","0","0","2","left","out","Female","Right-handed","2","3","yes","left","d","878.761065353","1664.21397109","20","red","2"
"100","50","22","1289.81883321","1","1","0","1","2","right","in","Female","Right-handed","2","3","yes","right","d","1319.09234763","1297.20794877","20","green","1"
"100","66","22","1169.29227925","1","1","0","2","3","right","out","Female","Right-handed","2","3","yes","right","d","982.792859417","873.685483242","20","red","3"
"100","75","22","1164.78720303","1","1","0","3","1","right","out","Female","Right-handed","2","3","yes","right","s","1205.28237696","1097.26157176","20","green","1"
"100","80","22","1116.09741423","1","1","0","4","2","right","in","Female","Right-handed","2","3","yes","right","s","904.858332058","937.818186019","20","red","2"
"100","83","22","1060.56780603","1","1","0","5","1","left","in","Female","Right-handed","2","3","yes","left","s","900.43443596","665.405094056","20","green","1"
"100","85","22","1018.92707119","1","1","0","6","3","right","out","Female","Right-handed","2","3","yes","right","s","672.105721944","866.059602333","20","green","3"
"100","87","22","1016.32089411","1","1","0","7","2","right","in","Female","Right-handed","2","3","yes","right","d","1106.49582145","889.659487646","20","green","0"
"100","88","22","989.087127869","1","1","0","8","2","right","out","Female","Right-handed","2","3","yes","right","s","797.212118025","745.221877922","20","red","3"
"100","90","22","997.104743774","1","1","0","9","0","left","in","Female","Right-handed","2","3","yes","left","s","888.815053946","1249.7115199","20","red","3"
"100","90","22","981.66379416","1","1","0","10","2","right","in","Female","Right-handed","2","3","yes","right","d","973.267082863","681.241513172","20","red","1"
"100","91","22","1015.30739193","1","1","0","11","0","right","in","Female","Right-handed","2","3","yes","right","s","1224.88876117","1545.88517369","20","green","1"
"100","92","22","980.978791143","1","1","0","12","0","right","out","Female","Right-handed","2","3","yes","right","d","608.467235779","529.603927564","20","green","1"
"100","92","22","977.617765078","1","1","0","13","0","left","in","Female","Right-handed","2","3","yes","left","d","1274.77032237","593.078530088","20","red","2"
"100","93","22","981.947698777","1","1","0","14","1","right","in","Female","Right-handed","2","3","yes","right","d","651.59845879","1433.53508232","20","red","2"
"100","87","22","974.436026611","1","0","0","15","1","right","out","Female","Right-handed","2","3","yes","right","d","818.322319028","905.199569221","20","green","3"
"100","88","22","974.910211122","1","1","0","16","0","left","in","Female","Right-handed","2","3","yes","left","d","1371.33979845","593.654528162","20","green","2"
"100","88","22","986.210398084","1","1","0","17","3","left","out","Female","Right-handed","2","3","yes","left","s","1331.36822633","1025.25892653","20","green","2"
"100","89","22","976.03637707","1","1","0","18","3","right","out","Female","Right-handed","2","3","yes","right","s","655.936083454","929.871914192","20","red","1"
"100","90","22","959.682636609","1","1","0","19","2","left","out","Female","Right-handed","2","3","yes","left","d","736.39749768","561.525638008","20","green","3"
"100","90","22","963.014184342","1","1","0","20","3","left","in","Female","Right-handed","2","3","yes","left","d","762.117928229","1297.17234978","20","red","1"
"100","90","22","953.929637212","1","1","0","21","2","left","in","Female","Right-handed","2","3","yes","left","d","988.663485634","537.644809312","20","red","0"
"100","100","22","859.496239016","1","1","1","22","3","left","out","Female","Right-handed","2","3","no","left","d","796.930533223","922.06194481","20","red","3"
"100","100","22","788.307559879","1","1","1","23","0","left","out","Female","Right-handed","2","3","no","left","d","792.569175894","641.668585591","20","green","1"
"100","100","22","747.768488544","1","1","1","24","0","right","out","Female","Right-handed","2","3","no","right","d","716.259694309","617.120997438","20","red","0"
"100","100","22","724.007806441","1","1","1","25","0","right","in","Female","Right-handed","2","3","no","right","d","751.690631307","553.760888961","20","green","1"
"100","80","22","792.601182912","1","0","1","26","2","right","out","Female","Right-handed","2","3","no","right","s","820.45473059","1313.494647","20","red","0"
"100","83","22","782.569922081","1","1","1","27","1","left","out","Female","Right-handed","2","3","no","left","d","718.951426941","745.875808912","20","red","1"
"100","71","22","772.923412873","1","0","1","28","3","right","out","Female","Right-handed","2","3","no","right","d","948.559138902","481.529576344","20","red","0"
"100","75","22","766.452706581","1","1","1","29","0","right","in","Female","Right-handed","2","3","no","right","s","857.177814709","585.137710365","20","red","2"
"100","77","22","797.594940795","1","1","1","30","3","left","out","Female","Right-handed","2","3","no","left","d","1139.71641396","953.749215059","20","green","2"
"100","80","22","831.470421087","1","1","1","31","0","right","out","Female","Right-handed","2","3","no","right","s","623.365894113","1649.33359332","20","green","0"
"100","81","22","838.230522031","1","1","1","32","1","left","in","Female","Right-handed","2","3","no","left","d","953.851522063","857.811540871","20","green","2"
"100","83","22","858.61814396","1","1","1","33","1","right","in","Female","Right-handed","2","3","no","right","s","1300.34835696","865.415613396","20","red","3"
"100","84","22","873.537881889","1","1","1","34","2","left","out","Female","Right-handed","2","3","no","left","s","1152.12089802","953.028576048","20","red","3"
"100","85","22","873.399912455","1","1","1","35","2","left","in","Female","Right-handed","2","3","no","left","d","1029.57057356","713.642046063","20","red","1"
"100","86","22","893.780770943","1","1","1","36","3","left","in","Female","Right-handed","2","3","no","left","s","949.010380151","1409.21519942","20","red","2"
"100","81","22","903.679055382","1","0","1","37","0","right","out","Female","Right-handed","2","3","no","right","s","998.731906253","1105.57473767","20","red","3"
"100","82","22","888.561927584","1","1","1","38","2","right","in","Female","Right-handed","2","3","no","right","d","716.114732659","577.261032959","20","green","2"
"100","83","22","881.659799518","1","1","1","39","1","right","in","Female","Right-handed","2","3","no","right","s","774.711952858","753.935291941","20","red","2"
"100","84","22","883.910335175","1","1","1","40","0","left","in","Female","Right-handed","2","3","no","left","d","1255.4301288","593.409825193","20","red","2"
"95","80","22","880.938055833","0","0","1","41","3","left","in","Female","Right-handed","2","3","no","right","d","508.972228297","1139.95726838","20","red","1"
"95","80","22","886.469491329","1","1","1","42","1","right","out","Female","Right-handed","2","3","no","right","s","1304.62568784","689.570714665","20","red","1"
"95","81","22","882.346154781","1","1","1","43","2","left","in","Female","Right-handed","2","3","no","left","s","790.250430877","801.261743658","20","red","1"
"95","82","22","875.641315175","1","1","1","44","1","left","in","Female","Right-handed","2","3","no","left","s","750.640942177","705.628745512","20","green","1"
"95","83","22","880.377391787","1","1","1","45","0","right","in","Female","Right-handed","2","3","no","right","d","1161.27657337","817.337734352","20","green","1"
"96","84","22","900.557306997","1","1","1","46","1","right","out","Female","Right-handed","2","3","no","right","s","1248.92705927","1520.82348481","20","green","2"
"96","80","22","916.416057261","1","0","1","47","3","right","out","Female","Right-handed","2","3","no","right","d","744.431965199","1881.33766251","20","green","0"
"96","81","22","919.265499832","1","1","1","48","1","right","in","Female","Right-handed","2","3","no","right","d","1089.86692392","896.835089443","20","red","0"
"96","78","22","951.049052292","1","0","1","49","2","right","out","Female","Right-handed","2","3","no","right","None","618.326231706","3000.08370573","20","green","1"
"96","79","22","941.805189941","1","1","1","50","1","right","in","Female","Right-handed","2","3","no","right","d","852.96270188","512.991386327","20","red","2"
"96","80","22","929.481544008","1","1","1","51","0","left","out","Female","Right-handed","2","3","no","left","d","566.60378581","577.587838103","20","green","2"
"96","80","22","921.248371845","1","1","1","52","0","right","in","Female","Right-handed","2","3","no","right","d","731.302352164","617.204061749","20","red","1"
"96","78","22","911.689494586","1","0","1","53","2","right","in","Female","Right-handed","2","3","no","right","d","541.764991507","688.963607572","20","green","2"
"96","78","22","903.238923024","1","1","1","54","0","left","in","Female","Right-handed","2","3","no","left","d","632.38687058","633.254395514","20","green","2"
"97","79","22","905.730761991","1","1","1","55","2","right","in","Female","Right-handed","2","3","no","right","d","615.028995537","1360.89390026","20","red","2"
"97","80","22","893.928502934","1","1","1","56","0","left","out","Female","Right-handed","2","3","no","left","d","463.659845558","521.643544427","20","green","2"
"97","80","22","890.353890663","1","1","1","57","3","right","out","Female","Right-handed","2","3","no","right","s","769.249271823","761.235650563","20","green","0"
"97","81","22","890.85049792","1","1","1","58","2","right","in","Female","Right-handed","2","3","no","right","d","696.731884444","1120.72483392","20","green","0"
"97","81","22","893.138934435","1","1","1","59","1","left","in","Female","Right-handed","2","3","no","left","d","986.299520278","969.322650642","20","green","0"
"97","82","22","889.108784674","1","1","1","60","0","left","in","Female","Right-handed","2","3","no","left","s","638.914955616","833.011231964","20","red","0"
"97","80","22","882.782532506","1","0","1","61","2","left","out","Female","Right-handed","2","3","no","left","d","606.530458306","665.586937543","20","green","3"
"97","78","22","884.008228177","1","0","1","62","3","left","in","Female","Right-handed","2","3","no","left","d","664.98464112","1201.08746896","20","green","2"
"97","78","22","878.606879423","1","1","1","63","3","left","out","Female","Right-handed","2","3","no","left","d","569.461326348","744.84183465","20","red","3"
"97","79","22","874.993826301","1","1","1","64","2","left","out","Female","Right-handed","2","3","no","left","d","645.190640611","801.300549763","20","green","0"
"97","79","22","869.480061009","1","1","1","65","1","left","out","Female","Right-handed","2","3","no","left","d","751.918015849","512.858291007","20","red","1"
"97","80","22","869.001675326","1","1","1","66","3","right","out","Female","Right-handed","2","3","no","right","d","710.431722742","985.473687859","20","green","0"
"97","80","22","867.775074845","1","1","1","67","3","right","in","Female","Right-handed","2","3","no","right","s","1192.04917407","433.106932312","20","red","1"
"97","78","22","868.994847202","1","0","1","68","1","left","in","Female","Right-handed","2","3","no","left","s","1265.6967492","584.512001991","20","green","3"
"97","79","22","865.061945316","1","1","1","69","3","left","in","Female","Right-handed","2","3","no","left","d","839.222453917","521.208659469","20","red","2"
"97","79","22","866.872488476","1","1","1","70","3","right","in","Female","Right-handed","2","3","no","right","s","1018.77125115","888.785869189","20","green","1"
"98","80","22","862.51193849","1","1","1","71","0","right","out","Female","Right-handed","2","3","no","right","s","745.290830917","552.399147418","20","green","0"
"98","80","22","861.1579937","1","1","1","72","1","left","out","Female","Right-handed","2","3","no","left","d","689.93183595","896.989672445","20","red","2"
"98","80","22","858.15732659","1","1","1","73","3","left","in","Female","Right-handed","2","3","no","left","s","777.705154414","632.541453582","20","green","1"
"98","81","22","853.206146205","1","1","1","74","2","left","out","Female","Right-handed","2","3","no","left","s","470.172215726","721.317316566","20","red","1"
"98","81","22","853.902983808","1","1","1","75","1","right","in","Female","Right-handed","2","3","no","right","d","972.776073373","808.894680227","20","green","2"
"98","80","22","853.048416434","1","0","1","76","1","right","in","Female","Right-handed","2","3","no","right","s","549.419736464","1064.38381997","20","green","0"
"98","80","22","851.198945459","1","1","1","77","2","right","out","Female","Right-handed","2","3","no","right","s","625.804585277","873.151498399","20","green","2"
"98","80","22","851.092066955","1","1","1","78","1","right","out","Female","Right-handed","2","3","no","right","s","913.608627914","776.605113555","20","red","0"
"98","81","22","845.637418991","1","1","1","79","0","right","out","Female","Right-handed","2","3","no","right","s","500.174467121","569.270502936","20","red","2"
"98","81","22","841.072913765","1","1","1","80","2","right","out","Female","Right-handed","2","3","no","right","s","535.866142665","616.797078703","20","red","2"
"98","81","22","841.869965763","1","1","1","81","2","left","out","Female","Right-handed","2","3","no","left","s","529.439081791","1248.35298547","20","green","2"
"98","81","22","839.846190703","1","1","1","82","3","left","out","Female","Right-handed","2","3","no","left","s","651.855028085","784.984346064","20","green","2"
"98","82","22","840.839833658","1","1","1","83","2","left","in","Female","Right-handed","2","3","no","left","s","1218.56272446","584.341383408","20","red","0"
"98","82","22","841.41501673","1","1","1","84","0","left","out","Female","Right-handed","2","3","no","left","s","841.033512439","913.119221979","20","red","3"
"98","82","22","845.459463093","1","1","1","85","3","left","in","Female","Right-handed","2","3","no","left","s","1367.70453223","832.814635738","20","green","2"
"100","100","22","907.105077315","1","1","2","86","2","right","out","Female","Right-handed","2","3","no","right","s","1124.60672738","689.603427254","20","red","2"
"100","100","22","726.145630016","1","1","2","87","0","right","out","Female","Right-handed","2","3","no","right","d","617.144088676","473.228276758","20","red","2"
"100","100","22","751.199568365","1","1","2","88","2","left","out","Female","Right-handed","2","3","no","left","d","785.805047104","816.809843021","20","green","0"
"100","100","22","715.59910855","1","1","2","89","2","left","out","Female","Right-handed","2","3","no","left","d","680.246986434","537.348471775","20","red","1"
"100","100","22","693.080422287","1","1","2","90","2","left","out","Female","Right-handed","2","3","no","left","s","445.103150476","760.908203993","20","red","2"
"100","100","22","710.509388404","1","1","2","91","1","left","out","Female","Right-handed","2","3","no","left","d","881.617323048","713.691114939","20","green","0"
"100","100","22","749.832038742","1","1","2","92","3","left","in","Female","Right-handed","2","3","no","left","d","986.279956873","985.255924668","20","green","3"
"100","100","22","767.134078464","1","1","2","93","1","right","out","Female","Right-handed","2","3","no","right","d","735.722079007","1040.77463402","20","green","1"
"100","88","22","778.322880629","1","0","2","94","0","left","in","Female","Right-handed","2","3","no","left","d","726.307268673","1009.35932722","20","red","0"
"100","90","22","763.432990193","1","1","2","95","3","left","out","Female","Right-handed","2","3","no","left","d","665.870446617","592.977505927","20","red","2"
"100","90","22","758.98480894","1","1","2","96","1","left","out","Female","Right-handed","2","3","no","left","d","835.460827322","593.545165499","20","green","0"
"100","91","22","796.163310847","1","1","2","97","0","right","in","Female","Right-handed","2","3","no","right","d","1593.089755","817.16390865","20","green","1"
"100","84","22","784.697666882","1","0","2","98","1","right","out","Female","Right-handed","2","3","no","right","d","660.614624579","633.605254028","20","red","2"
"100","85","22","779.489857312","1","1","2","99","3","right","in","Female","Right-handed","2","3","no","right","d","582.217951767","841.358714024","20","red","2"
"100","86","22","767.811842341","1","1","2","100","3","right","out","Female","Right-handed","2","3","no","right","s","487.862348007","720.776917486","20","red","2"
"100","87","22","777.920622511","1","1","2","101","0","left","out","Female","Right-handed","2","3","no","left","s","961.522944031","897.581706096","20","green","2"
"100","88","22","762.987415163","1","1","2","102","0","right","in","Female","Right-handed","2","3","no","right","d","479.067152523","569.045042663","20","red","3"
"100","88","22","752.222620617","1","1","2","103","1","left","in","Female","Right-handed","2","3","no","left","s","401.723375962","736.718850723","20","red","2"
"100","84","22","763.807209172","1","0","2","104","3","left","in","Female","Right-handed","2","3","no","left","d","1207.32498927","737.334617035","20","green","0"
"100","85","22","764.585796131","1","1","2","105","0","right","out","Female","Right-handed","2","3","no","right","s","509.942380948","1048.81551577","20","red","2"
"100","85","22","754.603693138","1","1","2","106","2","left","in","Female","Right-handed","2","3","no","left","d","444.424845402","665.498421135","20","green","2"
"100","86","22","751.849631382","1","1","2","107","3","right","out","Female","Right-handed","2","3","no","right","d","579.108652608","808.920016443","20","green","2"
"100","86","22","752.92622163","1","1","2","108","1","left","in","Female","Right-handed","2","3","no","left","s","744.601621646","808.620792504","20","green","2"
"100","87","22","747.461300263","1","1","2","109","0","right","out","Female","Right-handed","2","3","no","right","s","658.222757312","585.313460331","20","green","0"
"100","84","22","748.675743233","1","0","2","110","3","left","out","Female","Right-handed","2","3","no","left","s","634.862764291","920.781984732","20","green","1"
"100","84","22","739.960566779","1","1","2","111","2","right","out","Female","Right-handed","2","3","no","right","d","483.517988396","560.644322475","20","red","3"
"100","85","22","744.205340865","1","1","2","112","2","left","out","Female","Right-handed","2","3","no","left","s","780.035445048","929.10348915","20","red","0"
"100","85","22","746.655017886","1","1","2","113","2","left","in","Female","Right-handed","2","3","no","left","s","1160.75669982","464.835895069","20","red","1"
"100","86","22","738.574880755","1","1","2","114","3","right","in","Female","Right-handed","2","3","no","right","s","535.327667858","489.334414346","20","red","2"
"100","86","22","730.138473656","1","1","2","115","0","left","out","Female","Right-handed","2","3","no","left","d","394.029183473","576.936152091","20","red","2"
"100","83","22","727.408819979","1","0","2","116","3","left","out","Female","Right-handed","2","3","no","left","d","634.586310873","656.452108455","20","red","1"
"100","81","22","736.166971169","1","0","2","117","2","right","out","Female","Right-handed","2","3","no","right","s","646.18228094","1369.15703516","20","red","2"
"100","81","22","748.469301746","1","1","2","118","1","right","in","Female","Right-handed","2","3","no","right","d","755.608444462","1528.67931596","20","red","2"
"100","79","22","747.980101617","1","0","2","119","2","left","out","Female","Right-handed","2","3","no","left","d","534.407866926","929.265127805","20","red","2"
"100","80","22","742.647649445","1","1","2","120","3","right","out","Female","Right-handed","2","3","no","right","s","553.909699156","568.778852019","20","green","0"
"100","80","22","761.142252209","1","1","2","121","3","right","in","Female","Right-handed","2","3","no","right","d","576.429107015","2240.47759092","20","green","0"
"100","81","22","761.649858286","1","1","2","122","1","left","in","Female","Right-handed","2","3","no","left","d","822.846277148","737.001076948","20","red","3"
"100","81","22","767.069099547","1","1","2","123","1","right","in","Female","Right-handed","2","3","no","right","d","990.577171873","944.584880501","20","green","2"
"100","82","22","767.342295858","1","1","2","124","0","left","out","Female","Right-handed","2","3","no","left","s","506.246500234","1049.20101114","20","green","1"
"100","82","22","768.565650951","1","1","2","125","3","left","in","Female","Right-handed","2","3","no","left","s","607.819398309","1024.73360089","20","green","2"
"100","82","22","768.523712627","1","1","2","126","2","right","in","Female","Right-handed","2","3","no","right","d","909.379724482","624.31263482","20","red","1"
"100","83","22","774.486274963","1","1","2","127","0","left","in","Female","Right-handed","2","3","no","left","d","1148.85894012","889.043721334","20","red","0"
"100","83","22","775.603337244","1","1","2","128","1","left","out","Female","Right-handed","2","3","no","left","s","676.471889947","968.5680162","20","red","2"
"100","84","22","771.341120658","1","1","2","129","2","left","in","Female","Right-handed","2","3","no","left","s","519.13654169","656.995073226","20","green","1"
"100","84","22","766.993653545","1","1","2","130","1","right","out","Female","Right-handed","2","3","no","right","d","758.763284677","392.646916389","20","green","1"
"100","84","22","768.545539893","1","1","2","131","2","right","in","Female","Right-handed","2","3","no","right","d","596.300078316","1080.4607728","20","green","3"
"100","82","22","771.879922539","1","0","2","132","1","right","out","Female","Right-handed","2","3","no","right","d","625.698109019","1224.82493956","20","green","1"
"100","83","22","765.894130502","1","1","2","133","0","right","in","Female","Right-handed","2","3","no","right","s","552.537694839","416.586114599","20","red","2"
"100","83","22","768.316429715","1","1","2","134","0","right","in","Female","Right-handed","2","3","no","right","d","736.078068909","1033.09551498","20","green","1"
"100","84","22","765.856117221","1","1","2","135","1","left","in","Female","Right-handed","2","3","no","left","d","761.766428292","528.835181809","20","green","0"
"100","84","22","763.591359164","1","1","2","136","3","left","out","Female","Right-handed","2","3","no","left","d","532.343125513","768.363787039","20","green","3"
"100","82","22","760.454831863","1","0","2","137","2","left","out","Female","Right-handed","2","3","no","left","d","704.046033665","496.937845444","20","green","0"
"100","83","22","760.700733833","1","1","2","138","3","right","out","Female","Right-handed","2","3","no","right","s","698.464047906","848.511224583","20","green","0"
"100","83","22","763.21741675","1","1","2","139","0","left","in","Female","Right-handed","2","3","no","left","d","841.063659329","952.139563436","20","red","0"
"100","83","22","763.017900432","1","1","2","140","1","right","in","Female","Right-handed","2","3","no","right","s","679.737375667","824.750662752","20","red","1"
"100","83","22","776.850755748","1","1","2","141","3","left","in","Female","Right-handed","2","3","no","left","d","731.264187481","2344.05140879","20","red","1"
"100","84","22","772.148305133","1","1","2","142","3","right","out","Female","Right-handed","2","3","no","right","s","640.767706649","376.85443477","20","red","1"
"98","84","22","782.824784603","0","1","2","143","0","left","in","Female","Right-handed","2","3","no","right","s","1963.39301349","819.375215277","20","green","3"
"98","84","22","782.292298158","1","1","2","144","0","right","out","Female","Right-handed","2","3","no","right","d","725.951920198","776.864248543","20","green","1"
"98","85","22","781.122513122","1","1","2","145","2","right","in","Female","Right-handed","2","3","no","right","s","1039.63322136","384.577170593","20","green","0"
"98","85","22","782.12182661","1","1","2","146","0","right","in","Female","Right-handed","2","3","no","right","s","900.055354825","784.105916937","20","green","2"
"98","85","22","780.292086763","1","1","2","147","2","left","in","Female","Right-handed","2","3","no","left","s","528.560973373","808.794938915","20","red","2"
"98","85","22","779.529812634","1","1","2","148","1","right","in","Female","Right-handed","2","3","no","right","s","768.286174829","696.251458437","20","red","0"
"98","85","22","783.754890551","1","1","2","149","1","right","in","Female","Right-handed","2","3","no","right","d","1138.88897797","960.980620679","20","green","3"
"100","100","22","620.787693397","1","1","3","150","2","right","out","Female","Right-handed","2","3","no","right","d","792.754867922","448.820518872","20","red","0"
"100","50","22","688.086621642","1","0","3","151","2","left","in","Female","Right-handed","2","3","no","left","s","653.348582102","857.422517675","20","green","1"
"100","66","22","699.011556095","1","1","3","152","3","left","out","Female","Right-handed","2","3","no","left","s","776.862324277","664.860525721","20","red","3"
"100","75","22","713.383752941","1","1","3","153","2","right","out","Female","Right-handed","2","3","no","right","s","552.432501427","960.568185535","20","green","3"
"100","80","22","699.038827273","1","1","3","154","0","right","in","Female","Right-handed","2","3","no","right","d","562.127934434","721.190314769","20","green","0"
"100","83","22","719.478169053","1","1","3","155","2","right","in","Female","Right-handed","2","3","no","right","d","1082.63166976","560.718086144","20","green","1"
"100","85","22","835.654834943","1","1","3","156","2","right","in","Female","Right-handed","2","3","no","right","s","704.13422936","2361.29543121","20","red","2"
"100","87","22","838.171361671","1","1","3","157","1","right","out","Female","Right-handed","2","3","no","right","s","990.784993006","720.789104525","20","red","0"
"100","88","22","811.021906956","1","1","3","158","0","left","out","Female","Right-handed","2","3","no","left","d","635.305987751","552.346550714","20","green","3"
"100","90","22","798.171013699","1","1","3","159","2","right","in","Female","Right-handed","2","3","no","right","s","547.990324772","817.035624004","20","green","3"
"100","90","22","779.664848193","1","1","3","160","1","left","in","Female","Right-handed","2","3","no","left","d","772.593011181","416.613375088","20","green","3"
"100","91","22","853.042772881","1","1","3","161","2","right","in","Female","Right-handed","2","3","no","right","s","943.184653562","2377.21523534","20","green","1"
"100","92","22","833.404128368","1","1","3","162","1","left","in","Female","Right-handed","2","3","no","left","s","546.778355558","648.702432853","20","green","1"
"100","92","22","832.684552815","1","1","3","163","3","left","out","Female","Right-handed","2","3","no","left","s","1166.31014225","480.349999005","20","green","0"
"100","93","22","839.46204688","1","1","3","164","0","left","in","Female","Right-handed","2","3","no","left","d","1043.94422697","824.749700616","20","red","3"
"100","93","22","829.620438198","1","1","3","165","3","left","out","Female","Right-handed","2","3","no","left","s","627.544125109","736.448490825","20","green","2"
"100","88","22","824.852186844","1","0","3","166","0","left","out","Female","Right-handed","2","3","no","left","s","617.045950919","880.074379438","20","red","1"
"100","88","22","818.84393866","1","1","3","167","3","left","out","Female","Right-handed","2","3","no","left","d","1000.59780646","432.809632635","20","green","0"
"100","89","22","828.92327285","1","1","3","168","0","right","in","Female","Right-handed","2","3","no","right","s","612.351053507","1408.35152303","20","green","2"
"100","90","22","819.750087073","1","1","3","169","3","left","in","Female","Right-handed","2","3","no","left","d","601.983729659","688.935384947","20","green","1"
"100","90","22","809.189421843","1","1","3","170","1","left","in","Female","Right-handed","2","3","no","left","d","563.443814211","632.508420284","20","red","1"
"100","90","22","800.598512026","1","1","3","171","1","left","in","Female","Right-handed","2","3","no","left","d","511.176799977","729.20201176","20","red","1"
"100","91","22","795.081351849","1","1","3","172","1","right","in","Female","Right-handed","2","3","no","right","s","618.651433291","728.756222608","20","green","2"
"100","91","22","789.107227578","1","1","3","173","1","right","out","Female","Right-handed","2","3","no","right","s","639.172487048","664.232251656","20","red","1"
"100","88","22","798.295809004","1","0","3","174","2","right","in","Female","Right-handed","2","3","no","right","d","548.920067759","1488.72345871","20","green","2"
"100","88","22","797.629357675","1","1","3","175","0","right","in","Female","Right-handed","2","3","no","right","d","577.47687188","984.459276999","20","red","2"
"100","88","22","795.588723313","1","1","3","176","2","right","out","Female","Right-handed","2","3","no","right","s","499.986850824","985.077609006","20","green","2"
"100","89","22","804.336824035","1","1","3","177","0","left","out","Female","Right-handed","2","3","no","left","s","776.536801979","1304.53428503","20","red","0"
"100","89","22","801.9535518","1","1","3","178","1","right","in","Female","Right-handed","2","3","no","right","s","742.192435951","728.251422515","20","green","0"
"100","86","22","797.285534259","1","0","3","179","3","left","in","Female","Right-handed","2","3","no","left","d","722.897783435","600.928267715","20","green","0"
"100","87","22","791.917427806","1","1","3","180","3","right","in","Female","Right-handed","2","3","no","right","s","629.401686816","632.346781625","20","red","1"
"100","87","22","792.311499139","1","1","3","181","1","right","in","Female","Right-handed","2","3","no","right","s","760.96817707","848.087243823","20","red","0"
"100","87","22","793.016626915","1","1","3","182","2","left","in","Female","Right-handed","2","3","no","left","s","534.48515843","1096.67627305","20","green","1"
"100","88","22","792.786608939","1","1","3","183","3","right","out","Female","Right-handed","2","3","no","right","d","618.210775527","952.181255943","20","red","0"
"100","88","22","788.056406027","1","1","3","184","0","left","in","Female","Right-handed","2","3","no","left","d","685.684010536","568.775003481","20","red","0"
"100","88","22","782.815885623","1","1","3","185","0","right","out","Female","Right-handed","2","3","no","right","d","638.462752231","560.33259078","20","red","2"
"100","89","22","784.402172129","1","1","3","186","3","left","out","Female","Right-handed","2","3","no","left","d","818.915956239","864.101016465","20","red","2"
"100","89","22","783.116580666","1","1","3","187","0","left","out","Female","Right-handed","2","3","no","left","d","782.590875242","688.508517778","20","red","1"
"100","87","22","792.32353135","1","0","3","188","0","right","out","Female","Right-handed","2","3","no","right","s","612.191339118","1672.18397558","20","green","1"
"100","87","22","785.984926233","1","1","3","189","1","left","in","Female","Right-handed","2","3","no","left","d","596.746508894","480.812144451","20","green","2"
"100","87","22","784.398433313","1","1","3","190","2","right","out","Female","Right-handed","2","3","no","right","d","593.446386316","848.431046681","20","green","0"
"100","88","22","781.485794628","1","1","3","191","0","left","out","Female","Right-handed","2","3","no","left","s","548.005718927","776.129498223","20","red","2"
"100","88","22","779.046963354","1","1","3","192","1","right","out","Female","Right-handed","2","3","no","right","d","584.689034804","768.543064834","20","red","2"
"100","86","22","775.938634718","1","0","3","193","0","left","in","Female","Right-handed","2","3","no","left","d","636.288327441","648.272679286","20","red","0"
"100","86","22","780.356523705","1","1","3","194","0","right","in","Female","Right-handed","2","3","no","right","s","740.737688044","1208.74959029","20","red","2"
"100","84","22","774.554514826","1","0","3","195","2","right","out","Female","Right-handed","2","3","no","right","d","474.407212678","552.521017835","20","green","2"
"100","85","22","771.669095591","1","1","3","196","2","left","out","Female","Right-handed","2","3","no","left","s","461.985089478","815.894532061","20","red","2"
"100","85","22","771.291192601","1","1","3","197","3","left","out","Female","Right-handed","2","3","no","left","d","562.493224967","944.566279228","20","green","2"
"100","85","22","788.166024604","1","1","3","198","1","left","out","Female","Right-handed","2","3","no","left","d","884.157679793","2312.15824168","20","green","0"
"100","86","22","784.257241508","1","1","3","199","1","right","out","Female","Right-handed","2","3","no","right","s","440.696252099","744.757487493","20","green","3"
"100","86","22","781.884759435","1","1","3","200","3","left","in","Female","Right-handed","2","3","no","left","d","542.277488676","784.243822934","20","green","2"
"100","86","22","782.547887549","1","1","3","201","3","left","out","Female","Right-handed","2","3","no","left","d","616.817924954","1015.91691773","20","green","1"
"100","84","22","779.310567197","1","0","3","202","0","right","in","Female","Right-handed","2","3","no","right","d","565.463014573","656.476803248","20","red","1"
"100","85","22","780.926865967","1","1","3","203","1","right","out","Female","Right-handed","2","3","no","right","d","565.0608422","1168.12055934","20","red","2"
"100","85","22","777.739595925","1","1","3","204","2","right","out","Female","Right-handed","2","3","no","right","s","579.638468204","631.61555913","20","green","0"
"100","85","22","771.168301349","1","1","3","205","3","left","in","Female","Right-handed","2","3","no","left","s","427.308466209","392.185733079","20","red","2"
"100","85","22","769.329829519","1","1","3","206","3","right","out","Female","Right-handed","2","3","no","right","s","804.854675946","527.896138185","20","green","1"
"100","86","22","766.351241442","1","1","3","207","2","left","out","Female","Right-handed","2","3","no","left","d","792.529086939","400.614355182","20","red","0"
"100","86","22","764.389865656","1","1","3","208","1","right","in","Female","Right-handed","2","3","no","right","d","741.099771461","560.160368641","20","red","2"
"100","86","22","773.285812423","1","1","3","209","3","left","in","Female","Right-handed","2","3","no","left","d","1404.76436355","1191.52897982","20","red","2"
"100","86","22","770.473564777","1","1","3","210","0","right","in","Female","Right-handed","2","3","no","right","s","507.285605887","696.191806073","20","red","2"
"100","87","22","773.631617659","1","1","3","211","3","left","in","Female","Right-handed","2","3","no","left","d","1148.77972435","783.76596262","20","red","3"
"100","87","22","771.073441342","1","1","3","212","2","right","out","Female","Right-handed","2","3","no","right","d","568.358078374","656.574941007","20","red","2"
"100","87","22","768.29187247","1","1","3","213","1","left","out","Female","Right-handed","2","3","no","left","s","513.973726021","672.132341009","20","green","2"
"100","100","22","587.817897376","1","1","4","214","3","right","in","Female","Right-handed","2","3","no","right","s","638.963383073","536.672411679","20","red","0"
"100","100","22","550.932052111","1","1","4","215","3","right","in","Female","Right-handed","2","3","no","right","d","611.649336479","416.443077214","20","green","2"
"66","100","22","580.143001035","0","1","4","216","3","right","in","Female","Right-handed","2","3","no","left","d","674.092530433","603.03726733","20","red","0"
"75","100","22","577.043630571","1","1","4","217","0","right","in","Female","Right-handed","2","3","no","right","d","486.756213628","648.734824728","20","green","3"
"80","100","22","595.507118836","1","1","4","218","2","right","in","Female","Right-handed","2","3","no","right","s","610.331211719","728.390932072","20","green","0"
"83","100","22","581.934175436","1","1","4","219","2","right","out","Female","Right-handed","2","3","no","right","s","523.026452935","505.112463943","20","red","2"
"85","100","22","592.89826725","1","1","4","220","1","left","out","Female","Right-handed","2","3","no","left","s","508.62201121","808.743625057","20","green","0"
"87","100","22","594.752063459","1","1","4","221","0","left","out","Female","Right-handed","2","3","no","left","d","583.176558804","632.280715032","20","green","1"
"88","100","22","614.264169592","1","1","4","222","2","right","out","Female","Right-handed","2","3","no","right","s","971.861724542","568.860312771","20","red","1"
"90","100","22","617.634472779","1","1","4","223","1","right","in","Female","Right-handed","2","3","no","right","s","775.462418049","520.471984877","20","red","2"
"90","100","22","611.94631544","1","1","4","224","2","left","in","Female","Right-handed","2","3","no","left","d","430.03355285","680.09593126","20","red","2"
"91","100","22","633.504416947","1","1","4","225","1","left","in","Female","Right-handed","2","3","no","left","s","1092.59457625","648.692490795","20","red","3"
"92","100","22","633.11033432","1","1","4","226","0","right","in","Female","Right-handed","2","3","no","right","s","560.379735387","696.382950198","20","green","0"
"92","100","22","639.884604293","1","1","4","227","0","right","out","Female","Right-handed","2","3","no","right","s","447.015874583","1008.88435331","20","green","2"
"93","100","22","641.721492318","1","1","4","228","0","left","out","Female","Right-handed","2","3","no","left","d","863.410524344","471.465324979","20","red","0"
"93","100","22","647.900784092","1","1","4","229","0","right","out","Female","Right-handed","2","3","no","right","s","889.035382832","592.144938561","20","red","1"
"94","100","22","645.95199113","1","1","4","230","3","right","out","Female","Right-handed","2","3","no","right","d","572.787426565","656.755180939","20","green","2"
"94","94","22","667.108723092","1","0","4","231","3","right","in","Female","Right-handed","2","3","no","right","s","845.264660849","1208.28167204","20","red","2"
"94","94","22","668.305365198","1","1","4","232","2","left","in","Female","Right-handed","2","3","no","left","d","714.704563663","664.985282543","20","red","2"
"95","95","22","659.539398781","1","1","4","233","1","right","out","Female","Right-handed","2","3","no","right","d","513.501638514","472.470435201","20","red","2"
"95","95","22","660.325579412","1","1","4","234","1","right","out","Female","Right-handed","2","3","no","right","s","784.015155546","568.083228514","20","green","1"
"95","95","22","655.843631043","1","1","4","235","2","left","out","Female","Right-handed","2","3","no","left","d","514.756903798","608.688526798","20","green","1"
"95","95","22","685.616479825","1","1","4","236","3","left","out","Female","Right-handed","2","3","no","left","s","2153.0365297","528.201776356","20","red","3"
"95","95","22","694.356928034","1","1","4","237","0","right","in","Female","Right-handed","2","3","no","right","s","430.863233814","1359.91123985","20","green","2"
"96","96","22","717.978817639","1","1","4","238","3","left","out","Female","Right-handed","2","3","no","left","s","1785.43943585","784.368900466","20","green","2"
"96","96","22","714.420308318","1","1","4","239","2","left","in","Female","Right-handed","2","3","no","left","s","738.923743116","511.991407497","20","green","0"
"96","96","22","726.071201163","1","1","4","240","1","left","out","Female","Right-handed","2","3","no","left","d","1185.42872409","872.560106171","20","red","2"
"96","96","22","719.143275488","1","1","4","241","1","right","in","Female","Right-handed","2","3","no","right","d","464.029946768","600.148617767","20","red","0"
"93","96","22","719.387865692","0","1","4","242","3","right","in","Female","Right-handed","2","3","no","left","s","993.587691857","458.885090949","20","red","1"
"93","93","22","727.584369072","1","0","4","243","0","right","out","Female","Right-handed","2","3","no","right","s","1010.23486995","920.331064193","20","red","0"
"93","93","22","728.173406828","1","1","4","244","2","left","in","Female","Right-handed","2","3","no","left","s","1027.86663271","463.822446349","20","green","1"
"93","93","22","735.026741136","1","1","4","245","3","left","in","Female","Right-handed","2","3","no","left","s","566.492819587","1328.46738972","20","green","1"
"93","93","22","730.375903758","1","1","4","246","0","right","out","Female","Right-handed","2","3","no","right","s","546.999325863","616.098889503","20","red","2"
"94","94","22","727.414874552","1","1","4","247","3","left","in","Female","Right-handed","2","3","no","left","d","658.656359421","600.745462092","20","red","1"
"94","94","22","723.654969825","1","1","4","248","2","left","out","Female","Right-handed","2","3","no","left","s","815.256636648","376.37978157","20","red","0"
"94","94","22","722.996344351","1","1","4","249","1","left","out","Female","Right-handed","2","3","no","left","s","711.898657694","687.990247803","20","red","2"
"94","91","22","715.604419795","1","0","4","250","1","left","out","Female","Right-handed","2","3","no","left","s","530.427515001","368.562756532","20","green","0"
"94","92","22","712.644071678","1","1","4","251","2","left","in","Female","Right-handed","2","3","no","left","d","582.115965473","624.106417246","20","green","2"
"94","92","22","714.543327951","1","1","4","252","2","left","out","Female","Right-handed","2","3","no","left","s","605.712322959","967.717809694","20","green","3"
"95","92","22","719.599797599","1","1","4","253","3","left","in","Female","Right-handed","2","3","no","left","d","1281.26280842","552.34141933","20","red","2"
"95","92","22","719.643761198","1","1","4","254","2","left","in","Female","Right-handed","2","3","no","left","s","530.825197416","911.979412878","20","red","2"
"95","92","22","719.411713024","1","1","4","255","2","right","in","Female","Right-handed","2","3","no","right","s","699.372623927","720.422851857","20","green","2"
"95","90","22","736.565658716","1","0","4","256","0","left","in","Female","Right-handed","2","3","no","left","s","2314.01516196","600.047593605","20","green","3"
"95","88","22","734.873038725","1","0","4","257","1","right","out","Female","Right-handed","2","3","no","right","s","508.598278546","815.582479652","20","green","1"
"95","88","22","730.868660966","1","1","4","258","0","right","in","Female","Right-handed","2","3","no","right","d","605.157812566","504.194266578","20","green","0"
"95","89","22","729.345690566","1","1","4","259","0","left","out","Female","Right-handed","2","3","no","left","s","649.74634918","671.877695979","20","red","2"
"95","89","22","731.432267664","1","1","4","260","1","right","in","Female","Right-handed","2","3","no","right","s","1254.30860027","400.5210281","20","red","0"
"95","89","22","726.121372859","1","1","4","261","1","left","in","Female","Right-handed","2","3","no","left","s","569.037987006","383.980646977","20","red","1"
"95","89","22","725.254827309","1","1","4","262","0","right","out","Female","Right-handed","2","3","no","right","s","863.582746482","503.738535361","20","green","2"
"96","90","22","722.455974312","1","1","4","263","1","right","out","Female","Right-handed","2","3","no","right","d","658.28914462","512.335210351","20","red","3"
"96","90","22","724.777210127","1","1","4","264","3","left","in","Female","Right-handed","2","3","no","left","d","873.876306661","807.801695024","20","red","1"
"96","90","22","722.434379812","1","1","4","265","2","left","in","Female","Right-handed","2","3","no","left","d","606.437451934","599.46261561","20","green","1"
"96","90","22","718.766557872","1","1","4","266","1","right","in","Female","Right-handed","2","3","no","right","d","519.991558871","536.088075111","20","green","2"
"96","90","22","714.82051873","1","1","4","267","0","left","in","Female","Right-handed","2","3","no","left","d","475.608598405","535.752290041","20","green","2"
"96","90","22","719.648245827","1","1","4","268","3","right","out","Female","Right-handed","2","3","no","right","s","592.347628306","1368.34338978","20","green","2"
"96","91","22","718.349514227","1","1","4","269","3","left","out","Female","Right-handed","2","3","no","left","d","717.967804402","575.870748085","20","green","0"
"96","91","22","722.622444068","1","1","4","270","3","left","in","Female","Right-handed","2","3","no","left","d","708.433368633","1215.37966163","20","green","0"
"96","91","22","722.285072177","1","1","4","271","2","right","out","Female","Right-handed","2","3","no","right","s","606.06221934","800.047529465","20","red","0"
"96","91","22","721.359310765","1","1","4","272","1","right","out","Female","Right-handed","2","3","no","right","d","591.638534912","743.691762778","20","green","2"
"96","91","22","720.097976331","1","1","4","273","2","right","in","Female","Right-handed","2","3","no","right","s","500.153941579","791.204547946","20","red","3"
"96","91","22","719.019178587","1","1","4","274","3","left","out","Female","Right-handed","2","3","no","left","d","884.737205692","423.845422127","20","green","3"
"96","91","22","719.444996954","1","1","4","275","0","left","out","Female","Right-handed","2","3","no","left","d","643.256428826","847.583405866","20","red","1"
"96","92","22","717.845208567","1","1","4","276","1","right","out","Female","Right-handed","2","3","no","right","s","669.14427084","568.172386345","20","green","1"
"96","92","22","718.484894262","1","1","4","277","0","left","out","Female","Right-handed","2","3","no","left","d","597.724358624","919.84582751","20","red","1"
"100","100","22","614.471438384","1","1","5","278","1","right","out","Female","Right-handed","2","3","no","right","s","884.572359915","344.370516854","20","green","3"
"100","100","22","596.812495309","1","1","5","279","1","left","out","Female","Right-handed","2","3","no","left","d","446.184269353","712.122835114","20","red","2"
"100","100","22","620.76957319","1","1","5","280","2","left","in","Female","Right-handed","2","3","no","left","s","640.596446643","696.771011262","20","green","0"
"100","100","22","585.881721233","1","1","5","281","0","left","in","Female","Right-handed","2","3","no","left","d","554.181021183","408.255309543","20","green","2"
"100","100","22","599.585929227","1","1","5","282","1","right","out","Female","Right-handed","2","3","no","right","d","660.920262755","647.885259645","20","green","1"
"100","100","22","602.094856235","1","1","5","283","2","right","out","Female","Right-handed","2","3","no","right","s","580.641012733","648.637969818","20","green","1"
"100","100","22","612.599238484","1","1","5","284","2","right","in","Female","Right-handed","2","3","no","right","s","567.098323128","784.152740831","20","red","2"
"100","100","22","625.373869572","1","1","5","285","2","left","in","Female","Right-handed","2","3","no","left","d","1029.77679113","399.815783243","20","green","0"
"100","100","22","652.4258235","1","1","5","286","1","left","out","Female","Right-handed","2","3","no","left","d","585.201852689","1152.48105717","20","red","0"
"100","100","22","666.981584098","1","1","5","287","0","right","out","Female","Right-handed","2","3","no","right","s","652.009290378","943.957568572","20","red","3"
"100","100","22","713.165133306","1","1","5","288","3","left","out","Female","Right-handed","2","3","no","left","s","701.457570172","1648.5436806","20","green","1"
"100","100","22","705.161441954","1","1","5","289","2","left","out","Female","Right-handed","2","3","no","left","d","530.054848103","704.186826068","20","green","1"
"100","100","22","692.816871346","1","1","5","290","0","left","out","Female","Right-handed","2","3","no","left","s","537.704782386","551.659265711","20","green","2"
"100","100","22","688.453561553","1","1","5","291","0","left","in","Female","Right-handed","2","3","no","left","s","711.231898237","552.229170262","20","red","0"
"100","100","22","678.755228402","1","1","5","292","3","right","out","Female","Right-handed","2","3","no","right","d","445.931548594","640.02557996","20","green","2"
"100","100","22","687.274930599","1","1","5","293","1","left","in","Female","Right-handed","2","3","no","left","d","805.646833647","824.494093453","20","red","0"
"100","100","22","680.530306852","1","1","5","294","1","right","out","Female","Right-handed","2","3","no","right","d","585.105959911","560.126693919","20","red","2"
"100","100","22","681.574019851","1","1","5","295","1","right","in","Female","Right-handed","2","3","no","right","d","574.841584497","823.792697141","20","green","2"
"100","100","22","680.98123037","1","1","5","296","3","right","in","Female","Right-handed","2","3","no","right","s","756.252754112","584.369285319","20","green","0"
"100","100","22","674.006475489","1","1","5","297","2","left","in","Female","Right-handed","2","3","no","left","s","554.907753718","528.064511782","20","green","2"
"100","95","22","666.011506278","1","0","5","298","2","left","in","Female","Right-handed","2","3","no","left","s","444.607330312","567.616913817","20","red","2"
"100","95","22","659.380329462","1","1","5","299","3","left","in","Female","Right-handed","2","3","no","left","s","472.02913601","568.222096645","20","red","2"
"100","95","22","655.009059546","1","1","5","300","1","right","out","Female","Right-handed","2","3","no","right","s","533.926799497","583.755443276","20","red","0"
"100","95","22","653.422706576","1","1","5","301","1","right","in","Female","Right-handed","2","3","no","right","d","698.405678391","535.467498124","20","red","2"
"100","96","22","652.630258629","1","1","5","302","3","right","out","Female","Right-handed","2","3","no","right","d","779.024562024","488.198453786","20","red","3"
"100","96","22","652.152636134","1","1","5","303","1","left","out","Female","Right-handed","2","3","no","left","d","552.623004132","727.801143403","20","red","3"
"100","96","22","651.713677408","1","1","5","304","2","left","out","Female","Right-handed","2","3","no","left","d","504.226017023","776.375484034","20","green","2"
"100","92","22","648.095698011","1","0","5","305","0","left","in","Female","Right-handed","2","3","no","left","d","516.922348659","583.898159948","20","red","1"
"100","93","22","642.247077471","1","1","5","306","0","left","out","Female","Right-handed","2","3","no","left","s","509.440467264","447.530937447","20","green","0"
"100","93","22","645.111403458","1","1","5","307","1","left","in","Female","Right-handed","2","3","no","left","s","760.122139811","696.231574315","20","red","2"
"100","93","22","651.37253297","1","1","5","308","3","left","out","Female","Right-handed","2","3","no","left","s","614.800969576","1063.6118671","20","green","0"
"100","93","22","657.557696622","1","1","5","309","2","right","in","Female","Right-handed","2","3","no","right","d","1050.3645529","648.230986772","20","green","2"
"100","90","22","657.747788261","1","0","5","310","0","right","in","Female","Right-handed","2","3","no","right","d","687.839513339","639.821928082","20","red","1"
"100","91","22","657.09426273","1","1","5","311","3","left","in","Female","Right-handed","2","3","no","left","d","559.503230528","711.552609857","20","red","1"
"100","91","22","658.094096973","1","1","5","312","1","left","in","Female","Right-handed","2","3","no","left","s","608.146203449","776.03071904","20","green","1"
"100","91","22","656.361707867","1","1","5","313","3","right","in","Female","Right-handed","2","3","no","right","s","711.772618026","479.683560257","20","green","2"
"100","91","22","654.672557683","1","1","5","314","0","left","out","Female","Right-handed","2","3","no","left","d","532.380007353","655.346294785","20","green","2"
"100","92","22","654.62775728","1","1","5","315","3","left","out","Female","Right-handed","2","3","no","left","d","521.869004697","784.071280083","20","red","2"
"100","92","22","655.524121157","1","1","5","316","3","right","in","Female","Right-handed","2","3","no","right","s","595.612151894","783.559745047","20","green","0"
"100","92","22","654.267316664","1","1","5","317","2","left","in","Female","Right-handed","2","3","no","left","d","778.270248287","432.233634565","20","red","3"
"100","92","22","651.21730085","1","1","5","318","1","right","out","Female","Right-handed","2","3","no","right","d","514.823611815","543.609724744","20","red","2"
"100","92","22","653.305912184","1","1","5","319","1","right","in","Female","Right-handed","2","3","no","right","s","830.378510269","647.499443566","20","red","1"
"100","93","22","655.403959482","1","1","5","320","0","left","out","Female","Right-handed","2","3","no","left","d","702.994099545","784.049792404","20","red","1"
"100","93","22","661.172487865","1","1","5","321","2","right","in","Female","Right-handed","2","3","no","right","s","1018.72763437","799.71078226","20","green","2"
"100","93","22","657.370865288","1","1","5","322","3","right","out","Female","Right-handed","2","3","no","right","s","477.053404259","503.145539576","20","red","2"
"100","91","22","662.097685748","1","0","5","323","0","right","in","Female","Right-handed","2","3","no","right","s","797.785550403","951.82366249","20","red","1"
"100","91","22","659.061233961","1","1","5","324","0","right","out","Female","Right-handed","2","3","no","right","d","559.35506176","479.413841785","20","green","0"
"100","91","22","661.140915689","1","1","5","325","3","right","in","Female","Right-handed","2","3","no","right","d","605.910843453","911.86107029","20","red","0"
"100","91","22","665.293139519","1","1","5","326","0","right","in","Female","Right-handed","2","3","no","right","s","857.547915919","871.651850859","20","green","2"
"100","90","22","676.702548952","1","0","5","327","2","left","in","Female","Right-handed","2","3","no","left","s","560.32072445","1911.20649787","20","green","1"
"100","90","22","672.957425105","1","1","5","328","3","right","out","Female","Right-handed","2","3","no","right","d","507.629729455","463.77273605","20","green","3"
"100","90","22","671.802109804","1","1","5","329","2","right","out","Female","Right-handed","2","3","no","right","d","746.316787394","479.445271525","20","green","1"
"100","90","22","671.399935512","1","1","5","330","1","left","out","Female","Right-handed","2","3","no","left","d","573.013848967","727.959895652","20","red","1"
"100","88","22","676.83634307","1","0","5","331","0","right","in","Female","Right-handed","2","3","no","right","d","1090.48204881","839.449838459","20","green","3"
"100","89","22","678.141231835","1","1","5","332","0","right","in","Female","Right-handed","2","3","no","right","d","674.064628522","823.145821803","20","red","2"
"100","87","22","683.677386651","1","0","5","333","3","right","out","Female","Right-handed","2","3","no","right","d","552.700937053","1423.63086605","20","red","2"
"100","87","22","681.775447378","1","1","5","334","2","left","in","Female","Right-handed","2","3","no","left","s","679.212691455","471.321004752","20","green","0"
"100","87","22","677.379946194","1","1","5","335","2","left","in","Female","Right-handed","2","3","no","left","s","493.852278941","359.820478464","20","green","3"
"100","88","22","676.288581513","1","1","5","336","0","left","out","Female","Right-handed","2","3","no","left","s","698.575976265","527.402883708","20","red","0"
"100","88","22","675.44420163","1","1","5","337","3","left","out","Female","Right-handed","2","3","no","left","s","492.148979527","759.102597571","20","green","1"
"100","88","22","673.2204025","1","1","5","338","0","right","out","Female","Right-handed","2","3","no","right","d","575.752084787","503.832824579","20","green","2"
"100","88","22","672.843213834","1","1","5","339","2","left","out","Female","Right-handed","2","3","no","left","s","676.310572002","623.35883846","20","red","0"
"100","88","22","673.536449573","1","1","5","340","3","right","out","Female","Right-handed","2","3","no","right","s","945.925455075","487.108675698","20","red","1"
"100","87","22","673.301953739","1","0","5","341","1","right","in","Female","Right-handed","2","3","no","right","s","653.513427875","663.544004521","20","red","0"
"100","100","22","735.803700114","1","1","6","342","0","left","in","Female","Right-handed","2","3","no","left","d","991.332447742","480.274952486","20","green","2"
"100","100","22","782.859872113","1","1","6","343","3","left","out","Female","Right-handed","2","3","no","left","s","1195.8172149","464.01487332","20","green","2"
"100","100","22","729.574999375","1","1","6","344","1","right","in","Female","Right-handed","2","3","no","right","d","702.515597812","543.494909987","20","red","1"
"100","100","22","696.975625276","1","1","6","345","2","right","out","Female","Right-handed","2","3","no","right","d","510.168161931","688.186844025","20","red","2"
"100","100","22","678.705614313","1","1","6","346","3","right","in","Female","Right-handed","2","3","no","right","d","643.530957972","567.720182957","20","green","2"
"100","100","22","667.074157507","1","1","6","347","3","right","out","Female","Right-handed","2","3","no","right","d","482.442963043","735.390783906","20","green","3"
"100","100","22","642.633835938","1","1","6","348","1","right","out","Female","Right-handed","2","3","no","right","d","543.957055433","448.026757611","20","red","2"
"100","100","22","626.949605942","1","1","6","349","1","right","in","Female","Right-handed","2","3","no","right","d","578.535540943","455.784451006","20","red","0"
"100","88","22","635.197319963","1","0","6","350","1","right","in","Female","Right-handed","2","3","no","right","d","938.094960144","464.263104117","20","green","2"
"100","80","22","657.850635619","1","0","6","351","1","right","in","Female","Right-handed","2","3","no","right","d","555.763412321","1167.69754072","20","green","2"
"100","81","22","649.260908409","1","1","6","352","3","right","in","Female","Right-handed","2","3","no","right","s","503.359454226","623.367818385","20","green","2"
"100","83","22","659.368058598","1","1","6","353","3","left","in","Female","Right-handed","2","3","no","left","d","829.005864533","712.087556836","20","red","1"
"100","84","22","685.001326513","1","1","6","354","1","left","in","Female","Right-handed","2","3","no","left","s","585.632247679","1399.5688353","20","green","2"
"100","78","22","685.83598203","1","0","6","355","2","left","out","Female","Right-handed","2","3","no","left","s","521.12206733","872.250940166","20","green","3"
"100","80","22","678.731506432","1","1","6","356","0","right","in","Female","Right-handed","2","3","no","right","d","542.748934756","615.788761366","20","green","1"
"100","81","22","687.116458969","1","1","6","357","0","right","in","Female","Right-handed","2","3","no","right","s","378.335160323","1247.44633372","20","green","3"
"100","76","22","706.338499193","1","0","6","358","3","left","in","Female","Right-handed","2","3","no","left","d","859.885582922","1167.89670264","20","red","0"
"100","72","22","742.681583535","1","0","6","359","0","right","in","Female","Right-handed","2","3","no","right","d","1737.52640258","983.501632101","20","red","3"
"100","73","22","748.805307015","1","1","6","360","3","right","in","Female","Right-handed","2","3","no","right","d","1142.03227257","576.032386743","20","red","1"
"100","75","22","740.268158211","1","1","6","361","1","right","out","Female","Right-handed","2","3","no","right","s","556.626768004","599.497893887","20","green","1"
"100","76","22","725.552916761","1","1","6","362","1","right","in","Female","Right-handed","2","3","no","right","d","414.158327629","448.337847883","20","red","3"
"100","77","22","721.268728757","1","1","6","363","0","left","in","Female","Right-handed","2","3","no","left","d","750.757360492","511.844200861","20","red","0"
"100","73","22","728.684501728","1","0","6","364","2","left","in","Female","Right-handed","2","3","no","left","d","1112.21795818","671.445056003","20","green","2"
"100","75","22","730.011501253","1","1","6","365","3","right","out","Female","Right-handed","2","3","no","right","d","617.065514329","903.999466336","20","green","2"
"100","76","22","772.650168406","1","1","6","366","0","left","out","Female","Right-handed","2","3","no","left","d","928.444426769","2663.51193336","20","green","1"
"100","73","22","762.741940529","1","0","6","367","2","left","out","Female","Right-handed","2","3","no","left","d","542.994599859","487.077887381","20","red","2"
"100","74","22","757.054289659","1","1","6","368","0","left","out","Female","Right-handed","2","3","no","left","d","698.636911471","519.713822607","20","green","1"
"100","75","22","749.475184068","1","1","6","369","0","right","out","Female","Right-handed","2","3","no","right","s","498.316905417","591.361760784","20","green","0"
"100","75","22","742.488900669","1","1","6","370","3","left","in","Female","Right-handed","2","3","no","left","s","621.757204626","471.988726342","20","red","1"
"100","76","22","747.404817602","1","1","6","371","3","left","in","Female","Right-handed","2","3","no","left","s","900.420324647","879.51249268","20","green","2"
"100","74","22","757.072068846","1","0","6","372","3","left","in","Female","Right-handed","2","3","no","left","s","1119.03628724","975.142925134","20","red","0"
"100","75","22","757.012880741","1","1","6","373","1","left","out","Female","Right-handed","2","3","no","left","d","566.788836415","943.56726253","20","red","1"
"100","75","22","751.654439488","1","1","6","374","2","right","out","Female","Right-handed","2","3","no","right","d","529.173211857","631.195426912","20","red","2"
"100","76","22","746.788643798","1","1","6","375","2","right","out","Female","Right-handed","2","3","no","right","s","604.651729631","567.783042436","20","green","0"
"100","77","22","744.122945808","1","1","6","376","3","left","out","Female","Right-handed","2","3","no","left","s","603.458682399","703.519745894","20","red","3"
"100","77","22","744.107783657","1","1","6","377","2","left","in","Female","Right-handed","2","3","no","left","s","816.127047983","671.027168762","20","green","0"
"100","78","22","739.150434224","1","1","6","378","2","left","in","Female","Right-handed","2","3","no","left","d","689.624273506","431.747435749","20","green","1"
"100","78","22","735.420871716","1","1","6","379","0","right","out","Female","Right-handed","2","3","no","right","s","563.470753986","631.383363918","20","green","2"
"100","79","22","732.935732335","1","1","6","380","1","left","in","Female","Right-handed","2","3","no","left","s","573.00839687","703.99247482","20","green","0"
"100","80","22","745.836144905","1","1","6","381","2","right","out","Female","Right-handed","2","3","no","right","s","1802.45479089","695.449679384","20","green","2"
"100","80","22","740.123372754","1","1","6","382","2","right","out","Female","Right-handed","2","3","no","right","s","560.092057061","463.132916364","20","red","2"
"100","80","22","741.88635489","1","1","6","383","0","left","out","Female","Right-handed","2","3","no","left","d","1044.71810411","583.619140842","20","red","2"
"100","81","22","741.453501462","1","1","6","384","0","left","in","Female","Right-handed","2","3","no","left","d","919.319219029","527.228095874","20","red","1"
"100","81","22","750.359255326","1","1","6","385","1","left","out","Female","Right-handed","2","3","no","left","s","1058.79670283","1207.81664018","20","red","0"
"100","82","22","748.272611577","1","1","6","386","3","right","in","Female","Right-handed","2","3","no","right","s","577.454422069","735.466151134","20","red","2"
"100","82","22","745.517640268","1","1","6","387","2","right","out","Female","Right-handed","2","3","no","right","s","684.029138574","559.058724222","20","green","3"
"100","82","22","740.47847458","1","1","6","388","0","right","in","Female","Right-handed","2","3","no","right","d","505.660880816","511.692824977","20","green","0"
"100","81","22","742.070164647","1","0","6","389","1","left","out","Female","Right-handed","2","3","no","left","s","626.328948779","1007.43024683","20","green","3"
"100","81","22","738.189058244","1","1","6","390","1","left","out","Female","Right-handed","2","3","no","left","d","584.844579942","518.947321834","20","red","1"
"100","82","22","747.113736528","1","1","6","391","3","right","out","Female","Right-handed","2","3","no","right","d","513.490413607","1855.35553128","20","red","0"
"100","82","22","744.298734674","1","1","6","392","1","left","out","Female","Right-handed","2","3","no","left","d","424.051960413","783.045323606","20","green","2"
"100","82","22","740.20884383","1","1","6","393","1","right","out","Female","Right-handed","2","3","no","right","s","423.664861486","639.583960055","20","red","0"
"100","83","22","735.34195102","1","1","6","394","1","right","out","Female","Right-handed","2","3","no","right","s","469.21296727","495.314082513","20","red","2"
"100","83","22","733.592054961","1","1","6","395","2","right","in","Female","Right-handed","2","3","no","right","d","634.856029348","646.839098339","20","red","1"
"100","83","22","730.807913973","1","1","6","396","0","right","in","Female","Right-handed","2","3","no","right","s","449.463545672","711.465055582","20","red","2"
"100","83","22","731.42114432","1","1","6","397","3","left","out","Female","Right-handed","2","3","no","left","d","843.190939512","687.106687285","20","green","0"
"100","84","22","728.680883509","1","1","6","398","0","left","out","Female","Right-handed","2","3","no","left","d","591.612236559","558.840319609","20","red","2"
"100","84","22","725.191593122","1","1","6","399","2","left","out","Female","Right-handed","2","3","no","left","s","469.311746448","583.292335697","20","green","0"
"100","84","22","726.230319626","1","1","6","400","2","left","in","Female","Right-handed","2","3","no","left","s","677.933372801","895.01954096","20","red","0"
"100","85","22","722.136216274","1","1","6","401","0","left","out","Female","Right-handed","2","3","no","left","s","489.66731301","471.50092397","20","red","0"
"100","85","22","717.507083757","1","1","6","402","0","right","out","Female","Right-handed","2","3","no","right","s","520.250693859","359.267571632","20","red","2"
"100","85","22","717.924177276","1","1","6","403","3","left","in","Female","Right-handed","2","3","no","left","s","815.862460895","670.871302914","20","red","1"
"100","85","22","715.613493484","1","1","6","404","2","left","in","Female","Right-handed","2","3","no","left","d","617.351589095","527.350607717","20","green","1"
"100","85","22","714.550141017","1","1","6","405","2","right","in","Female","Right-handed","2","3","no","right","d","664.067085174","631.050785967","20","green","1"
"100","100","22","589.78001107","1","1","7","406","1","left","out","Female","Right-handed","2","3","no","left","s","684.265503041","495.2945191","20","green","0"
"100","100","22","549.024699926","1","1","7","407","1","left","in","Female","Right-handed","2","3","no","left","s","536.706407114","479.832370449","20","green","0"
"100","100","22","585.362903372","1","1","7","408","0","left","out","Female","Right-handed","2","3","no","left","d","724.601724276","591.476896254","20","red","3"
"100","100","22","573.188316091","1","1","7","409","2","right","in","Female","Right-handed","2","3","no","right","s","713.18022133","360.148887165","20","green","1"
"100","100","22","569.794898505","1","1","7","410","3","left","in","Female","Right-handed","2","3","no","left","d","464.652127313","647.790329007","20","red","3"
"100","83","22","576.888847125","1","0","7","411","1","right","out","Female","Right-handed","2","3","no","right","d","537.295233647","687.421946808","20","red","2"
"100","85","22","594.237467346","1","1","7","412","0","left","in","Female","Right-handed","2","3","no","left","d","724.797999788","671.860377555","20","red","2"
"100","87","22","592.645549357","1","1","7","413","2","left","in","Female","Right-handed","2","3","no","left","s","483.451601089","679.552645775","20","green","1"
"100","88","22","580.864762538","1","1","7","414","3","left","in","Female","Right-handed","2","3","no","left","d","510.094718971","463.142217002","20","red","2"
"100","90","22","578.314955489","1","1","7","415","0","right","out","Female","Right-handed","2","3","no","right","d","494.860596282","615.872787814","20","green","2"
"100","90","22","573.056314104","1","1","7","416","0","right","out","Female","Right-handed","2","3","no","right","d","401.35808543","639.581715077","20","green","2"
"100","91","22","565.015354604","1","1","7","417","3","right","out","Female","Right-handed","2","3","no","right","s","546.092353404","407.037246809","20","red","1"
"100","92","22","592.374481737","1","1","7","418","1","left","in","Female","Right-handed","2","3","no","left","d","529.695009664","1311.673005","20","red","2"
"100","92","22","601.404822276","1","1","7","419","3","left","out","Female","Right-handed","2","3","no","left","d","622.204597337","815.393901223","20","green","1"
"100","93","22","607.535376096","1","1","7","420","0","left","out","Female","Right-handed","2","3","no","left","d","834.816517673","551.909741487","20","red","0"
"100","93","22","601.151442914","1","1","7","421","1","right","out","Female","Right-handed","2","3","no","right","s","443.373552709","567.41133767","20","green","3"
"100","94","22","603.09018475","1","1","7","422","0","right","out","Female","Right-handed","2","3","no","right","d","565.159942092","703.060166139","20","green","2"
"100","94","22","603.820881634","1","1","7","423","3","right","in","Female","Right-handed","2","3","no","right","s","528.654300455","703.831156876","20","green","0"
"100","94","22","641.319347517","1","1","7","424","1","right","out","Female","Right-handed","2","3","no","right","d","569.305781214","2063.27768559","20","red","1"
"100","95","22","636.399101238","1","1","7","425","2","left","in","Female","Right-handed","2","3","no","left","s","534.906573495","550.922270406","20","green","2"
"100","95","22","649.542766025","1","1","7","426","1","right","in","Female","Right-handed","2","3","no","right","s","473.394084667","1351.43803884","20","red","2"
"100","95","22","654.784517361","1","1","7","427","1","left","in","Female","Right-handed","2","3","no","left","s","666.834185035","862.888405827","20","green","1"
"100","95","22","654.621493496","1","1","7","428","0","left","out","Female","Right-handed","2","3","no","left","s","550.56852549","751.501411451","20","green","1"
"100","95","22","683.83172721","1","1","7","429","0","right","in","Female","Right-handed","2","3","no","right","s","2208.15018027","503.184024969","20","red","3"
"100","96","22","676.848251449","1","1","7","430","2","right","out","Female","Right-handed","2","3","no","right","s","602.603344509","415.886321844","20","red","3"
"100","96","22","673.987071819","1","1","7","431","0","left","out","Female","Right-handed","2","3","no","left","d","621.459584243","583.455577915","20","red","1"
"100","96","22","676.635916124","1","1","7","432","2","left","in","Female","Right-handed","2","3","no","left","s","940.095879945","550.915856173","20","green","0"
"100","96","22","674.329553503","1","1","7","433","2","right","in","Female","Right-handed","2","3","no","right","d","608.504759039","615.610766417","20","green","2"
"100","96","22","679.049670423","1","1","7","434","3","left","out","Female","Right-handed","2","3","no","left","s","767.157911349","855.267977007","20","red","1"
"100","96","22","671.107523061","1","1","7","435","3","right","in","Female","Right-handed","2","3","no","right","s","514.792182075","366.778317071","20","red","2"
"100","96","22","674.876861739","1","1","7","436","0","right","out","Female","Right-handed","2","3","no","right","d","536.448234255","1039.4658099","20","green","1"
"100","96","22","673.008259567","1","1","7","437","3","left","out","Female","Right-handed","2","3","no","left","d","679.072861189","551.090323297","20","red","2"
"100","96","22","668.59040673","1","1","7","438","0","left","in","Female","Right-handed","2","3","no","left","d","534.706770159","519.731461747","20","red","2"
"100","97","22","669.964410632","1","1","7","439","2","right","out","Female","Right-handed","2","3","no","right","s","543.321725712","887.291353036","20","red","2"
"100","94","22","683.421385473","1","0","7","440","2","left","out","Female","Right-handed","2","3","no","left","s","506.989589059","1774.92747107","20","green","3"
"100","94","22","693.838179215","1","1","7","441","1","right","in","Female","Right-handed","2","3","no","right","s","613.40266691","1503.44925348","20","green","1"
"100","94","22","690.871087607","1","1","7","442","2","right","in","Female","Right-handed","2","3","no","right","d","616.971866533","551.139712886","20","red","2"
"100","94","22","687.403497452","1","1","7","443","2","left","out","Female","Right-handed","2","3","no","left","s","559.559034347","558.646289079","20","green","0"
"100","94","22","683.949729556","1","1","7","444","2","right","in","Female","Right-handed","2","3","no","right","s","714.181162297","391.231936719","20","green","0"
"100","95","22","681.997230014","1","1","7","445","3","left","out","Female","Right-handed","2","3","no","left","s","428.832808542","782.866687238","20","red","3"
"100","95","22","679.422960947","1","1","7","446","1","right","out","Female","Right-handed","2","3","no","right","d","553.466796406","599.437600104","20","red","1"
"100","95","22","679.272168191","1","1","7","447","0","right","in","Female","Right-handed","2","3","no","right","d","659.05372112","687.125609274","20","red","2"
"100","93","22","695.687986765","1","0","7","448","2","left","in","Female","Right-handed","2","3","no","left","d","1187.63586146","1582.66887231","20","red","0"
"100","93","22","695.996809765","1","1","7","449","0","right","in","Female","Right-handed","2","3","no","right","d","627.267671691","791.284725852","20","red","1"
"100","93","22","691.993901205","1","1","7","450","1","right","out","Female","Right-handed","2","3","no","right","d","488.806202305","542.925646856","20","red","2"
"100","93","22","690.657285638","1","1","7","451","3","left","out","Female","Right-handed","2","3","no","left","s","493.424770353","767.594399862","20","red","2"
"100","93","22","688.21023209","1","1","7","452","1","right","out","Female","Right-handed","2","3","no","right","s","584.069419958","567.222117814","20","green","0"
"100","93","22","695.720957986","1","1","7","453","1","left","out","Female","Right-handed","2","3","no","left","d","1458.72826297","638.721887222","20","green","3"
"100","91","22","698.711133303","1","0","7","454","3","right","out","Female","Right-handed","2","3","no","right","s","997.184472682","687.294624295","20","green","2"
"100","92","22","706.952906064","1","1","7","455","0","left","out","Female","Right-handed","2","3","no","left","s","558.836150354","1662.76339244","20","red","0"
"100","92","22","713.716457448","1","1","7","456","0","left","in","Female","Right-handed","2","3","no","left","s","504.415878306","1599.37217493","20","green","0"
"100","92","22","713.81818767","1","1","7","457","0","left","out","Female","Right-handed","2","3","no","left","d","479.031874245","958.980983723","20","green","0"
"100","92","22","710.362037552","1","1","7","458","2","left","out","Female","Right-handed","2","3","no","left","s","630.615580299","430.668882571","20","green","1"
"100","92","22","710.016092359","1","1","7","459","2","right","in","Female","Right-handed","2","3","no","right","s","576.137259442","807.224734817","20","red","2"
"100","90","22","719.010883961","1","0","7","460","3","right","out","Female","Right-handed","2","3","no","right","s","522.730115397","1886.72914556","20","green","0"
"100","91","22","717.695694909","1","1","7","461","2","right","out","Female","Right-handed","2","3","no","right","d","643.341096693","647.379497419","20","red","1"
"100","91","22","714.804724152","1","1","7","462","1","right","in","Female","Right-handed","2","3","no","right","d","530.914034531","574.906688955","20","green","0"
"100","89","22","716.758716063","1","0","7","463","3","left","in","Female","Right-handed","2","3","no","left","d","665.71875002","990.553759926","20","green","1"
"100","88","22","725.553471341","1","0","7","464","1","left","in","Female","Right-handed","2","3","no","left","s","920.195403174","1551.10315176","20","red","2"
"100","88","22","726.179465092","1","1","7","465","3","left","in","Female","Right-handed","2","3","no","left","d","983.547814576","542.678378202","20","green","0"
"100","88","22","737.941821398","1","1","7","466","2","right","in","Female","Right-handed","2","3","no","right","d","2320.23183602","567.134563538","20","red","2"
"100","88","22","737.107907542","1","1","7","467","3","right","in","Female","Right-handed","2","3","no","right","d","709.784205978","662.694118724","20","green","0"
"100","88","22","748.340989331","1","1","7","468","1","left","in","Female","Right-handed","2","3","no","left","s","1691.28459757","1198.29952285","20","red","2"
"100","87","22","748.341647816","1","0","7","469","3","right","in","Female","Right-handed","2","3","no","right","d","537.857120405","958.90914432","20","green","2"
"100","100","22","701.861185747","1","1","8","470","1","left","out","Female","Right-handed","2","3","no","left","d","916.924144643","486.798226852","20","green","0"
"100","100","22","617.940736341","1","1","8","471","0","right","in","Female","Right-handed","2","3","no","right","d","580.4277395","487.612834368","20","red","2"
"100","100","22","639.340379582","1","1","8","472","3","left","out","Female","Right-handed","2","3","no","left","s","717.121767149","647.157564978","20","red","0"
"75","100","22","731.670048036","0","1","8","473","2","left","in","Female","Right-handed","2","3","no","right","d","447.718233034","1569.59987377","20","red","0"
"80","100","22","668.381650678","1","1","8","474","3","left","out","Female","Right-handed","2","3","no","left","s","447.127802941","383.328319542","20","green","1"
"83","100","22","688.477969999","1","1","8","475","2","right","in","Female","Right-handed","2","3","no","right","d","874.908035945","703.011097267","20","red","1"
"85","100","22","664.705026404","1","1","8","476","3","right","out","Female","Right-handed","2","3","no","right","d","556.481164928","487.653564742","20","red","2"
"87","100","22","659.135442451","1","1","8","477","1","right","out","Female","Right-handed","2","3","no","right","s","625.162841323","615.133868239","20","red","2"
"88","100","22","659.197863178","1","1","8","478","2","left","in","Female","Right-handed","2","3","no","left","s","903.669133368","415.725324609","20","green","1"
"90","100","22","694.798955507","1","1","8","479","0","left","in","Female","Right-handed","2","3","no","left","s","1367.27381653","663.143756418","20","green","1"
"90","100","22","674.858404362","1","1","8","480","0","left","in","Female","Right-handed","2","3","no","left","d","431.893680248","519.012105582","20","red","2"
"91","100","22","679.665228917","1","1","8","481","0","right","in","Female","Right-handed","2","3","no","right","s","785.560344139","679.5202539","20","green","2"
"92","100","22","671.736471854","1","1","8","482","0","left","in","Female","Right-handed","2","3","no","left","d","570.060094942","583.12267925","20","red","0"
"92","100","22","672.340792109","1","1","8","483","3","right","out","Female","Right-handed","2","3","no","right","s","505.704497595","854.689413245","20","green","2"
"93","100","22","674.10870499","1","1","8","484","2","left","out","Female","Right-handed","2","3","no","left","s","630.344258268","767.374712403","20","red","0"
"93","100","22","668.409209828","1","1","8","485","3","left","in","Female","Right-handed","2","3","no","left","d","526.997504225","638.83606056","20","red","0"
"88","100","22","655.89153284","0","1","8","486","1","left","in","Female","Right-handed","2","3","no","right","d","453.611629771","457.605772299","20","green","1"
"88","100","22","656.493284264","1","1","8","487","3","right","out","Female","Right-handed","2","3","no","right","d","654.197505762","679.248611159","20","red","1"
"89","100","22","644.799541228","1","1","8","488","1","right","in","Female","Right-handed","2","3","no","right","s","509.800626416","358.823706748","20","red","2"
"90","100","22","655.704032564","1","1","8","489","0","left","out","Female","Right-handed","2","3","no","left","s","1022.41806299","703.360672931","20","green","1"
"90","100","22","653.693713622","1","1","8","490","2","left","out","Female","Right-handed","2","3","no","left","d","699.905005218","527.069664335","20","red","0"
"86","100","22","665.962257607","0","1","8","491","1","left","in","Female","Right-handed","2","3","no","right","d","637.689195802","1209.51416679","20","red","0"
"86","100","22","661.886385594","1","1","8","492","2","left","in","Female","Right-handed","2","3","no","left","s","609.289861084","535.144541522","20","red","2"
"87","100","22","661.15601252","1","1","8","493","1","right","out","Female","Right-handed","2","3","no","right","d","497.785806972","790.929056664","20","green","1"
"88","100","22","663.42539895","1","1","8","494","2","right","out","Female","Right-handed","2","3","no","right","s","716.38605469","719.395291824","20","green","1"
"88","100","22","659.681137899","1","1","8","495","1","left","in","Female","Right-handed","2","3","no","left","s","725.034684961","407.11453831","20","green","0"
"88","100","22","660.584139157","1","1","8","496","1","left","out","Female","Right-handed","2","3","no","left","d","801.484638232","566.63970551","20","green","2"
"89","100","22","662.430110066","1","1","8","497","0","left","out","Female","Right-handed","2","3","no","left","s","705.341387901","719.201261294","20","green","0"
"89","100","22","676.891834167","1","1","8","498","3","right","in","Female","Right-handed","2","3","no","right","d","604.82972458","1558.81049343","20","green","2"
"90","100","22","687.323921303","1","1","8","499","1","left","in","Female","Right-handed","2","3","no","left","d","1100.32693343","879.381963052","20","red","1"
"90","100","22","692.957212125","1","1","8","500","3","right","out","Female","Right-handed","2","3","no","right","s","853.001507985","870.910365593","20","green","2"
"90","100","22","711.065749571","1","1","8","501","0","left","in","Female","Right-handed","2","3","no","left","s","1970.33962719","574.521193586","20","green","3"
"90","100","22","713.337773343","1","1","8","502","1","right","in","Female","Right-handed","2","3","no","right","s","989.024606923","583.060461195","20","green","2"
"91","100","22","713.245146568","1","1","8","503","1","right","in","Female","Right-handed","2","3","no","right","d","645.674594441","774.70233151","20","green","2"
"91","100","22","713.117732961","1","1","8","504","0","right","in","Female","Right-handed","2","3","no","right","d","459.246853658","958.324487037","20","green","2"
"91","100","22","708.515684616","1","1","8","505","1","left","out","Female","Right-handed","2","3","no","left","d","607.847941643","487.040043409","20","red","1"
"91","100","22","703.258894664","1","1","8","506","2","left","out","Female","Right-handed","2","3","no","left","s","573.509027712","454.519885083","20","red","1"
"92","100","22","699.098398613","1","1","8","507","2","right","out","Female","Right-handed","2","3","no","right","s","507.155396965","583.164692471","20","red","2"
"92","100","22","697.834836377","1","1","8","508","2","right","in","Female","Right-handed","2","3","no","right","s","572.827836229","726.811106626","20","green","2"
"92","100","22","699.500595882","1","1","8","509","2","right","in","Female","Right-handed","2","3","no","right","d","594.443799458","934.486633701","20","red","3"
"92","100","22","697.524405881","1","1","8","510","1","right","out","Female","Right-handed","2","3","no","right","d","589.902522912","647.051088719","20","green","0"
"92","100","22","697.811056139","1","1","8","511","3","left","in","Female","Right-handed","2","3","no","left","s","692.686748771","726.440684706","20","green","3"
"93","100","22","693.215799883","1","1","8","512","2","left","in","Female","Right-handed","2","3","no","left","s","457.057996849","543.372077434","20","red","3"
"93","100","22","707.319475219","1","1","8","513","3","right","in","Female","Right-handed","2","3","no","right","s","644.816049433","1982.73897987","20","red","0"
"93","100","22","702.86583628","1","1","8","514","1","right","in","Female","Right-handed","2","3","no","right","d","471.408559024","542.402886916","20","green","3"
"93","100","22","705.522209991","1","1","8","515","3","left","in","Female","Right-handed","2","3","no","left","d","771.112285627","879.005768321","20","green","2"
"93","100","22","704.396912647","1","1","8","516","3","left","out","Female","Right-handed","2","3","no","left","s","634.603629299","670.662840366","20","green","1"
"93","100","22","701.277306857","1","1","8","517","0","right","out","Female","Right-handed","2","3","no","right","d","591.147525421","518.164144058","20","red","2"
"91","100","22","702.023184387","0","1","8","518","2","left","in","Female","Right-handed","2","3","no","right","d","529.813672962","945.836938667","20","green","0"
"92","100","22","707.769790633","1","1","8","519","3","right","out","Female","Right-handed","2","3","no","right","s","1356.35005802","622.356935357","20","red","3"
"92","100","22","704.079035518","1","1","8","520","1","right","in","Female","Right-handed","2","3","no","right","d","423.949332693","615.133226813","20","red","3"
"90","100","22","704.656212192","0","1","8","521","3","right","out","Female","Right-handed","2","3","no","left","d","506.590623805","961.593821299","20","green","2"
"90","98","22","705.977749343","1","0","8","522","0","right","out","Female","Right-handed","2","3","no","right","d","743.144308042","806.251054342","20","green","0"
"90","98","22","705.407656422","1","1","8","523","3","left","out","Female","Right-handed","2","3","no","left","s","959.661854497","390.723608802","20","green","0"
"90","98","22","701.334895063","1","1","8","524","2","left","out","Female","Right-handed","2","3","no","left","d","524.398457248","438.413106072","20","red","2"
"91","98","22","701.92763605","1","1","8","525","0","right","in","Female","Right-handed","2","3","no","right","s","463.052417748","1006.00436296","20","red","3"
"91","98","22","698.438109651","1","1","8","526","2","right","out","Female","Right-handed","2","3","no","right","s","511.522527104","494.526735485","20","red","2"
"91","98","22","694.969767622","1","1","8","527","0","right","in","Female","Right-handed","2","3","no","right","d","436.292240127","558.25630375","20","red","2"
"91","98","22","696.61059294","1","1","8","528","0","left","out","Female","Right-handed","2","3","no","left","s","808.83566929","774.721253496","20","green","0"
"91","98","22","695.775060032","1","1","8","529","2","left","out","Female","Right-handed","2","3","no","left","d","494.454896078","798.502340876","20","red","2"
"91","98","22","694.754723591","1","1","8","530","1","right","out","Female","Right-handed","2","3","no","right","s","517.035239151","750.033835076","20","green","2"
"91","98","22","695.83464713","1","1","8","531","3","right","in","Female","Right-handed","2","3","no","right","d","596.736566833","926.683399259","20","green","1"
"92","98","22","694.802244073","1","1","8","532","0","left","out","Female","Right-handed","2","3","no","left","s","455.357583833","806.228925237","20","red","1"
"92","98","22","693.529684146","1","1","8","533","0","right","out","Female","Right-handed","2","3","no","right","d","532.782500435","693.93431698","20","red","1"
dis_reply=No
dis_loc=1
tar_loc=2
