"acc_1","acc_2","age","avg_rt","correct_1","correct_2","count_block_loop","count_trial_sequence","cue_position","detection","dis_shape","gender","hand","high_loc","low_loc","practice","response_keyboard_response_1","response_keyboard_response_2","response_time_keyboard_response_1","response_time_keyboard_response_2","subject_nr","tar_color","tar_position"
"100","100","20","1497.9554444","1","1","0","0","1","right","in","Female","Right-handed","2","1","yes","right","d","1828.21403338","1167.69685543","31","red","3"
"100","100","20","1333.31828647","1","1","0","1","0","right","out","Female","Right-handed","2","1","yes","right","s","1247.59616387","1089.76609322","31","red","3"
"100","100","20","1303.12693531","1","1","0","2","2","right","out","Female","Right-handed","2","1","yes","right","s","1260.20826565","1225.28020033","31","red","3"
"100","100","20","1279.78668951","1","1","0","3","3","left","in","Female","Right-handed","2","1","yes","left","s","1449.77400846","969.757895753","31","red","1"
"100","100","20","1231.77797441","1","1","0","4","2","left","out","Female","Right-handed","2","1","yes","left","d","1166.2972569","913.188971139","31","red","1"
"100","100","20","1225.94474772","1","1","0","5","2","right","in","Female","Right-handed","2","1","yes","right","d","1415.85426985","977.702958626","31","green","1"
"100","100","20","1316.00028205","1","1","0","6","3","left","out","Female","Right-handed","2","1","yes","left","s","1119.46683121","2593.20014483","31","green","0"
"100","100","20","1273.35485836","1","1","0","7","2","left","out","Female","Right-handed","2","1","yes","left","s","1019.77686602","929.89691912","31","green","3"
"100","100","20","1215.30700958","1","1","0","8","1","right","in","Female","Right-handed","2","1","yes","right","s","948.453466075","553.394972541","31","green","0"
"100","100","20","1157.73379213","1","1","0","9","1","left","in","Female","Right-handed","2","1","yes","left","d","486.099106585","793.050563543","31","red","2"
"100","100","20","1119.50184742","1","1","0","10","0","right","out","Female","Right-handed","2","1","yes","right","s","824.701567044","649.663233629","31","red","2"
"100","100","20","1079.77810505","1","1","0","11","2","left","out","Female","Right-handed","2","1","yes","left","s","652.38032775","633.253550232","31","red","2"
"100","100","20","1071.78171345","1","1","0","12","3","right","in","Female","Right-handed","2","1","yes","right","d","861.825244536","1089.82478399","31","green","2"
"100","100","20","1095.29123841","1","1","0","13","3","left","in","Female","Right-handed","2","1","yes","left","d","1480.43624883","1321.39387698","31","green","0"
"100","100","20","1078.03969827","1","1","0","14","0","right","out","Female","Right-handed","2","1","yes","right","s","903.979651299","769.056621202","31","green","0"
"100","100","20","1066.47589894","1","1","0","15","0","left","out","Female","Right-handed","2","1","yes","left","d","976.578853939","809.458964086","31","green","0"
"100","94","20","1061.92483019","1","0","0","16","0","right","out","Female","Right-handed","2","1","yes","right","s","1049.11134794","929.104112618","31","green","1"
"100","94","20","1045.65389307","1","1","0","17","1","left","out","Female","Right-handed","2","1","yes","left","d","672.651414976","865.444508838","31","green","3"
"100","94","20","1030.02510706","1","1","0","18","1","left","out","Female","Right-handed","2","1","yes","left","d","880.21854776","617.195370036","31","red","0"
"100","90","20","1023.39316371","1","0","0","19","1","left","out","Female","Right-handed","2","1","yes","left","d","1024.87334178","769.899138464","31","green","1"
"100","90","20","1004.67468261","1","1","0","20","2","left","in","Female","Right-handed","2","1","yes","left","s","579.357781837","681.252339213","31","green","2"
"100","90","20","1017.34807246","1","1","0","21","3","right","in","Female","Right-handed","2","1","yes","right","s","1422.00204808","1144.97647077","31","green","1"
"100","100","20","729.877804529","1","1","1","22","3","right","out","Female","Right-handed","2","1","no","right","s","705.768404929","753.987204129","31","green","0"
"100","100","20","903.365883727","1","1","1","23","0","right","in","Female","Right-handed","2","1","no","right","d","1384.26067426","769.447251589","31","green","2"
"100","100","20","841.056675508","1","1","1","24","3","right","in","Female","Right-handed","2","1","no","right","s","799.907441764","632.969076376","31","green","2"
"100","100","20","884.928041264","1","1","1","25","0","right","in","Female","Right-handed","2","1","no","right","s","911.649541042","1121.43473602","31","green","0"
"100","100","20","877.288659499","1","1","1","26","0","left","in","Female","Right-handed","2","1","no","left","d","724.219116066","969.243148815","31","green","3"
"100","83","20","844.455421792","1","0","1","27","2","right","out","Female","Right-handed","2","1","no","right","s","878.810610651","481.767855865","31","green","0"
"100","71","20","844.993409086","1","0","1","28","0","right","out","Female","Right-handed","2","1","no","right","s","855.175547949","841.267117741","31","red","0"
"100","75","20","833.541684239","1","1","1","29","3","left","in","Female","Right-handed","2","1","no","left","d","776.854155354","729.905065269","31","red","0"
"100","66","20","828.860736561","1","0","1","30","1","right","in","Female","Right-handed","2","1","no","right","d","797.455899337","785.370410935","31","green","2"
"100","70","20","806.13584765","1","1","1","31","1","right","out","Female","Right-handed","2","1","no","right","s","642.076729686","561.146965221","31","red","3"
"100","72","20","811.412451313","1","1","1","32","3","left","out","Female","Right-handed","2","1","no","left","s","886.697944892","841.659030986","31","green","2"
"100","75","20","803.855572165","1","1","1","33","3","left","in","Female","Right-handed","2","1","no","left","s","736.231802253","705.228000821","31","red","3"
"100","76","20","787.860673484","1","1","1","34","3","left","in","Female","Right-handed","2","1","no","left","d","493.979705821","697.864072812","31","green","3"
"100","78","20","794.831571915","1","1","1","35","2","left","out","Female","Right-handed","2","1","no","left","d","1065.47869701","705.42780602","31","green","1"
"100","80","20","787.182598111","1","1","1","36","2","right","in","Female","Right-handed","2","1","no","right","s","711.133960245","649.059969461","31","green","0"
"100","75","20","781.65143446","1","0","1","37","0","left","in","Female","Right-handed","2","1","no","left","s","667.634155719","729.733803671","31","green","2"
"100","76","20","782.568384041","1","1","1","38","2","left","out","Female","Right-handed","2","1","no","left","s","737.333456915","857.145697757","31","red","2"
"100","72","20","782.585726211","1","0","1","39","1","left","in","Female","Right-handed","2","1","no","left","s","932.853587048","632.907499174","31","green","3"
"100","73","20","787.102396391","1","1","1","40","3","left","in","Female","Right-handed","2","1","no","left","s","831.462872313","905.342046935","31","red","2"
"100","75","20","797.19693833","1","1","1","41","3","left","out","Female","Right-handed","2","1","no","left","d","1089.03069463","888.955775701","31","green","2"
"100","76","20","795.926128858","1","1","1","42","0","right","out","Female","Right-handed","2","1","no","right","s","795.61211108","745.407767772","31","green","2"
"100","77","20","809.868465611","1","1","1","43","2","right","out","Female","Right-handed","2","1","no","right","d","1340.11976125","865.195313589","31","green","2"
"100","78","20","808.729575412","1","1","1","44","0","left","out","Female","Right-handed","2","1","no","left","s","750.763701648","816.58428043","31","red","0"
"100","79","20","803.40025097","1","1","1","45","2","left","out","Female","Right-handed","2","1","no","left","s","560.419905216","801.231672363","31","green","2"
"100","80","20","792.501294885","1","1","1","46","2","right","out","Female","Right-handed","2","1","no","right","s","700.827796463","361.024901244","31","red","0"
"100","80","20","788.792485094","1","1","1","47","1","left","out","Female","Right-handed","2","1","no","left","s","694.549487385","697.59499326","31","green","1"
"100","81","20","786.39836063","1","1","1","48","0","right","in","Female","Right-handed","2","1","no","right","d","783.097506541","665.204742598","31","red","3"
"100","78","20","791.0884316","1","0","1","49","3","right","in","Female","Right-handed","2","1","no","right","d","842.788587821","992.65210772","31","green","0"
"100","79","20","791.837067957","1","1","1","50","2","right","out","Female","Right-handed","2","1","no","right","s","680.412066951","945.185704981","31","green","3"
"100","76","20","796.305068434","1","0","1","51","2","right","out","Female","Right-handed","2","1","no","right","s","1154.85255627","696.901608288","31","green","2"
"100","77","20","802.40590681","1","1","1","52","3","left","in","Female","Right-handed","2","1","no","left","d","921.46020076","1049.40191537","31","red","1"
"100","78","20","804.79886564","1","1","1","53","1","left","in","Female","Right-handed","2","1","no","left","d","900.912978263","857.048200518","31","green","3"
"100","75","20","801.185197901","1","0","1","54","0","left","in","Female","Right-handed","2","1","no","left","d","585.552063687","785.54359682","31","green","3"
"100","76","20","798.59744052","1","1","1","55","1","right","in","Female","Right-handed","2","1","no","right","d","537.224221522","889.178672351","31","green","0"
"100","77","20","800.215492723","1","1","1","56","1","right","in","Female","Right-handed","2","1","no","right","d","1037.6685716","672.789963686","31","red","2"
"100","77","20","800.066828014","1","1","1","57","1","left","in","Female","Right-handed","2","1","no","left","s","572.451834279","1017.27529212","31","green","2"
"100","78","20","795.59178471","1","1","1","58","2","right","out","Female","Right-handed","2","1","no","right","d","707.934190645","561.046260837","31","red","2"
"100","78","20","793.407645495","1","1","1","59","3","left","out","Female","Right-handed","2","1","no","left","d","664.463250436","760.725738663","31","red","2"
"100","79","20","791.364595655","1","1","1","60","0","left","out","Female","Right-handed","2","1","no","left","d","802.206965473","625.250438015","31","red","2"
"100","80","20","790.414441843","1","1","1","61","3","right","out","Female","Right-handed","2","1","no","right","d","737.90785677","768.809029527","31","red","0"
"100","78","20","792.537451467","1","0","1","62","1","left","out","Female","Right-handed","2","1","no","left","s","985.433463426","769.48220948","31","red","2"
"100","76","20","788.607570511","1","0","1","63","1","right","out","Female","Right-handed","2","1","no","right","d","605.943739603","649.021162995","31","red","2"
"100","76","20","784.421353026","1","1","1","64","2","left","in","Female","Right-handed","2","1","no","left","s","704.670919557","512.529517769","31","green","3"
"100","75","20","793.004573798","1","0","1","65","0","right","out","Female","Right-handed","2","1","no","right","s","747.14026806","1577.02586595","31","green","3"
"100","73","20","786.733141539","1","0","1","66","3","left","in","Female","Right-handed","2","1","no","left","d","540.826808661","480.753435575","31","red","3"
"100","73","20","785.951894399","1","1","1","67","0","left","out","Female","Right-handed","2","1","no","left","s","1012.32281721","489.268729012","31","red","1"
"100","74","20","792.247879716","1","1","1","68","0","right","in","Female","Right-handed","2","1","no","right","s","826.89653779","1336.82987084","31","red","2"
"100","75","20","789.846878554","1","1","1","69","2","left","out","Female","Right-handed","2","1","no","left","s","657.476162087","696.523485771","31","red","3"
"100","73","20","785.005434443","1","0","1","70","0","right","out","Female","Right-handed","2","1","no","right","s","520.164770334","585.06746392","31","red","0"
"100","74","20","780.809775509","1","1","1","71","1","right","in","Female","Right-handed","2","1","no","right","s","421.66529775","728.779677727","31","red","3"
"100","72","20","782.671056734","1","0","1","72","3","left","out","Female","Right-handed","2","1","no","left","d","678.311707014","1073.15852891","31","green","1"
"100","73","20","781.30946095","1","1","1","73","3","left","in","Female","Right-handed","2","1","no","left","s","1006.83763534","416.898516598","31","red","3"
"100","73","20","779.322895348","1","1","1","74","2","left","out","Female","Right-handed","2","1","no","left","s","591.549106057","760.493862004","31","green","2"
"100","74","20","780.521277401","1","1","1","75","2","right","out","Female","Right-handed","2","1","no","right","d","1047.00040442","641.070647976","31","green","1"
"100","72","20","778.903547911","1","0","1","76","2","right","in","Female","Right-handed","2","1","no","right","s","638.57131907","744.520991893","31","green","0"
"100","71","20","780.489655831","1","0","1","77","1","left","out","Female","Right-handed","2","1","no","left","s","878.233645079","857.21753783","31","green","2"
"98","70","20","777.231903705","0","0","1","78","1","left","out","Female","Right-handed","2","1","no","right","s","593.900906242","595.694663021","31","red","0"
"98","70","20","776.104614914","1","1","1","79","1","right","in","Female","Right-handed","2","1","no","right","s","847.365826639","576.332480981","31","red","1"
"98","71","20","782.18716901","1","1","1","80","3","right","in","Female","Right-handed","2","1","no","right","d","1268.92176071","1001.02885245","31","red","2"
"98","71","20","782.477164318","1","1","1","81","1","right","out","Female","Right-handed","2","1","no","right","d","702.554203173","896.619571866","31","red","0"
"98","72","20","778.98855573","1","1","1","82","2","right","in","Female","Right-handed","2","1","no","right","d","538.10265882","601.241422088","31","red","3"
"98","72","20","778.313830971","1","1","1","83","0","left","in","Female","Right-handed","2","1","no","left","d","777.614890394","696.696350942","31","red","1"
"98","71","20","776.862906282","1","0","1","84","0","right","in","Female","Right-handed","2","1","no","right","d","749.488861102","624.322289952","31","red","2"
"98","71","20","776.247005027","1","1","1","85","1","left","in","Female","Right-handed","2","1","no","left","s","601.890548443","872.999903464","31","red","0"
"100","100","20","588.043214369","1","1","2","86","2","left","in","Female","Right-handed","2","1","no","left","s","575.040001129","601.046427608","31","red","2"
"100","100","20","608.375958977","1","1","2","87","2","right","out","Female","Right-handed","2","1","no","right","d","663.733945428","593.683461742","31","green","0"
"100","100","20","579.178181658","1","1","2","88","1","left","out","Female","Right-handed","2","1","no","left","s","480.129324957","561.435929081","31","red","2"
"100","100","20","592.999136957","1","1","2","89","0","left","out","Female","Right-handed","2","1","no","left","s","667.955191038","600.968814673","31","green","2"
"100","100","20","592.808584375","1","1","2","90","3","left","in","Female","Right-handed","2","1","no","left","s","638.589279088","545.503469009","31","red","2"
"100","100","20","602.458988353","1","1","2","91","3","left","out","Female","Right-handed","2","1","no","left","s","772.240034355","529.181982125","31","green","0"
"100","100","20","608.424444153","1","1","2","92","3","left","out","Female","Right-handed","2","1","no","left","s","727.678343779","560.756014121","31","red","3"
"100","100","20","611.344192676","1","1","2","93","2","left","in","Female","Right-handed","2","1","no","left","d","654.313916095","609.250948593","31","green","3"
"100","100","20","625.975520282","1","1","2","94","0","right","in","Female","Right-handed","2","1","no","right","d","685.01143508","801.040847175","31","green","3"
"100","100","20","625.6455103","1","1","2","95","2","right","out","Female","Right-handed","2","1","no","right","d","651.612857704","593.737983225","31","red","2"
"100","90","20","649.645492282","1","0","2","96","1","right","in","Female","Right-handed","2","1","no","right","d","978.177616238","801.113007959","31","red","2"
"100","83","20","699.821193591","1","0","2","97","0","right","out","Female","Right-handed","2","1","no","right","s","1190.77162971","1312.73618626","31","green","2"
"100","84","20","702.049953471","1","1","2","98","0","left","in","Female","Right-handed","2","1","no","left","d","920.347641801","537.242502254","31","green","2"
"100","85","20","706.221792292","1","1","2","99","3","left","in","Female","Right-handed","2","1","no","left","s","1015.88146645","505.029927484","31","red","2"
"100","86","20","718.739012184","1","1","2","100","3","left","out","Female","Right-handed","2","1","no","left","d","1138.49547007","649.464711292","31","green","0"
"100","87","20","726.821053599","1","1","2","101","3","left","in","Female","Right-handed","2","1","no","left","s","1119.10731015","576.996039495","31","green","1"
"100","88","20","750.208488074","1","1","2","102","1","left","in","Female","Right-handed","2","1","no","left","d","1624.38803645","624.426842915","31","red","2"
"100","88","20","773.920899592","1","1","2","103","1","right","in","Female","Right-handed","2","1","no","right","s","1825.21759684","528.846193936","31","red","1"
"100","84","20","788.801280725","1","0","2","104","0","right","out","Female","Right-handed","2","1","no","right","s","936.631284361","1176.66499788","31","green","2"
"100","85","20","786.475208601","1","1","2","105","1","left","out","Female","Right-handed","2","1","no","left","s","947.247579166","537.312097324","31","green","1"
"100","85","20","789.21131957","1","1","2","106","0","left","in","Female","Right-handed","2","1","no","left","d","1166.81168312","521.055394789","31","green","2"
"100","86","20","779.727102195","1","1","2","107","0","right","in","Female","Right-handed","2","1","no","right","s","591.57797037","569.53910425","31","red","0"
"100","86","20","783.505797147","1","1","2","108","1","right","out","Female","Right-handed","2","1","no","right","d","788.102257928","945.171914253","31","green","3"
"100","87","20","783.161983539","1","1","2","109","1","right","in","Female","Right-handed","2","1","no","right","s","1013.71247358","536.796067527","31","red","2"
"100","88","20","782.905084192","1","1","2","110","1","right","out","Female","Right-handed","2","1","no","right","d","768.230139669","785.2488601","31","red","0"
"100","88","20","776.789173642","1","1","2","111","2","left","in","Female","Right-handed","2","1","no","left","d","534.931432821","712.851386947","31","green","2"
"100","88","20","766.613114455","1","1","2","112","0","left","out","Female","Right-handed","2","1","no","left","s","595.587223628","408.483927549","31","red","0"
"100","89","20","764.574548712","1","1","2","113","2","left","out","Female","Right-handed","2","1","no","left","d","865.987157946","553.079389372","31","red","0"
"100","86","20","763.577422325","1","0","2","114","2","right","in","Female","Right-handed","2","1","no","right","d","766.793338244","704.522428696","31","green","2"
"100","86","20","763.234999029","1","1","2","115","2","left","in","Female","Right-handed","2","1","no","left","s","801.267271683","705.342175221","31","red","0"
"100","87","20","760.708399382","1","1","2","116","3","right","out","Female","Right-handed","2","1","no","right","d","632.783061907","737.03775805","31","red","0"
"100","87","20","759.406654531","1","1","2","117","0","right","in","Female","Right-handed","2","1","no","right","d","741.602168287","696.502960036","31","green","3"
"100","87","20","769.216424541","1","1","2","118","0","right","in","Female","Right-handed","2","1","no","right","d","1349.1690445","817.089085216","31","red","1"
"100","88","20","759.951175163","1","1","2","119","1","left","out","Female","Right-handed","2","1","no","left","s","547.73147336","360.664418031","31","red","3"
"100","88","20","753.30339936","1","1","2","120","0","right","out","Female","Right-handed","2","1","no","right","s","646.285788142","408.272255911","31","green","0"
"100","88","20","757.888817548","1","1","2","121","1","right","out","Female","Right-handed","2","1","no","right","d","1275.89602048","560.860887796","31","green","2"
"100","89","20","753.421277207","1","1","2","122","3","left","out","Female","Right-handed","2","1","no","left","d","552.692607562","632.487042329","31","green","3"
"100","89","20","753.706781407","1","1","2","123","0","left","out","Female","Right-handed","2","1","no","left","d","575.315174259","953.225699373","31","green","0"
"100","89","20","758.054099669","1","1","2","124","0","right","in","Female","Right-handed","2","1","no","right","s","789.797876034","1056.70651118","31","green","3"
"100","90","20","762.921855963","1","1","2","125","0","left","in","Female","Right-handed","2","1","no","left","d","1377.26877519","528.259927642","31","green","1"
"100","90","20","765.186370346","1","1","2","126","0","left","in","Female","Right-handed","2","1","no","left","s","974.858220092","736.675671264","31","green","2"
"100","90","20","763.275874105","1","1","2","127","2","right","out","Female","Right-handed","2","1","no","right","s","689.493421662","680.397634794","31","red","2"
"100","90","20","763.142569329","1","1","2","128","2","right","out","Female","Right-handed","2","1","no","right","s","786.036214451","729.051322996","31","green","1"
"100","90","20","762.405823979","1","1","2","129","2","right","in","Female","Right-handed","2","1","no","right","s","892.672216525","568.779331355","31","red","1"
"100","91","20","760.481995563","1","1","2","130","3","right","in","Female","Right-handed","2","1","no","right","d","607.360015292","744.307075253","31","red","3"
"100","89","20","760.414635038","1","0","2","131","3","left","in","Female","Right-handed","2","1","no","left","d","857.934014253","656.83280859","31","red","2"
"100","87","20","765.904685844","1","0","2","132","3","right","in","Female","Right-handed","2","1","no","right","s","1524.37126307","512.522782763","31","green","2"
"100","87","20","763.230222386","1","1","2","133","2","left","out","Female","Right-handed","2","1","no","left","d","713.905255132","561.155624517","31","green","3"
"100","87","20","760.973762319","1","1","2","134","2","left","in","Female","Right-handed","2","1","no","left","d","480.601096138","824.726262068","31","red","2"
"100","88","20","762.590585038","1","1","2","135","3","right","in","Female","Right-handed","2","1","no","right","d","1051.3483323","632.281464268","31","green","1"
"100","88","20","766.703019353","1","1","2","136","1","right","out","Female","Right-handed","2","1","no","right","s","1335.83790058","608.811569587","31","green","2"
"100","88","20","763.274325012","1","1","2","137","2","right","in","Female","Right-handed","2","1","no","right","s","520.231478971","656.59034835","31","green","3"
"100","86","20","763.893660695","1","0","2","138","1","left","in","Female","Right-handed","2","1","no","left","s","952.092935395","640.105297018","31","red","0"
"100","85","20","761.619448509","1","0","2","139","0","right","out","Female","Right-handed","2","1","no","right","d","673.593674483","608.578730786","31","red","3"
"100","85","20","758.14977646","1","1","2","140","2","right","out","Female","Right-handed","2","1","no","right","d","509.279395979","632.29557571","31","red","3"
"100","83","20","756.430505338","1","0","2","141","2","right","out","Female","Right-handed","2","1","no","right","s","698.866626662","624.874560501","31","red","0"
"100","84","20","754.212081332","1","1","2","142","3","left","out","Female","Right-handed","2","1","no","left","s","619.455766561","640.504907415","31","green","3"
"100","82","20","752.521267442","1","0","2","143","1","left","out","Female","Right-handed","2","1","no","left","s","672.153024483","640.13672705","31","red","3"
"100","83","20","753.074602571","1","1","2","144","3","right","in","Female","Right-handed","2","1","no","right","d","977.721239357","592.614840683","31","red","2"
"100","81","20","754.585398334","1","0","2","145","1","right","out","Female","Right-handed","2","1","no","right","s","943.212989454","744.23170732","31","red","0"
"100","81","20","756.260142698","1","1","2","146","3","left","out","Female","Right-handed","2","1","no","left","s","976.782828428","736.706780581","31","red","0"
"100","80","20","755.616734338","1","0","2","147","1","left","in","Female","Right-handed","2","1","no","left","d","632.442462998","800.295185721","31","green","3"
"100","80","20","756.606409025","1","1","2","148","3","right","in","Female","Right-handed","2","1","no","right","s","948.02531208","687.907167234","31","green","2"
"100","81","20","760.254120321","1","1","2","149","1","left","out","Female","Right-handed","2","1","no","left","s","1147.54828118","832.571582698","31","red","0"
"100","100","20","583.003344733","1","1","3","150","3","right","in","Female","Right-handed","2","1","no","right","s","669.008738511","496.997950955","31","red","2"
"100","100","20","562.249902743","1","1","3","151","0","right","out","Female","Right-handed","2","1","no","right","d","426.393913863","656.599007645","31","green","0"
"66","66","20","602.378462261","0","0","3","152","0","left","in","Female","Right-handed","2","1","no","right","d","449.101149216","916.170013377","31","green","0"
"75","75","20","605.832652082","1","1","3","153","1","right","in","Female","Right-handed","2","1","no","right","s","495.702905386","736.687537705","31","green","0"
"80","80","20","616.725234499","1","1","3","154","1","right","out","Female","Right-handed","2","1","no","right","s","679.330296594","641.260831735","31","red","0"
"83","83","20","607.428113693","1","1","3","155","2","right","in","Female","Right-handed","2","1","no","right","d","504.93916525","616.945854075","31","green","2"
"85","85","20","612.156645809","1","1","3","156","2","right","in","Female","Right-handed","2","1","no","right","s","640.445895928","640.60978109","31","red","2"
"87","87","20","597.537248596","1","1","3","157","2","right","in","Female","Right-handed","2","1","no","right","d","525.18748174","465.215454467","31","green","2"
"88","88","20","614.226122967","1","1","3","158","2","left","out","Female","Right-handed","2","1","no","left","s","1022.80793974","472.666296133","31","green","0"
"90","90","20","599.696187056","1","1","3","159","3","right","out","Female","Right-handed","2","1","no","right","s","601.471695172","336.381832543","31","green","0"
"90","90","20","617.876174249","1","1","3","160","0","left","in","Female","Right-handed","2","1","no","left","d","726.229355199","873.122737157","31","red","2"
"91","91","20","630.68700489","1","1","3","161","1","left","out","Female","Right-handed","2","1","no","left","d","758.491961447","784.720322434","31","red","3"
"92","92","20","628.57421315","1","1","3","162","2","left","in","Female","Right-handed","2","1","no","left","d","669.223296582","537.218127944","31","green","0"
"92","92","20","621.844712371","1","1","3","163","0","left","in","Female","Right-handed","2","1","no","left","d","491.86523444","576.857170072","31","red","1"
"93","93","20","614.020081652","1","1","3","164","1","right","out","Female","Right-handed","2","1","no","right","s","656.449554639","352.500948513","31","red","1"
"93","93","20","616.746078943","1","1","3","165","1","right","in","Female","Right-handed","2","1","no","right","d","843.131752447","472.140324184","31","green","2"
"94","94","20","615.685351355","1","1","3","166","3","left","in","Female","Right-handed","2","1","no","left","d","596.621528224","600.805891654","31","green","2"
"94","94","20","617.383344428","1","1","3","167","0","right","out","Female","Right-handed","2","1","no","right","d","692.136109994","600.362343359","31","red","2"
"94","94","20","625.332296198","1","1","3","168","3","left","out","Female","Right-handed","2","1","no","left","d","935.902620782","600.924235345","31","red","0"
"95","95","20","644.16782899","1","1","3","169","0","right","out","Female","Right-handed","2","1","no","right","s","1051.58758539","952.498318653","31","red","3"
"95","95","20","658.163270215","1","1","3","170","1","left","in","Female","Right-handed","2","1","no","left","s","851.015558827","1025.12863061","31","green","3"
"95","95","20","658.300814087","1","1","3","171","1","right","in","Female","Right-handed","2","1","no","right","s","769.68425968","552.694211134","31","red","2"
"95","95","20","660.499008776","1","1","3","172","2","right","in","Female","Right-handed","2","1","no","right","d","561.371144729","856.34743911","31","red","2"
"95","95","20","664.703332043","1","1","3","173","0","left","in","Female","Right-handed","2","1","no","left","d","633.902997302","888.902537077","31","red","2"
"96","96","20","664.700534342","1","1","3","174","0","left","out","Female","Right-handed","2","1","no","left","s","784.666763095","544.60001597","31","red","3"
"96","96","20","665.487409349","1","1","3","175","3","left","in","Female","Right-handed","2","1","no","left","s","722.078346087","648.240222934","31","red","2"
"96","96","20","667.294293267","1","1","3","176","1","right","in","Female","Right-handed","2","1","no","right","s","843.786010237","584.760540045","31","green","0"
"96","96","20","673.921719704","1","1","3","177","3","left","out","Female","Right-handed","2","1","no","left","d","801.410310396","904.314156631","31","green","0"
"96","96","20","670.578542492","1","1","3","178","2","left","out","Female","Right-handed","2","1","no","left","s","720.947506395","432.991654685","31","red","1"
"96","96","20","679.707168324","1","1","3","179","1","left","in","Female","Right-handed","2","1","no","left","s","776.375007737","1112.49962717","31","green","3"
"96","93","20","681.787818798","1","0","3","180","0","right","in","Female","Right-handed","2","1","no","right","s","872.161234776","616.253431246","31","green","2"
"96","93","20","675.726737287","1","1","3","181","2","left","out","Female","Right-handed","2","1","no","left","s","550.867420752","424.799000141","31","red","2"
"96","90","20","674.399989869","1","0","3","182","2","right","in","Female","Right-handed","2","1","no","right","s","735.481330081","528.406814929","31","green","3"
"97","91","20","673.578350926","1","1","3","183","0","left","in","Female","Right-handed","2","1","no","left","s","780.903497938","512.025033701","31","green","2"
"97","91","20","673.236526699","1","1","3","184","2","right","out","Female","Right-handed","2","1","no","right","s","754.629274765","568.599731178","31","green","2"
"97","91","20","673.983373905","1","1","3","185","1","right","out","Female","Right-handed","2","1","no","right","d","648.141122121","752.104930119","31","red","2"
"97","91","20","684.141149999","1","1","3","186","0","left","out","Female","Right-handed","2","1","no","left","s","1610.79871727","488.843461446","31","green","2"
"97","92","20","695.445205294","1","1","3","187","3","right","in","Female","Right-handed","2","1","no","right","d","1667.28553895","560.104963475","31","red","0"
"97","92","20","692.570402797","1","1","3","188","1","right","in","Female","Right-handed","2","1","no","right","d","669.879157946","496.776657877","31","red","2"
"97","92","20","691.494043367","1","1","3","189","1","right","out","Female","Right-handed","2","1","no","right","s","618.432686975","680.599364279","31","green","2"
"97","90","20","690.851116091","1","0","3","190","1","right","out","Female","Right-handed","2","1","no","right","s","762.17953796","568.088512098","31","red","3"
"97","90","20","688.623070953","1","1","3","191","3","right","out","Female","Right-handed","2","1","no","right","d","529.840409206","664.706031392","31","green","3"
"97","88","20","690.747419491","1","0","3","192","0","right","out","Female","Right-handed","2","1","no","right","s","983.489612214","576.450503955","31","green","1"
"97","88","20","691.741470675","1","1","3","193","3","right","out","Female","Right-handed","2","1","no","right","s","580.957506278","888.01383691","31","red","3"
"97","88","20","692.404861705","1","1","3","194","2","left","out","Female","Right-handed","2","1","no","left","d","642.670693132","800.517440941","31","green","0"
"97","89","20","690.096884535","1","1","3","195","0","left","out","Female","Right-handed","2","1","no","left","s","548.151288776","624.324534956","31","red","0"
"97","89","20","687.228845612","1","1","3","196","0","left","out","Female","Right-handed","2","1","no","left","d","566.717136455","543.88097383","31","green","3"
"97","89","20","682.062374099","1","1","3","197","0","left","in","Female","Right-handed","2","1","no","left","s","494.183359595","384.293066438","31","red","0"
"97","89","20","687.753328947","1","1","3","198","3","right","out","Female","Right-handed","2","1","no","right","d","1193.99577362","727.842549655","31","green","3"
"98","90","20","687.972265884","1","1","3","199","0","left","in","Female","Right-handed","2","1","no","left","s","764.727936199","632.67241537","31","green","3"
"98","90","20","690.053816979","1","1","3","200","2","right","in","Female","Right-handed","2","1","no","right","d","1036.11823721","552.144506302","31","red","0"
"98","90","20","687.933444245","1","1","3","201","1","left","out","Female","Right-handed","2","1","no","left","d","551.779533083","607.80933645","31","green","0"
"98","90","20","686.866608703","1","1","3","202","3","left","in","Female","Right-handed","2","1","no","left","d","534.453568062","728.328752995","31","red","3"
"98","90","20","685.49719595","1","1","3","203","2","left","out","Female","Right-handed","2","1","no","left","d","553.939866653","671.896773514","31","red","3"
"98","90","20","685.062903942","1","1","3","204","1","left","out","Female","Right-handed","2","1","no","left","s","667.692525778","655.529745158","31","green","2"
"98","91","20","684.950376173","1","1","3","205","3","left","out","Female","Right-handed","2","1","no","left","s","693.340714046","664.18198373","31","red","2"
"98","91","20","682.035805602","1","1","3","206","3","left","out","Female","Right-handed","2","1","no","left","d","485.804690579","551.835016711","31","green","2"
"98","91","20","684.86948016","1","1","3","207","3","right","out","Female","Right-handed","2","1","no","right","s","1212.32108535","480.456774567","31","red","1"
"98","89","20","687.678103623","1","0","3","208","3","left","in","Female","Right-handed","2","1","no","left","d","877.182984037","823.973544893","31","red","2"
"98","90","20","689.526800035","1","1","3","209","3","left","in","Female","Right-handed","2","1","no","left","d","917.580516203","679.619260451","31","green","1"
"98","90","20","689.242890981","1","1","3","210","1","left","in","Female","Right-handed","2","1","no","left","s","616.208851916","728.207843589","31","red","1"
"98","90","20","690.301834548","1","1","3","211","2","right","in","Female","Right-handed","2","1","no","right","s","757.790237896","752.00454645","31","green","3"
"98","88","20","688.662348311","1","0","3","212","2","right","out","Female","Right-handed","2","1","no","right","s","653.526561744","520.501841382","31","green","1"
"98","89","20","690.027218547","1","1","3","213","2","right","in","Female","Right-handed","2","1","no","right","s","616.01610244","936.011984462","31","red","3"
"100","100","20","535.788221884","1","1","4","214","2","right","out","Female","Right-handed","2","1","no","right","d","591.249237901","480.327205867","31","red","3"
"100","100","20","518.84390724","1","1","4","215","2","right","in","Female","Right-handed","2","1","no","right","s","602.83280795","400.966377243","31","green","2"
"100","100","20","589.626528913","1","1","4","216","1","left","out","Female","Right-handed","2","1","no","left","d","949.638185821","512.745358697","31","red","3"
"100","100","20","589.285863189","1","1","4","217","3","left","in","Female","Right-handed","2","1","no","left","d","608.274051912","568.25368012","31","green","2"
"100","100","20","632.281432196","1","1","4","218","0","right","in","Female","Right-handed","2","1","no","right","d","567.810773253","1040.7166432","31","red","3"
"100","100","20","632.72030875","1","1","4","219","0","left","out","Female","Right-handed","2","1","no","left","s","605.449839113","664.379543925","31","red","2"
"100","100","20","642.907701224","1","1","4","220","0","left","in","Female","Right-handed","2","1","no","left","d","600.064399494","807.999712641","31","red","3"
"100","100","20","659.871258744","1","1","4","221","1","right","out","Female","Right-handed","2","1","no","right","d","796.682015","760.550307774","31","green","3"
"100","100","20","652.967716548","1","1","4","222","1","right","in","Female","Right-handed","2","1","no","right","s","691.258634839","504.22012311","31","red","2"
"100","100","20","635.661764117","1","1","4","223","2","left","in","Female","Right-handed","2","1","no","left","s","518.918152671","440.898231804","31","red","3"
"100","100","20","630.461525517","1","1","4","224","1","left","out","Female","Right-handed","2","1","no","left","d","588.433684397","568.484594635","31","red","0"
"100","100","20","617.472908436","1","1","4","225","1","left","out","Female","Right-handed","2","1","no","left","s","541.127318245","408.06892285","31","green","0"
"100","100","20","615.294926312","1","1","4","226","3","right","in","Female","Right-handed","2","1","no","right","d","625.545495452","552.772786212","31","green","0"
"100","92","20","629.225203","1","0","4","227","3","right","out","Female","Right-handed","2","1","no","right","d","1060.36618552","560.271414355","31","green","0"
"100","93","20","626.803273983","1","1","4","228","3","left","out","Female","Right-handed","2","1","no","left","s","801.897155165","383.89538033","31","red","1"
"100","87","20","625.945947723","1","0","4","229","1","right","in","Female","Right-handed","2","1","no","right","s","689.627159652","536.544947992","31","red","1"
"100","82","20","633.775173668","1","0","4","230","1","right","out","Female","Right-handed","2","1","no","right","d","765.929653819","752.155923743","31","green","2"
"100","83","20","622.776579196","1","1","4","231","2","left","out","Female","Right-handed","2","1","no","left","s","398.766916493","472.834029873","31","green","2"
"100","78","20","622.32805279","1","0","4","232","3","right","in","Female","Right-handed","2","1","no","right","s","516.297593646","712.211561311","31","red","3"
"100","75","20","626.232706668","1","0","4","233","3","left","in","Female","Right-handed","2","1","no","left","d","664.915458026","735.926802663","31","green","3"
"100","71","20","628.671706865","1","0","4","234","1","left","in","Female","Right-handed","2","1","no","left","s","538.509324939","816.394096671","31","green","2"
"100","72","20","635.736063485","1","1","4","235","0","left","in","Female","Right-handed","2","1","no","left","d","632.116937675","936.058167366","31","green","1"
"100","73","20","635.999369224","1","1","4","236","0","right","in","Female","Right-handed","2","1","no","right","s","642.791602537","640.792588412","31","green","3"
"100","75","20","633.722996231","1","1","4","237","1","left","in","Female","Right-handed","2","1","no","left","s","666.403253074","496.329581721","31","red","0"
"100","76","20","629.334732077","1","1","4","238","0","left","in","Female","Right-handed","2","1","no","left","s","576.061156426","471.971628303","31","red","0"
"100","76","20","628.036035542","1","1","4","239","3","left","out","Female","Right-handed","2","1","no","left","d","598.547740132","592.589504231","31","green","2"
"100","77","20","630.116432824","1","1","4","240","1","right","out","Female","Right-handed","2","1","no","right","d","696.142476821","672.271047457","31","green","3"
"100","78","20","628.537361808","1","1","4","241","3","right","in","Female","Right-handed","2","1","no","right","s","563.86662506","607.938263722","31","red","3"
"100","75","20","629.500100046","1","0","4","242","0","right","out","Female","Right-handed","2","1","no","right","d","632.538677379","680.374864058","31","red","2"
"100","73","20","640.866235177","1","0","4","243","3","left","out","Female","Right-handed","2","1","no","left","s","876.96521882","1064.00308912","31","red","1"
"100","70","20","646.259929234","1","0","4","244","2","right","out","Female","Right-handed","2","1","no","right","s","1127.59854999","488.542951863","31","green","0"
"100","71","20","647.914827903","1","1","4","245","0","left","out","Female","Right-handed","2","1","no","left","s","598.1407533","800.292620004","31","green","0"
"100","72","20","647.513867529","1","1","4","246","0","left","out","Female","Right-handed","2","1","no","left","s","676.699474701","592.666796449","31","red","3"
"100","73","20","650.348713932","1","1","4","247","1","right","in","Female","Right-handed","2","1","no","right","d","783.479156919","704.318133492","31","red","2"
"100","74","20","647.180636865","1","1","4","248","1","left","out","Female","Right-handed","2","1","no","left","s","582.891736051","496.04029715","31","red","0"
"97","75","20","642.983666041","0","1","4","249","2","right","in","Female","Right-handed","2","1","no","left","s","469.645164569","522.534209826","31","green","0"
"97","75","20","641.811875765","1","1","4","250","3","right","in","Female","Right-handed","2","1","no","right","d","543.17796742","656.07688427","31","green","0"
"97","76","20","640.062591337","1","1","4","251","0","left","out","Female","Right-handed","2","1","no","left","d","486.926229549","663.751905444","31","green","1"
"97","76","20","637.471535243","1","1","4","252","0","right","out","Female","Right-handed","2","1","no","right","d","565.498741677","512.524065622","31","green","0"
"97","77","20","639.173348488","1","1","4","253","3","left","out","Female","Right-handed","2","1","no","left","s","907.04215505","504.04597508","31","red","2"
"97","75","20","646.976552641","1","0","4","254","3","left","in","Female","Right-handed","2","1","no","left","d","918.673190858","999.536246683","31","red","2"
"97","73","20","649.587388445","1","0","4","255","1","left","in","Female","Right-handed","2","1","no","left","d","633.16791943","880.095393352","31","green","2"
"97","74","20","654.554481882","1","1","4","256","2","right","in","Female","Right-handed","2","1","no","right","d","838.677347319","887.66746514","31","green","1"
"97","75","20","651.370816581","1","1","4","257","2","right","in","Female","Right-handed","2","1","no","right","d","468.43703266","560.50938459","31","green","2"
"97","73","20","652.764187497","1","0","4","258","3","left","in","Female","Right-handed","2","1","no","left","s","740.102186088","688.042829512","31","green","2"
"97","73","20","662.433032874","1","1","4","259","3","left","in","Female","Right-handed","2","1","no","left","d","1571.56249268","623.499656995","31","red","0"
"97","74","20","663.150626978","1","1","4","260","2","right","out","Female","Right-handed","2","1","no","right","d","688.104085999","704.215825533","31","green","0"
"97","72","20","667.609891656","1","0","4","261","3","left","out","Female","Right-handed","2","1","no","left","d","1026.63342353","727.757239571","31","green","2"
"97","73","20","674.061122562","1","1","4","262","0","right","out","Female","Right-handed","2","1","no","right","s","1167.3142429","800.126169126","31","red","2"
"98","74","20","677.734738234","1","1","4","263","1","left","out","Female","Right-handed","2","1","no","left","d","995.704348601","719.779463809","31","green","3"
"98","74","20","676.111736892","1","1","4","264","2","right","out","Female","Right-handed","2","1","no","right","s","557.410319376","632.513020211","31","red","2"
"98","75","20","675.351341615","1","1","4","265","2","left","out","Female","Right-handed","2","1","no","left","s","585.041165323","688.101199568","31","green","2"
"98","73","20","676.527075474","1","0","4","266","0","left","in","Female","Right-handed","2","1","no","left","s","635.646081173","839.684391174","31","red","2"
"98","72","20","681.347362792","1","0","4","267","0","right","out","Female","Right-handed","2","1","no","right","s","745.355812005","1128.28936924","31","red","0"
"98","72","20","680.93716714","1","1","4","268","1","left","in","Female","Right-handed","2","1","no","left","s","701.786733127","615.786470784","31","green","1"
"98","73","20","683.284739153","1","1","4","269","1","left","in","Female","Right-handed","2","1","no","left","s","1072.2865059","552.515893814","31","red","2"
"98","73","20","682.499044088","1","1","4","270","0","right","out","Female","Right-handed","2","1","no","right","d","565.010614049","711.989626807","31","red","2"
"98","74","20","682.586987505","1","1","4","271","0","right","out","Female","Right-handed","2","1","no","right","d","775.50298473","599.696539843","31","red","2"
"98","74","20","680.208804558","1","1","4","272","2","right","out","Female","Right-handed","2","1","no","right","s","460.320066759","624.228320576","31","green","3"
"98","75","20","681.104270625","1","1","4","273","2","right","in","Female","Right-handed","2","1","no","right","d","476.018725885","991.854811216","31","red","3"
"98","75","20","681.511439808","1","1","4","274","3","right","in","Female","Right-handed","2","1","no","right","s","852.374747317","559.508434313","31","red","3"
"98","75","20","684.576548663","1","1","4","275","2","right","out","Female","Right-handed","2","1","no","right","d","1094.99887269","648.097504936","31","red","0"
"98","76","20","692.997676687","1","1","4","276","2","left","in","Female","Right-handed","2","1","no","left","s","1270.65265743","1159.56257094","31","green","1"
"98","76","20","690.500956612","1","1","4","277","2","right","in","Female","Right-handed","2","1","no","right","s","539.180259888","527.234923767","31","green","2"
"100","0","20","686.57491877","1","0","5","278","1","right","in","Female","Right-handed","2","1","no","right","d","925.072730053","448.077107487","31","red","2"
"100","50","20","617.850429613","1","1","5","279","3","left","out","Female","Right-handed","2","1","no","left","s","753.71555886","344.536322051","31","red","0"
"100","66","20","603.995451839","1","1","5","280","2","left","in","Female","Right-handed","2","1","no","left","s","600.295314007","552.275678576","31","green","3"
"100","75","20","611.089525236","1","1","5","281","0","right","in","Female","Right-handed","2","1","no","right","d","744.813162897","519.93032796","31","red","0"
"100","80","20","619.566605528","1","1","5","282","2","right","out","Female","Right-handed","2","1","no","right","d","714.614355122","592.335498264","31","red","2"
"100","83","20","606.72342353","1","1","5","283","2","right","in","Female","Right-handed","2","1","no","right","s","701.144021061","383.871006021","31","green","0"
"100","85","20","623.852947039","1","1","5","284","0","right","out","Female","Right-handed","2","1","no","right","d","708.606408456","744.653767738","31","green","1"
"100","87","20","609.096624735","1","1","5","285","0","left","in","Female","Right-handed","2","1","no","left","s","491.286023865","520.318713345","31","red","0"
"100","77","20","634.695946342","1","0","5","286","0","right","in","Female","Right-handed","2","1","no","right","s","895.067633899","783.913404492","31","green","3"
"100","80","20","652.535649833","1","1","5","287","3","right","out","Female","Right-handed","2","1","no","right","d","1113.60833755","512.57762496","31","red","0"
"100","81","20","646.594767506","1","1","5","288","3","left","in","Female","Right-handed","2","1","no","left","d","550.14132289","624.230565576","31","green","3"
"100","83","20","677.904573187","1","1","5","289","3","right","in","Female","Right-handed","2","1","no","right","d","972.802118769","1071.82275259","31","red","3"
"100","84","20","682.125349033","1","1","5","290","3","right","in","Female","Right-handed","2","1","no","right","d","841.233442708","624.315875662","31","green","2"
"100","85","20","677.005642607","1","1","5","291","1","left","out","Female","Right-handed","2","1","no","left","s","652.90148898","567.997429152","31","red","3"
"100","86","20","669.340592601","1","1","5","292","0","left","out","Female","Right-handed","2","1","no","left","d","523.427720711","600.632064341","31","red","3"
"100","81","20","686.237286472","1","0","5","293","0","left","out","Female","Right-handed","2","1","no","left","s","1063.23273265","816.14265642","31","green","0"
"100","82","20","705.144152819","1","1","5","294","0","right","out","Female","Right-handed","2","1","no","right","d","967.60493862","1047.70309012","31","red","2"
"100","83","20","708.961573152","1","1","5","295","3","right","in","Female","Right-handed","2","1","no","right","d","803.326259438","744.389178191","31","red","2"
"100","84","20","702.515016913","1","1","5","296","3","left","out","Female","Right-handed","2","1","no","left","s","572.990634813","599.963374392","31","red","3"
"100","80","20","713.31353669","1","0","5","297","0","left","out","Female","Right-handed","2","1","no","left","s","981.519783122","855.451041794","31","green","1"
"100","80","20","727.754994569","1","1","5","298","3","right","out","Female","Right-handed","2","1","no","right","d","985.134557415","1048.03374687","31","green","1"
"100","81","20","717.611535136","1","1","5","299","1","left","out","Female","Right-handed","2","1","no","left","d","553.610492756","455.587281356","31","green","3"
"100","82","20","711.707223654","1","1","5","300","0","right","in","Female","Right-handed","2","1","no","right","d","587.354800473","576.269941634","31","red","2"
"100","83","20","706.632557065","1","1","5","301","0","right","out","Female","Right-handed","2","1","no","right","s","795.889849927","383.94060109","31","green","2"
"100","84","20","708.729909235","1","1","5","302","0","right","out","Female","Right-handed","2","1","no","right","d","590.533723622","927.598998986","31","green","3"
"100","84","20","702.839830366","1","1","5","303","2","left","in","Female","Right-handed","2","1","no","left","s","599.201356494","511.974360792","31","green","3"
"100","85","20","696.779119066","1","1","5","304","2","left","out","Female","Right-handed","2","1","no","left","s","486.595252078","591.805998454","31","red","2"
"100","85","20","701.622968233","1","1","5","305","3","right","in","Female","Right-handed","2","1","no","right","s","856.458727078","808.35506442","31","green","2"
"100","86","20","703.13476849","1","1","5","306","1","right","out","Female","Right-handed","2","1","no","right","s","723.025737026","767.904614346","31","red","2"
"100","86","20","697.382477074","1","1","5","307","2","left","in","Female","Right-handed","2","1","no","left","d","429.650129232","631.481922761","31","red","2"
"100","83","20","699.630780934","1","0","5","308","1","left","out","Female","Right-handed","2","1","no","left","d","990.049508713","544.110284771","31","green","2"
"100","84","20","702.370789498","1","1","5","309","2","left","in","Female","Right-handed","2","1","no","left","d","830.753772325","743.868337675","31","green","1"
"100","84","20","692.840928929","1","1","5","310","0","left","out","Female","Right-handed","2","1","no","left","s","439.391193882","336.379587543","31","red","2"
"100","82","20","693.552201744","1","0","5","311","1","left","in","Female","Right-handed","2","1","no","left","s","1057.98616245","376.062246854","31","red","0"
"100","82","20","692.009840074","1","1","5","312","1","left","out","Female","Right-handed","2","1","no","left","d","407.614470258","871.52461629","31","green","2"
"100","83","20","685.60037845","1","1","5","313","1","left","out","Female","Right-handed","2","1","no","left","s","538.241848959","384.296594298","31","green","0"
"100","83","20","681.349472397","1","1","5","314","1","left","out","Female","Right-handed","2","1","no","left","d","465.833471508","590.800237456","31","green","0"
"100","81","20","682.15521412","1","0","5","315","3","left","out","Female","Right-handed","2","1","no","left","s","648.448687429","775.486628287","31","green","2"
"100","82","20","683.282298183","1","1","5","316","3","left","in","Female","Right-handed","2","1","no","left","d","636.134529513","816.088455653","31","red","0"
"100","80","20","685.015604369","1","0","5","317","1","left","out","Female","Right-handed","2","1","no","left","d","553.654751371","951.574339882","31","red","2"
"100","80","20","679.423393785","1","1","5","318","1","left","in","Female","Right-handed","2","1","no","left","d","439.24334445","472.226596414","31","green","1"
"97","80","20","681.102645671","0","1","5","319","1","right","in","Female","Right-handed","2","1","no","left","d","744.924450864","754.979495112","31","red","2"
"97","81","20","683.317114746","1","1","5","320","2","right","out","Female","Right-handed","2","1","no","right","s","633.39498537","919.254646433","31","green","3"
"97","81","20","680.19691483","1","1","5","321","0","right","out","Female","Right-handed","2","1","no","right","s","604.064993455","487.99164346","31","green","2"
"95","82","20","676.00698773","0","1","5","322","3","left","in","Female","Right-handed","2","1","no","right","s","636.740038684","346.560351914","31","red","1"
"95","82","20","677.012708288","1","1","5","323","3","right","in","Female","Right-handed","2","1","no","right","s","1037.23721046","407.303056377","31","green","2"
"95","82","20","678.051453936","1","1","5","324","2","right","out","Female","Right-handed","2","1","no","right","d","907.833357974","543.834149497","31","green","0"
"95","83","20","673.257916359","1","1","5","325","1","right","out","Female","Right-handed","2","1","no","right","s","480.551706089","415.371594372","31","red","1"
"95","83","20","675.541047009","1","1","5","326","2","left","in","Female","Right-handed","2","1","no","left","d","738.158334874","832.10430152","31","red","1"
"96","84","20","679.204743241","1","1","5","327","2","right","out","Female","Right-handed","2","1","no","right","s","877.720822427","839.730894792","31","red","0"
"96","84","20","675.500464291","1","1","5","328","2","right","out","Female","Right-handed","2","1","no","right","s","581.314782345","399.258251265","31","red","0"
"96","84","20","672.172008321","1","1","5","329","2","right","in","Female","Right-handed","2","1","no","right","d","532.877897216","471.963610438","31","green","3"
"96","83","20","669.999758738","1","0","5","330","3","right","out","Female","Right-handed","2","1","no","right","s","466.624033004","647.461527878","31","red","3"
"96","83","20","669.206952014","1","1","5","331","2","left","in","Female","Right-handed","2","1","no","left","s","511.167763563","743.208627735","31","red","2"
"96","83","20","670.31656893","1","1","5","332","0","left","in","Female","Right-handed","2","1","no","left","s","932.78270912","527.689055647","31","green","2"
"96","83","20","670.693689995","1","1","5","333","0","right","in","Female","Right-handed","2","1","no","right","s","831.50232021","551.368376964","31","green","3"
"96","84","20","673.768922506","1","1","5","334","1","right","in","Female","Right-handed","2","1","no","right","d","731.986823761","959.977062492","31","red","0"
"96","82","20","680.351432538","1","0","5","335","1","right","out","Female","Right-handed","2","1","no","right","s","871.619227097","1239.48978155","31","green","3"
"96","83","20","678.772750563","1","1","5","336","3","left","in","Female","Right-handed","2","1","no","left","s","647.212011916","527.206380168","31","green","0"
"96","83","20","679.122224977","1","1","5","337","1","right","in","Female","Right-handed","2","1","no","right","s","711.694890088","687.787540686","31","green","3"
"96","83","20","677.102481518","1","1","5","338","3","left","in","Female","Right-handed","2","1","no","left","s","536.378817827","575.456930113","31","red","2"
"96","83","20","674.229266166","1","1","5","339","2","left","out","Female","Right-handed","2","1","no","left","s","525.929294617","471.996964758","31","red","2"
"96","82","20","672.218888063","1","0","5","340","0","left","in","Female","Right-handed","2","1","no","left","d","535.523792692","559.627098717","31","green","0"
"96","82","20","670.680298013","1","1","5","341","2","right","in","Female","Right-handed","2","1","no","right","s","564.248916868","583.249332833","31","red","2"
"100","100","20","569.775951985","1","1","6","342","0","right","in","Female","Right-handed","2","1","no","right","s","507.745738745","631.806165225","31","red","0"
"100","100","20","568.380362388","1","1","6","343","2","left","in","Female","Right-handed","2","1","no","left","d","733.505407408","400.464138174","31","red","3"
"100","100","20","535.802547137","1","1","6","344","1","left","in","Female","Right-handed","2","1","no","left","s","365.125558163","576.168275103","31","green","2"
"100","100","20","501.774994973","1","1","6","345","2","right","out","Female","Right-handed","2","1","no","right","d","455.606844947","343.777832015","31","red","2"
"80","100","20","512.250720565","0","1","6","346","1","right","in","Female","Right-handed","2","1","no","left","s","570.249807812","538.057438061","31","red","2"
"83","100","20","546.283847819","1","1","6","347","3","left","out","Female","Right-handed","2","1","no","left","d","968.91601992","463.982948248","31","green","0"
"71","100","20","576.530865871","0","1","6","348","0","right","in","Female","Right-handed","2","1","no","left","s","905.597335759","610.428612617","31","green","2"
"62","100","20","650.586390572","0","1","6","349","1","left","out","Female","Right-handed","2","1","no","right","d","1454.94970072","883.000426229","31","red","0"
"66","100","20","645.977670495","1","1","6","350","0","left","out","Female","Right-handed","2","1","no","left","s","650.521786625","567.694033136","31","red","2"
"70","100","20","639.15396129","1","1","6","351","0","left","in","Female","Right-handed","2","1","no","left","s","747.265346754","408.215810141","31","green","2"
"72","100","20","631.720126244","1","1","6","352","3","right","out","Female","Right-handed","2","1","no","right","s","514.971438761","599.792112795","31","red","3"
"75","100","20","638.733587297","1","1","6","353","0","right","in","Female","Right-handed","2","1","no","right","s","864.495193611","567.268124143","31","green","2"
"76","100","20","644.684595814","1","1","6","354","2","left","out","Female","Right-handed","2","1","no","left","d","784.098777533","648.094618505","31","green","0"
"78","100","20","642.794878408","1","1","6","355","3","left","out","Female","Right-handed","2","1","no","left","s","700.687964896","535.769139365","31","green","2"
"73","93","20","642.425111269","0","0","6","356","1","left","in","Female","Right-handed","2","1","no","right","s","616.280371272","658.21637139","31","green","0"
"75","93","20","644.976711309","1","1","6","357","3","right","in","Female","Right-handed","2","1","no","right","d","550.735286337","815.766137477","31","red","3"
"76","88","20","668.144516415","1","0","6","358","2","right","out","Female","Right-handed","2","1","no","right","d","1142.28375096","935.375045261","31","green","2"
"77","83","20","678.717713884","1","0","6","359","1","left","in","Female","Right-handed","2","1","no","left","d","1076.90864477","640.015496931","31","red","2"
"78","84","20","671.999984538","1","1","6","360","1","right","out","Female","Right-handed","2","1","no","right","d","678.607405876","423.554306765","31","red","2"
"80","85","20","675.656679186","1","1","6","361","1","right","out","Female","Right-handed","2","1","no","right","s","803.190917875","687.076837124","31","green","1"
"80","85","20","684.873039092","1","1","6","362","0","left","in","Female","Right-handed","2","1","no","left","d","994.657856849","743.742617551","31","green","2"
"81","86","20","687.78426794","1","1","6","363","2","left","in","Female","Right-handed","2","1","no","left","s","914.367276591","583.472870912","31","red","0"
"82","86","20","689.383458386","1","1","6","364","1","right","out","Female","Right-handed","2","1","no","right","d","745.049529559","704.081766829","31","red","0"
"83","87","20","700.343664406","1","1","6","365","1","right","out","Female","Right-handed","2","1","no","right","s","905.558529292","999.298276449","31","green","3"
"84","88","20","696.175863211","1","1","6","366","1","left","out","Female","Right-handed","2","1","no","left","d","608.086113154","584.211155928","31","green","3"
"84","88","20","698.46304434","1","1","6","367","2","right","in","Female","Right-handed","2","1","no","right","d","911.546912368","599.738232741","31","green","1"
"85","88","20","699.459218163","1","1","6","368","1","right","out","Female","Right-handed","2","1","no","right","s","851.402340639","599.317134465","31","green","0"
"85","85","20","690.622554694","1","0","6","369","2","left","out","Female","Right-handed","2","1","no","left","d","448.045356743","456.019925357","31","green","2"
"86","82","20","683.755699168","1","0","6","370","2","left","in","Female","Right-handed","2","1","no","left","s","671.486900252","311.480588589","31","red","0"
"86","83","20","685.501433541","1","1","6","371","3","right","in","Female","Right-handed","2","1","no","right","d","641.115868735","831.139591992","31","green","0"
"87","83","20","683.785032781","1","1","6","372","2","right","out","Female","Right-handed","2","1","no","right","s","632.793966203","631.792053784","31","red","1"
"87","84","20","681.72843503","1","1","6","373","3","left","in","Female","Right-handed","2","1","no","left","d","556.466777014","679.481032457","31","green","2"
"87","84","20","678.706769093","1","1","6","374","3","right","out","Female","Right-handed","2","1","no","right","s","708.095510092","455.931408127","31","green","0"
"88","85","20","673.424822959","1","1","6","375","0","left","out","Female","Right-handed","2","1","no","left","d","446.515868798","551.725332316","31","red","0"
"88","85","20","681.061949279","1","1","6","376","3","right","in","Female","Right-handed","2","1","no","right","d","1146.22629558","735.222192681","31","green","1"
"88","86","20","682.750303583","1","1","6","377","1","right","in","Female","Right-handed","2","1","no","right","d","947.849239763","535.836168718","31","red","2"
"89","86","20","689.222144782","1","1","6","378","2","right","in","Female","Right-handed","2","1","no","right","s","1181.16269948","663.254156379","31","green","3"
"89","86","20","687.018741363","1","1","6","379","0","right","out","Female","Right-handed","2","1","no","right","s","699.990731349","510.994898391","31","red","2"
"89","87","20","686.344329083","1","1","6","380","3","right","in","Female","Right-handed","2","1","no","right","d","665.701208805","655.732116071","31","green","0"
"90","87","20","685.305029254","1","1","6","381","3","left","out","Female","Right-handed","2","1","no","left","s","802.303821283","487.240850572","31","red","3"
"90","87","20","684.319258653","1","1","6","382","0","left","out","Female","Right-handed","2","1","no","left","s","745.940154015","543.836715216","31","green","1"
"90","88","20","681.453515083","1","1","6","383","3","left","in","Female","Right-handed","2","1","no","left","d","552.462334475","575.453722968","31","red","2"
"90","88","20","679.771357487","1","1","6","384","2","right","in","Female","Right-handed","2","1","no","right","d","699.158476953","519.082999978","31","red","3"
"90","88","20","676.541475381","1","1","6","385","0","left","in","Female","Right-handed","2","1","no","left","d","531.638655988","543.674433626","31","red","0"
"91","88","20","675.678640119","1","1","6","386","1","right","in","Female","Right-handed","2","1","no","right","d","636.23459247","639.193184686","31","red","2"
"91","86","20","675.871302445","1","0","6","387","0","left","out","Female","Right-handed","2","1","no","left","d","705.995150154","663.087064071","31","red","3"
"91","87","20","671.225869271","1","1","6","388","0","left","out","Female","Right-handed","2","1","no","left","d","411.607046357","503.46484022","31","red","1"
"91","87","20","669.443286754","1","1","6","389","2","right","out","Female","Right-handed","2","1","no","right","d","492.161574735","679.162242142","31","green","2"
"91","85","20","675.498984307","1","0","6","390","0","right","out","Female","Right-handed","2","1","no","right","d","1068.7506274","863.594306289","31","red","3"
"92","86","20","672.215772295","1","1","6","391","1","left","in","Female","Right-handed","2","1","no","left","s","527.37507605","495.301691417","31","green","3"
"92","84","20","670.878501505","1","0","6","392","3","left","in","Female","Right-handed","2","1","no","left","s","720.896512774","487.133411181","31","green","2"
"92","84","20","671.316249245","1","1","6","393","1","left","out","Female","Right-handed","2","1","no","left","s","579.614032804","807.668735168","31","green","3"
"92","84","20","669.604674654","1","1","6","394","0","left","out","Female","Right-handed","2","1","no","left","d","586.094071367","575.111520486","31","green","0"
"92","85","20","673.912681577","1","1","6","395","2","right","out","Female","Right-handed","2","1","no","right","s","1221.72988967","582.744207333","31","green","2"
"92","83","20","677.656720325","1","0","6","396","3","left","in","Female","Right-handed","2","1","no","left","s","1264.30282899","495.366796482","31","green","2"
"91","83","20","676.216037526","0","1","6","397","3","right","in","Female","Right-handed","2","1","no","left","d","704.001267464","489.955699692","31","green","1"
"91","84","20","678.431817445","1","1","6","398","3","right","in","Female","Right-handed","2","1","no","right","d","1117.45498851","487.575997334","31","red","2"
"91","84","20","676.995397513","1","1","6","399","3","right","out","Female","Right-handed","2","1","no","right","s","527.132295096","663.106627664","31","red","3"
"91","84","20","679.067389439","1","1","6","400","0","left","out","Female","Right-handed","2","1","no","left","s","791.823830185","806.662012028","31","red","3"
"91","85","20","678.022507965","1","1","6","401","0","left","in","Female","Right-handed","2","1","no","left","d","633.431867549","599.317134466","31","red","3"
"91","85","20","682.587129732","1","1","6","402","2","right","out","Female","Right-handed","2","1","no","right","s","825.919320394","1087.0095512","31","green","3"
"91","85","20","682.738140137","1","1","6","403","2","left","in","Female","Right-handed","2","1","no","left","s","528.448187113","855.451362508","31","red","2"
"92","85","20","680.537606356","1","1","6","404","2","left","out","Female","Right-handed","2","1","no","left","s","569.135965994","519.073057825","31","red","0"
"92","85","20","683.197084917","1","1","6","405","1","right","in","Female","Right-handed","2","1","no","right","d","870.821930592","830.666537953","31","red","1"
"100","100","20","564.776813103","1","1","7","406","3","left","in","Female","Right-handed","2","1","no","left","d","681.757464712","447.796161494","31","red","3"
"100","100","20","663.329845027","1","1","7","407","0","right","in","Female","Right-handed","2","1","no","right","d","1052.3124004","471.453353504","31","green","2"
"100","100","20","574.866547981","1","1","7","408","2","left","in","Female","Right-handed","2","1","no","left","s","411.974906007","383.905001769","31","green","2"
"100","100","20","639.807713955","1","1","7","409","2","right","in","Female","Right-handed","2","1","no","right","s","1085.60995267","583.652471089","31","green","0"
"100","100","20","808.365776288","1","1","7","410","0","right","in","Female","Right-handed","2","1","no","right","d","710.035833443","2255.16021779","31","green","1"
"100","100","20","774.846963009","1","1","7","411","3","right","in","Female","Right-handed","2","1","no","right","d","542.77867774","671.72711549","31","red","3"
"100","100","20","797.553740199","1","1","7","412","2","right","out","Female","Right-handed","2","1","no","right","d","652.298866242","1215.28994043","31","red","3"
"100","87","20","771.597422513","1","0","7","413","0","left","out","Female","Right-handed","2","1","no","left","s","715.985089337","463.821308085","31","green","2"
"100","88","20","767.471524908","1","1","7","414","3","left","out","Female","Right-handed","2","1","no","left","d","557.509420188","911.419267956","31","red","3"
"100","80","20","769.281666638","1","0","7","415","2","left","out","Female","Right-handed","2","1","no","left","s","691.977356266","879.168528148","31","green","0"
"100","81","20","763.141740081","1","1","7","416","3","left","out","Female","Right-handed","2","1","no","left","s","859.707245296","543.777703728","31","green","1"
"100","83","20","744.156392842","1","1","7","417","0","left","in","Female","Right-handed","2","1","no","left","s","503.416733029","567.21841338","31","red","0"
"100","84","20","747.871534361","1","1","7","418","3","right","out","Female","Right-handed","2","1","no","right","d","712.987369938","871.919095251","31","red","2"
"100","85","20","745.058658472","1","1","7","419","1","left","in","Female","Right-handed","2","1","no","left","s","649.485557741","767.496986086","31","red","2"
"100","86","20","739.162192965","1","1","7","420","2","right","in","Female","Right-handed","2","1","no","right","d","634.018454559","679.204897183","31","green","3"
"100","87","20","730.353654799","1","1","7","421","1","left","in","Female","Right-handed","2","1","no","left","s","596.664824696","599.786339932","31","green","2"
"100","88","20","727.852435211","1","1","7","422","0","right","out","Female","Right-handed","2","1","no","right","d","568.276771572","807.389072035","31","green","3"
"100","88","20","719.944222029","1","1","7","423","3","right","in","Female","Right-handed","2","1","no","right","s","811.986515875","359.022679973","31","red","0"
"100","89","20","707.638660579","1","1","7","424","0","right","in","Female","Right-handed","2","1","no","right","d","484.621253692","487.65585527","31","red","0"
"100","90","20","704.949396046","1","1","7","425","3","right","in","Female","Right-handed","2","1","no","right","d","708.426166848","599.280573002","31","green","0"
"100","90","20","693.542160997","1","1","7","426","0","left","out","Female","Right-handed","2","1","no","left","s","506.854152147","423.940767861","31","green","2"
"100","90","20","687.651688896","1","1","7","427","1","right","in","Female","Right-handed","2","1","no","right","d","584.472859045","543.430690526","31","red","3"
"95","91","20","698.323294292","0","1","7","428","2","left","out","Female","Right-handed","2","1","no","right","d","496.130738668","1370.06648734","31","green","3"
"95","87","20","697.212394101","1","0","7","429","1","right","out","Female","Right-handed","2","1","no","right","d","695.652745622","647.6706338","31","green","2"
"96","88","20","697.972698849","1","1","7","430","3","left","in","Female","Right-handed","2","1","no","left","d","697.120014933","735.320010636","31","red","2"
"96","84","20","685.065740696","1","0","7","431","2","left","in","Female","Right-handed","2","1","no","left","d","380.963407426","343.820166343","31","green","2"
"92","85","20","684.468156419","0","1","7","432","1","right","out","Female","Right-handed","2","1","no","left","d","607.418064636","730.443865805","31","red","0"
"92","85","20","679.009954248","1","1","7","433","1","right","out","Female","Right-handed","2","1","no","right","s","720.129042727","343.147948533","31","red","3"
"93","86","20","677.878322052","1","1","7","434","2","left","in","Female","Right-handed","2","1","no","left","d","404.691477363","887.693763736","31","red","2"
"93","83","20","678.076831673","1","0","7","435","0","left","in","Female","Right-handed","2","1","no","left","d","824.377966008","543.289255387","31","red","0"
"93","83","20","674.026070187","1","1","7","436","0","left","out","Female","Right-handed","2","1","no","left","d","594.016363501","510.990087672","31","red","2"
"93","84","20","673.825796687","1","1","7","437","1","left","out","Female","Right-handed","2","1","no","left","d","599.668958386","735.565678022","31","red","3"
"93","84","20","671.423636866","1","1","7","438","3","left","out","Female","Right-handed","2","1","no","left","d","493.997986554","695.111058656","31","green","3"
"91","85","20","671.227649659","0","1","7","439","3","right","out","Female","Right-handed","2","1","no","left","d","471.802611708","857.717531895","31","red","2"
"91","85","20","669.572499804","1","1","7","440","1","right","in","Female","Right-handed","2","1","no","right","s","659.295576032","567.299233458","31","green","2"
"91","86","20","674.390182562","1","1","7","441","3","right","in","Female","Right-handed","2","1","no","right","d","870.981325752","815.036832468","31","red","0"
"91","86","20","673.124642376","1","1","7","442","3","left","in","Female","Right-handed","2","1","no","left","s","727.577639393","527.552751941","31","green","1"
"92","86","20","669.585012014","1","1","7","443","2","right","in","Female","Right-handed","2","1","no","right","s","486.123480894","591.11389634","31","red","2"
"92","87","20","668.679973148","1","1","7","444","2","right","out","Female","Right-handed","2","1","no","right","d","701.734135932","566.842856579","31","green","0"
"92","87","20","675.198690715","1","1","7","445","1","right","in","Female","Right-handed","2","1","no","right","s","571.397003949","1287.46034765","31","red","0"
"92","87","20","674.718275883","1","1","7","446","2","right","out","Female","Right-handed","2","1","no","right","s","751.987869289","559.015495967","31","green","1"
"92","88","20","673.179891555","1","1","7","447","1","right","out","Female","Right-handed","2","1","no","right","s","460.583052734","759.629215432","31","green","1"
"93","88","20","673.377960348","1","1","7","448","3","left","out","Female","Right-handed","2","1","no","left","d","860.221992234","503.171707071","31","red","2"
"93","86","20","672.535615138","1","0","7","449","0","left","out","Female","Right-handed","2","1","no","left","s","625.916882962","646.712659278","31","green","1"
"93","86","20","670.90011725","1","1","7","450","1","left","out","Female","Right-handed","2","1","no","left","s","446.419012988","751.457407338","31","red","1"
"93","86","20","669.838977982","1","1","7","451","0","right","out","Female","Right-handed","2","1","no","right","s","501.003355637","743.17206627","31","green","3"
"93","87","20","670.514524281","1","1","7","452","3","left","in","Female","Right-handed","2","1","no","left","d","700.540756894","702.638551115","31","green","0"
"93","87","20","671.59157348","1","1","7","453","1","right","out","Female","Right-handed","2","1","no","right","s","1109.13308598","335.292685751","31","green","2"
"93","87","20","670.279776301","1","1","7","454","1","left","in","Female","Right-handed","2","1","no","left","d","639.725570929","574.901452421","31","red","2"
"94","86","20","671.264260174","1","0","7","455","2","left","out","Female","Right-handed","2","1","no","left","s","568.598448319","870.409491614","31","green","2"
"94","84","20","675.387613626","1","0","7","456","0","left","out","Female","Right-handed","2","1","no","left","d","860.070935656","903.039636796","31","red","3"
"94","82","20","675.210180932","1","0","7","457","0","left","in","Female","Right-handed","2","1","no","left","s","533.61457866","798.707648433","31","red","2"
"94","83","20","676.80523488","1","1","7","458","0","right","out","Female","Right-handed","2","1","no","right","s","848.262544671","671.233535715","31","red","3"
"94","83","20","683.768211645","1","1","7","459","1","right","in","Female","Right-handed","2","1","no","right","s","506.829777838","1598.78218251","31","green","3"
"94","83","20","680.397334488","1","1","7","460","2","right","out","Female","Right-handed","2","1","no","right","d","461.409534268","535.330401788","31","red","2"
"94","83","20","680.230070004","1","1","7","461","2","left","in","Female","Right-handed","2","1","no","left","s","870.985174326","471.075872416","31","green","1"
"94","84","20","681.33385136","1","1","7","462","2","left","out","Female","Right-handed","2","1","no","left","s","1015.68775483","470.603459806","31","red","0"
"94","84","20","684.11651692","1","1","7","463","3","right","out","Female","Right-handed","2","1","no","right","s","1094.3622542","591.094653464","31","green","2"
"94","83","20","684.416800307","1","0","7","464","1","right","in","Female","Right-handed","2","1","no","right","s","692.775614913","710.890858576","31","red","0"
"95","83","20","682.858942982","1","1","7","465","2","left","in","Female","Right-handed","2","1","no","left","s","631.381859805","550.508861826","31","green","3"
"95","83","20","686.272014343","1","1","7","466","0","right","out","Female","Right-handed","2","1","no","right","s","1127.00394511","655.108646883","31","red","2"
"95","83","20","682.617067788","1","1","7","467","1","left","out","Female","Right-handed","2","1","no","left","s","560.681287617","358.649368176","31","red","0"
"95","84","20","680.015941145","1","1","7","468","0","left","in","Female","Right-handed","2","1","no","left","s","486.303722502","551.188456071","31","green","0"
"95","84","20","678.413401104","1","1","7","469","3","right","in","Female","Right-handed","2","1","no","right","s","587.867302407","567.039454632","31","green","2"
"100","100","20","477.252514963","1","1","8","470","2","right","out","Female","Right-handed","2","1","no","right","s","475.310588039","479.194441887","31","red","3"
"100","100","20","496.354837995","1","1","8","471","3","right","in","Female","Right-handed","2","1","no","right","d","583.99178714","446.922534915","31","green","0"
"66","66","20","527.38849261","0","0","8","472","2","right","in","Female","Right-handed","2","1","no","left","s","632.389865805","546.521737877","31","green","1"
"75","75","20","502.069170443","1","1","8","473","0","right","out","Female","Right-handed","2","1","no","right","s","484.983340481","367.2390674","31","green","0"
"80","80","20","518.10773894","1","1","8","474","1","left","out","Female","Right-handed","2","1","no","left","d","708.738222158","455.785803695","31","red","2"
"83","83","20","507.758166436","1","1","8","475","2","left","in","Female","Right-handed","2","1","no","left","s","432.509620636","479.510987201","31","green","2"
"85","85","20","507.950606652","1","1","8","476","0","right","out","Female","Right-handed","2","1","no","right","s","459.043301924","559.167193974","31","green","0"
"87","87","20","511.737031985","1","1","8","477","2","left","in","Female","Right-handed","2","1","no","left","s","644.734170892","431.749847741","31","red","0"
"88","77","20","525.966105527","1","0","8","478","1","right","in","Female","Right-handed","2","1","no","right","s","736.260987282","543.336400433","31","red","2"
"90","80","20","541.810151708","1","1","8","479","0","right","out","Female","Right-handed","2","1","no","right","s","609.894302088","758.918832586","31","green","0"
"90","81","20","558.961207732","1","1","8","480","2","left","out","Female","Right-handed","2","1","no","left","d","829.497533225","631.446002724","31","red","3"
"91","75","20","582.171357599","1","0","8","481","3","left","out","Female","Right-handed","2","1","no","left","s","1027.99293273","646.973079538","31","green","1"
"92","69","20","620.250546689","1","0","8","482","0","right","in","Female","Right-handed","2","1","no","right","s","874.736252328","1279.66537921","31","red","2"
"92","64","20","606.216965537","1","0","8","483","1","left","in","Female","Right-handed","2","1","no","left","s","456.222937701","391.337883418","31","red","1"
"93","66","20","626.819929761","1","1","8","484","3","left","out","Female","Right-handed","2","1","no","left","s","1167.76131906","662.76153875","31","red","0"
"93","68","20","629.292875213","1","1","8","485","1","right","in","Female","Right-handed","2","1","no","right","d","781.371420544","551.402693425","31","red","1"
"94","70","20","624.893727915","1","1","8","486","3","right","out","Female","Right-handed","2","1","no","right","d","502.092502431","606.922239858","31","green","3"
"94","72","20","626.072625537","1","1","8","487","2","right","out","Female","Right-handed","2","1","no","right","s","517.659668567","774.568101662","31","red","2"
"94","73","20","627.634275904","1","1","8","488","3","left","out","Female","Right-handed","2","1","no","left","d","712.147097676","599.340867346","31","green","3"
"95","75","20","627.771014263","1","1","8","489","3","right","out","Female","Right-handed","2","1","no","right","s","829.990150854","430.747935319","31","green","2"
"95","71","20","632.234869017","1","0","8","490","3","right","out","Female","Right-handed","2","1","no","right","d","931.567842203","511.456085993","31","green","0"
"95","72","20","622.547681296","1","1","8","491","2","left","in","Female","Right-handed","2","1","no","left","d","407.090422595","431.143055712","31","green","2"
"95","73","20","616.794016626","1","1","8","492","3","right","out","Female","Right-handed","2","1","no","right","d","485.749527668","494.677260085","31","red","3"
"95","75","20","615.712185263","1","1","8","493","1","left","out","Female","Right-handed","2","1","no","left","s","654.294993934","527.365133897","31","green","3"
"96","76","20","607.040634861","1","1","8","494","0","left","out","Female","Right-handed","2","1","no","left","s","470.916477257","326.930373181","31","green","2"
"96","73","20","605.753747038","1","0","8","495","2","right","out","Female","Right-handed","2","1","no","right","s","628.626921362","518.536181578","31","red","0"
"96","74","20","605.511457892","1","1","8","496","0","left","in","Female","Right-handed","2","1","no","left","d","575.20452772","623.219352432","31","red","2"
"96","75","20","614.664639735","1","1","8","497","0","left","in","Female","Right-handed","2","1","no","left","s","1076.87593188","646.725167147","31","green","2"
"96","75","20","613.552511094","1","1","8","498","1","left","out","Female","Right-handed","2","1","no","left","s","533.480519955","631.345298341","31","green","0"
"96","73","20","616.71988391","1","0","8","499","3","right","in","Female","Right-handed","2","1","no","right","d","594.132141472","823.01524966","31","red","2"
"96","74","20","612.648324943","1","1","8","500","3","right","out","Female","Right-handed","2","1","no","right","s","574.507294173","406.49581772","31","red","2"
"96","75","20","609.965450618","1","1","8","501","0","left","out","Female","Right-handed","2","1","no","left","d","550.340165944","503.252527151","31","red","2"
"96","75","20","613.404883012","1","1","8","502","0","right","in","Female","Right-handed","2","1","no","right","s","664.002704265","782.930734946","31","red","3"
"97","73","20","610.21248399","1","0","8","503","1","right","out","Female","Right-handed","2","1","no","right","d","571.314259581","438.412372913","31","green","2"
"97","74","20","607.693324816","1","1","8","504","2","left","in","Female","Right-handed","2","1","no","left","d","389.004043249","655.079782568","31","red","2"
"97","75","20","606.511685076","1","1","8","505","1","left","out","Female","Right-handed","2","1","no","left","d","571.598733435","558.709854951","31","red","2"
"97","75","20","607.80168264","1","1","8","506","1","right","out","Female","Right-handed","2","1","no","right","s","733.313299361","575.169890544","31","green","3"
"97","76","20","638.19871622","1","1","8","507","1","right","in","Female","Right-handed","2","1","no","right","d","630.966534394","2894.81138293","31","green","0"
"97","76","20","640.717981151","1","1","8","508","1","right","in","Female","Right-handed","2","1","no","right","s","538.45512417","934.444972911","31","green","3"
"97","77","20","639.226739452","1","1","8","509","2","left","out","Female","Right-handed","2","1","no","left","s","627.041629076","535.094997269","31","red","1"
"97","78","20","638.614185315","1","1","8","510","3","left","in","Female","Right-handed","2","1","no","left","d","685.569157775","542.654881903","31","red","2"
"97","78","20","638.461554497","1","1","8","511","0","left","out","Female","Right-handed","2","1","no","left","d","777.20565856","487.201723392","31","green","3"
"97","79","20","636.051348825","1","1","8","512","1","left","in","Female","Right-handed","2","1","no","left","s","662.787195917","406.858225224","31","green","2"
"97","79","20","632.392048849","1","1","8","513","3","left","out","Female","Right-handed","2","1","no","left","d","423.57290821","526.511391623","31","green","2"
"97","80","20","630.328739952","1","1","8","514","1","left","out","Female","Right-handed","2","1","no","left","s","584.144126577","494.942170346","31","green","0"
"97","80","20","629.240573895","1","1","8","515","0","right","out","Female","Right-handed","2","1","no","right","s","713.793325736","446.752876891","31","red","3"
"97","80","20","624.191834171","1","1","8","516","0","left","out","Female","Right-handed","2","1","no","left","d","393.486671262","390.412942501","31","red","0"
"97","79","20","624.011627749","1","0","8","517","2","right","in","Female","Right-handed","2","1","no","right","s","584.123280127","646.960571667","31","red","2"
"97","79","20","625.656439796","1","1","8","518","2","left","in","Female","Right-handed","2","1","no","left","s","514.575676939","894.639159189","31","green","3"
"98","80","20","630.127323698","1","1","8","519","0","left","in","Female","Right-handed","2","1","no","left","s","971.207846474","727.193423298","31","red","1"
"98","80","20","629.061341869","1","1","8","520","0","right","in","Female","Right-handed","2","1","no","right","d","632.637778191","518.886722639","31","red","1"
"98","80","20","629.127587695","1","1","8","521","2","right","out","Female","Right-handed","2","1","no","right","s","578.521999578","686.490250117","31","red","0"
"98","81","20","630.465045675","1","1","8","522","3","left","in","Female","Right-handed","2","1","no","left","s","664.996278107","735.029443203","31","red","0"
"98","79","20","631.104688148","1","0","8","523","3","left","in","Female","Right-handed","2","1","no","left","s","707.415274417","622.596203957","31","green","1"
"98","80","20","633.961495646","1","1","8","524","0","right","in","Female","Right-handed","2","1","no","right","d","1058.23375412","518.224446984","31","green","2"
"98","80","20","631.02127064","1","1","8","525","2","left","in","Female","Right-handed","2","1","no","left","d","451.822733341","486.795057275","31","green","2"
"98","80","20","629.798463675","1","1","8","526","0","right","in","Female","Right-handed","2","1","no","right","s","716.212796706","406.429750514","31","green","3"
"98","81","20","628.83000006","1","1","8","527","1","right","out","Female","Right-handed","2","1","no","right","d","517.079816564","630.175331467","31","red","3"
"98","81","20","627.013933468","1","1","8","528","3","right","in","Female","Right-handed","2","1","no","right","d","484.590785805","558.773356443","31","green","3"
"98","81","20","625.918221945","1","1","8","529","1","left","in","Female","Right-handed","2","1","no","left","d","572.280893395","550.261590866","31","green","0"
"96","81","20","626.00125982","0","1","8","530","1","right","in","Female","Right-handed","2","1","no","left","s","501.04472782","760.922336712","31","red","2"
"96","82","20","627.816933352","1","1","8","531","2","left","in","Female","Right-handed","2","1","no","left","d","526.612096008","950.533941709","31","red","3"
"96","82","20","626.812109416","1","1","8","532","2","left","out","Female","Right-handed","2","1","no","left","s","746.871509222","382.154541463","31","red","0"
"96","82","20","626.544721888","1","1","8","533","3","right","in","Female","Right-handed","2","1","no","right","s","692.642197641","526.756417579","31","green","2"
dis_reply=No
dis_loc=2
tar_loc=0
