"acc_1","acc_2","age","avg_rt","correct_1","correct_2","count_block_loop","count_trial_sequence","cue_position","detection","dis_shape","gender","hand","high_loc","low_loc","practice","response_keyboard_response_1","response_keyboard_response_2","response_time_keyboard_response_1","response_time_keyboard_response_2","subject_nr","tar_color","tar_position"
"100","100","23","1735.79860345","1","1","0","0","3","right","in","Female","Right-handed","2","3","yes","right","s","1495.49065289","1976.10655401","32","red","1"
"100","100","23","1411.38106613","1","1","0","1","0","right","out","Female","Right-handed","2","3","yes","right","s","1115.96302464","1057.96403299","32","green","1"
"100","100","23","1370.45232664","1","1","0","2","3","left","out","Female","Right-handed","2","3","yes","left","d","1183.59264752","1393.59704782","32","red","0"
"100","100","23","1347.38758544","1","1","0","3","2","right","out","Female","Right-handed","2","3","yes","right","s","1530.20332473","1026.18339893","32","red","1"
"100","100","23","1305.22240767","1","1","0","4","2","left","out","Female","Right-handed","2","3","yes","left","s","1255.40929221","1017.71410098","32","red","2"
"100","100","23","1258.0354684","1","1","0","5","0","left","in","Female","Right-handed","2","3","yes","left","d","827.224654005","1216.97689008","32","green","0"
"100","100","23","1223.20938325","1","1","0","6","2","right","in","Female","Right-handed","2","3","yes","right","d","858.721449355","1169.78429541","32","green","0"
"100","100","23","1197.47408408","1","1","0","7","1","right","in","Female","Right-handed","2","3","yes","right","s","977.373725453","1057.28025432","32","red","0"
"100","100","23","1189.62827357","1","1","0","8","1","right","out","Female","Right-handed","2","3","yes","right","d","1139.83594444","1113.88763451","32","green","2"
"100","90","23","1163.95570769","1","0","0","9","0","left","in","Female","Right-handed","2","3","yes","left","d","832.447606903","1033.35762266","32","red","1"
"100","90","23","1154.60240889","1","1","0","10","2","left","out","Female","Right-handed","2","3","yes","left","d","1008.07930037","1114.05954134","32","red","2"
"100","83","23","1157.51662354","1","0","0","11","2","right","in","Female","Right-handed","2","3","yes","right","d","1569.57127206","809.574697367","32","green","1"
"100","84","23","1165.6005425","1","1","0","12","2","right","out","Female","Right-handed","2","3","yes","right","s","1644.12014492","881.094995202","32","green","0"
"100","85","23","1162.85501143","1","1","0","13","1","right","out","Female","Right-handed","2","3","yes","right","d","1020.68622898","1233.63998604","32","red","3"
"100","86","23","1161.77574626","1","1","0","14","0","left","in","Female","Right-handed","2","3","yes","left","d","1236.24392553","1057.08814202","32","red","3"
"100","87","23","1145.24168866","1","1","0","15","1","right","out","Female","Right-handed","2","3","yes","right","d","1000.80052136","793.661128017","32","green","0"
"100","88","23","1131.45360923","1","1","0","16","3","right","out","Female","Right-handed","2","3","yes","right","d","892.394662163","929.294014564","32","green","3"
"100","88","23","1129.27942529","1","1","0","17","3","left","in","Female","Right-handed","2","3","yes","left","d","1390.76924458","793.867352069","32","green","1"
"100","89","23","1124.47464941","1","1","0","18","0","right","out","Female","Right-handed","2","3","yes","right","d","1122.51023744","953.467129875","32","red","2"
"100","85","23","1108.87649424","1","0","0","19","3","left","out","Female","Right-handed","2","3","yes","left","s","744.011805125","881.011286838","32","red","2"
"100","85","23","1096.03031602","1","1","0","20","3","left","in","Female","Right-handed","2","3","yes","left","d","740.653848918","937.559654236","32","red","2"
"100","86","23","1079.80775387","1","1","0","21","3","right","out","Female","Right-handed","2","3","yes","right","s","1021.12465554","457.143242009","32","green","3"
"100","100","23","1263.35934172","1","1","1","22","1","left","out","Female","Right-handed","2","3","no","left","s","932.86845792","1593.85022553","32","red","3"
"100","100","23","1009.08941336","1","1","1","23","3","left","out","Female","Right-handed","2","3","no","left","s","756.322066167","753.316903831","32","red","2"
"100","100","23","1014.50741851","1","1","1","24","2","right","out","Female","Right-handed","2","3","no","right","s","1328.84173282","721.845124774","32","red","1"
"100","100","23","938.264199633","1","1","1","25","2","right","out","Female","Right-handed","2","3","no","right","s","913.470888732","505.598197287","32","red","2"
"100","80","23","937.92550148","1","0","1","26","1","right","in","Female","Right-handed","2","3","no","right","d","992.108642551","881.032775191","32","green","2"
"100","66","23","1037.95519496","1","0","1","27","3","right","in","Female","Right-handed","2","3","no","right","s","1218.58530941","1857.62201536","32","red","1"
"100","57","23","990.614972865","1","0","1","28","1","right","in","Female","Right-handed","2","3","no","right","s","876.04651491","537.100765627","32","red","0"
"100","62","23","959.805332351","1","1","1","29","2","right","in","Female","Right-handed","2","3","no","right","s","1046.62940736","441.646290148","32","green","2"
"100","66","23","991.519262973","1","1","1","30","2","left","in","Female","Right-handed","2","3","no","left","d","1553.25647986","937.204936035","32","red","0"
"100","70","23","1044.25473578","1","1","1","31","1","left","in","Female","Right-handed","2","3","no","left","d","1227.92953616","1809.81844586","32","green","1"
"100","72","23","1024.21561094","1","1","1","32","2","left","in","Female","Right-handed","2","3","no","left","s","1086.36361887","561.285106198","32","red","0"
"100","66","23","1013.56404235","1","0","1","33","1","right","in","Female","Right-handed","2","3","no","right","s","870.988412966","921.805162849","32","red","0"
"100","69","23","997.86242687","1","1","1","34","3","right","in","Female","Right-handed","2","3","no","right","s","913.476341002","705.409741217","32","red","0"
"100","71","23","973.310582405","1","1","1","35","1","left","out","Female","Right-handed","2","3","no","left","s","803.08072437","505.192484337","32","red","0"
"100","73","23","994.595133754","1","1","1","36","1","left","out","Female","Right-handed","2","3","no","left","d","1743.63271207","841.5249932","32","red","1"
"100","75","23","983.791005873","1","1","1","37","3","right","in","Female","Right-handed","2","3","no","right","s","986.19485511","657.263320214","32","red","3"
"100","76","23","973.463665703","1","1","1","38","3","left","in","Female","Right-handed","2","3","no","left","s","878.810494527","737.641951424","32","green","2"
"100","77","23","976.76326733","1","1","1","39","3","left","in","Female","Right-handed","2","3","no","left","d","1120.31425595","945.398734046","32","green","1"
"100","78","23","986.534026749","1","1","1","40","2","left","in","Female","Right-handed","2","3","no","left","d","1387.94785578","936.867536806","32","red","0"
"100","80","23","979.084487076","1","1","1","41","3","left","in","Female","Right-handed","2","3","no","left","d","1017.49440661","657.592059957","32","red","0"
"100","80","23","974.489948643","1","1","1","42","1","left","in","Female","Right-handed","2","3","no","left","d","1028.15263018","737.045729784","32","green","1"
"100","81","23","992.520471083","1","1","1","43","0","left","out","Female","Right-handed","2","3","no","left","d","1836.72122357","905.601661083","32","green","2"
"100","82","23","984.939292402","1","1","1","44","3","right","out","Female","Right-handed","2","3","no","right","d","947.120688859","689.186033982","32","green","2"
"100","83","23","984.53751904","1","1","1","45","3","left","out","Female","Right-handed","2","3","no","left","s","924.800703535","1025.7927599","32","green","2"
"100","84","23","978.450118795","1","1","1","46","0","right","in","Female","Right-handed","2","3","no","right","d","1007.36505314","657.3399727","32","green","3"
"100","84","23","964.490877491","1","1","1","47","0","right","out","Female","Right-handed","2","3","no","right","s","581.940225173","649.079464574","32","red","0"
"100","81","23","972.472486117","1","0","1","48","0","left","out","Female","Right-handed","2","3","no","left","s","1398.49126097","961.497359818","32","red","0"
"100","78","23","973.709898104","1","0","1","49","0","left","in","Female","Right-handed","2","3","no","left","s","917.126795399","1097.11324812","32","green","1"
"100","79","23","985.32818766","1","1","1","50","2","left","out","Female","Right-handed","2","3","no","left","d","683.562178958","1937.71841148","32","green","2"
"100","80","23","977.673215376","1","1","1","51","1","left","in","Female","Right-handed","2","3","no","left","d","798.204792351","713.153245961","32","green","0"
"100","80","23","971.112275687","1","1","1","52","0","left","in","Female","Right-handed","2","3","no","left","s","835.723137632","712.845032405","32","red","0"
"100","78","23","968.525088896","1","0","1","53","2","right","in","Female","Right-handed","2","3","no","right","d","711.309416904","1065.33517983","32","red","3"
"100","78","23","966.992989335","1","1","1","54","1","left","in","Female","Right-handed","2","3","no","left","s","1154.94803025","680.983576483","32","red","2"
"100","79","23","970.917342924","1","1","1","55","1","right","out","Female","Right-handed","2","3","no","right","s","1447.4006789","753.44134385","32","red","2"
"100","80","23","966.39341025","1","1","1","56","3","right","out","Female","Right-handed","2","3","no","right","s","1144.05439697","481.10500172","32","green","0"
"100","80","23","956.428469154","1","1","1","57","2","left","out","Female","Right-handed","2","3","no","left","s","653.644617263","561.666444299","32","green","2"
"100","81","23","949.00331224","1","1","1","58","1","left","in","Female","Right-handed","2","3","no","left","s","762.279471757","601.115854941","32","green","2"
"100","81","23","953.221672273","1","1","1","59","0","left","out","Female","Right-handed","2","3","no","left","d","1329.85617556","888.745811375","32","red","0"
"100","82","23","951.99491036","1","1","1","60","1","right","in","Female","Right-handed","2","3","no","right","d","977.366990295","833.388925093","32","green","1"
"100","82","23","947.081332297","1","1","1","61","0","left","out","Female","Right-handed","2","3","no","left","s","1037.91539875","472.988176916","32","green","2"
"100","82","23","965.83539852","1","1","1","62","2","right","in","Female","Right-handed","2","3","no","right","d","1919.49660805","1512.49948685","32","green","1"
"100","80","23","973.341360234","1","0","1","63","2","right","in","Female","Right-handed","2","3","no","right","s","1401.1105951","1161.06098587","32","green","0"
"100","81","23","974.474132765","1","1","1","64","0","right","out","Female","Right-handed","2","3","no","right","d","835.651616693","1208.4495415","32","red","1"
"100","81","23","978.615483341","1","1","1","65","3","right","out","Female","Right-handed","2","3","no","right","s","1152.2411391","1161.14597712","32","green","1"
"100","82","23","979.751826973","1","1","1","66","3","right","out","Female","Right-handed","2","3","no","right","d","882.712074019","1176.78981952","32","red","1"
"100","82","23","978.686247637","1","1","1","67","2","left","in","Female","Right-handed","2","3","no","left","s","924.230781073","937.239573979","32","red","1"
"100","80","23","973.091940621","1","0","1","68","3","right","in","Female","Right-handed","2","3","no","right","s","958.739794636","472.767841107","32","green","3"
"100","81","23","981.796527819","1","1","1","69","2","right","out","Female","Right-handed","2","3","no","right","d","981.403593621","1800.42065858","32","green","1"
"100","81","23","974.647921535","1","1","1","70","2","right","out","Female","Right-handed","2","3","no","right","s","638.031243425","624.998396392","32","green","2"
"100","82","23","972.074508141","1","1","1","71","0","right","out","Female","Right-handed","2","3","no","right","d","1027.52433636","664.430167339","32","green","2"
"100","82","23","965.289897075","1","1","1","72","0","right","out","Female","Right-handed","2","3","no","right","s","747.063792829","505.054894726","32","green","1"
"100","82","23","959.884826617","1","1","1","73","3","left","out","Female","Right-handed","2","3","no","left","s","783.703681371","584.748785106","32","red","0"
"100","83","23","957.507388218","1","1","1","74","1","right","out","Female","Right-handed","2","3","no","right","s","962.388645425","705.372537499","32","red","2"
"100","81","23","953.07081882","1","0","1","75","0","right","out","Female","Right-handed","2","3","no","right","s","986.965549359","448.899732133","32","green","2"
"100","81","23","949.667977233","1","1","1","76","1","left","in","Female","Right-handed","2","3","no","left","s","1003.38201033","528.447052695","32","red","3"
"100","82","23","955.087622085","1","1","1","77","0","right","in","Female","Right-handed","2","3","no","right","d","1633.11265542","873.2235225","32","red","1"
"100","82","23","958.615053587","1","1","1","78","3","left","out","Female","Right-handed","2","3","no","left","s","879.616788883","1432.68564655","32","red","2"
"100","82","23","963.841044707","1","1","1","79","1","left","out","Female","Right-handed","2","3","no","left","d","906.228030564","1617.21704649","32","green","2"
"100","83","23","958.746864103","1","1","1","80","0","right","out","Female","Right-handed","2","3","no","right","s","741.770601881","584.798176247","32","red","2"
"100","81","23","962.730508032","1","0","1","81","3","left","out","Female","Right-handed","2","3","no","left","d","1602.25088904","793.280110636","32","green","2"
"100","81","23","965.027107188","1","1","1","82","0","left","in","Female","Right-handed","2","3","no","left","d","700.826628112","1504.819485","32","green","2"
"100","80","23","967.420119708","1","0","1","83","0","left","out","Female","Right-handed","2","3","no","left","s","834.34018566","1392.44758125","32","green","3"
"100","80","23","964.951165997","1","1","1","84","2","right","in","Female","Right-handed","2","3","no","right","d","942.912499424","680.839572438","32","green","2"
"100","79","23","968.829714376","1","0","1","85","2","right","in","Female","Right-handed","2","3","no","right","d","729.738406551","1696.61811795","32","red","3"
"100","100","23","688.577143833","1","1","2","86","1","left","out","Female","Right-handed","2","3","no","left","d","703.548272466","673.6060152","32","green","1"
"100","100","23","771.614317402","1","1","2","87","1","right","in","Female","Right-handed","2","3","no","right","d","956.052788226","753.250193715","32","red","0"
"100","100","23","966.982876882","1","1","2","88","0","right","out","Female","Right-handed","2","3","no","right","d","1793.78877525","921.651216433","32","green","2"
"100","75","23","899.057455048","1","0","2","89","3","left","in","Female","Right-handed","2","3","no","left","s","773.291130634","617.271248453","32","green","2"
"100","80","23","866.809312989","1","1","2","90","0","left","in","Female","Right-handed","2","3","no","left","d","778.851803483","696.781686021","32","green","0"
"100","83","23","867.905021262","1","1","2","91","2","right","out","Female","Right-handed","2","3","no","right","s","1169.39590143","577.371223824","32","red","0"
"100","85","23","845.918811776","1","1","2","92","1","left","in","Female","Right-handed","2","3","no","left","s","922.996323247","505.006786472","32","red","2"
"100","87","23","855.005908496","1","1","2","93","0","left","out","Female","Right-handed","2","3","no","left","d","891.636796787","945.594374285","32","red","0"
"100","88","23","850.634950569","1","1","2","94","2","right","in","Female","Right-handed","2","3","no","right","d","782.144332463","849.19024185","32","green","2"
"100","90","23","837.739963977","1","1","2","95","3","left","out","Female","Right-handed","2","3","no","left","s","938.620601623","504.749567666","32","red","1"
"100","90","23","823.434991811","1","1","2","96","3","right","in","Female","Right-handed","2","3","no","right","s","663.420856146","697.349684153","32","green","3"
"100","91","23","812.855787274","1","1","2","97","1","right","in","Female","Right-handed","2","3","no","right","d","672.042496908","720.926577824","32","red","1"
"100","92","23","822.879220352","1","1","2","98","2","left","in","Female","Right-handed","2","3","no","left","s","1108.69515017","777.625684421","32","red","1"
"100","92","23","829.575509709","1","1","2","99","2","right","in","Female","Right-handed","2","3","no","right","d","1168.16529227","665.089250435","32","green","0"
"100","93","23","832.623105818","1","1","2","100","0","left","in","Female","Right-handed","2","3","no","left","d","805.792747071","944.786155598","32","green","0"
"100","93","23","829.854972854","1","1","2","101","2","left","out","Female","Right-handed","2","3","no","left","d","639.347806007","937.318150794","32","red","1"
"100","94","23","824.20962476","1","1","2","102","3","left","out","Female","Right-handed","2","3","no","left","s","754.893892434","712.874218081","32","green","2"
"100","94","23","826.309590449","1","1","2","103","3","left","in","Female","Right-handed","2","3","no","left","d","786.498450274","937.519564024","32","green","2"
"100","94","23","816.612327408","1","1","2","104","0","right","in","Female","Right-handed","2","3","no","right","s","747.070848707","537.052336649","32","green","1"
"100","95","23","821.81458405","1","1","2","105","1","right","in","Female","Right-handed","2","3","no","right","s","904.670926706","936.64399378","32","red","2"
"100","95","23","819.216049867","1","1","2","106","1","right","out","Female","Right-handed","2","3","no","right","d","877.256597887","657.23413454","32","green","2"
"100","95","23","812.474976418","1","1","2","107","1","left","out","Female","Right-handed","2","3","no","left","d","605.010057834","736.814810158","32","red","1"
"100","95","23","821.298051641","1","1","2","108","1","left","in","Female","Right-handed","2","3","no","left","s","1310.33641141","720.475001668","32","green","0"
"100","95","23","810.851938132","1","1","2","109","1","left","out","Female","Right-handed","2","3","no","left","d","620.138500459","521.044154397","32","green","2"
"100","96","23","808.320656274","1","1","2","110","0","left","in","Female","Right-handed","2","3","no","left","d","702.561411792","792.578371555","32","red","2"
"100","96","23","818.586113678","1","1","2","111","1","right","out","Female","Right-handed","2","3","no","right","s","1205.20030995","945.24478763","32","green","3"
"100","96","23","818.133951818","1","1","2","112","3","left","out","Female","Right-handed","2","3","no","left","d","915.871811385","696.883675522","32","green","1"
"100","96","23","815.822648185","1","1","2","113","2","right","out","Female","Right-handed","2","3","no","right","s","922.397856553","584.437043613","32","red","0"
"100","96","23","812.881465285","1","1","2","114","0","left","in","Female","Right-handed","2","3","no","left","s","836.032954798","625.023733404","32","red","2"
"100","96","23","812.6046408","1","1","2","115","2","right","out","Female","Right-handed","2","3","no","right","s","1184.56892438","424.58453711","32","green","3"
"100","93","23","817.076408986","1","0","2","116","2","left","out","Female","Right-handed","2","3","no","left","s","1389.15601443","513.302894706","32","green","2"
"100","93","23","811.440430715","1","1","2","117","0","right","out","Female","Right-handed","2","3","no","right","s","792.68677549","480.763433108","32","green","1"
"100","93","23","811.017220967","1","1","2","118","3","right","out","Female","Right-handed","2","3","no","right","d","946.436268749","648.512749329","32","green","0"
"100","94","23","816.295609267","1","1","2","119","1","left","in","Female","Right-handed","2","3","no","left","s","803.993177607","1176.97166873","32","red","3"
"100","94","23","812.986397368","1","1","2","120","2","left","out","Female","Right-handed","2","3","no","left","d","792.453290092","608.493095504","32","green","1"
"100","94","23","812.888554341","1","1","2","121","0","right","out","Female","Right-handed","2","3","no","right","s","802.054414928","816.873681833","32","red","1"
"100","94","23","825.692683461","1","1","2","122","3","left","out","Female","Right-handed","2","3","no","left","s","948.605630334","1624.67703325","32","green","0"
"100","94","23","829.419386364","1","1","2","123","1","right","out","Female","Right-handed","2","3","no","right","s","1134.2473688","800.36741878","32","red","2"
"100","92","23","833.865205044","1","0","2","124","3","right","in","Female","Right-handed","2","3","no","right","d","1244.85658608","760.756043681","32","red","1"
"100","92","23","838.338991933","1","1","2","125","2","right","out","Female","Right-handed","2","3","no","right","d","1201.33529273","824.298068486","32","red","2"
"100","92","23","835.145948087","1","1","2","126","0","right","in","Female","Right-handed","2","3","no","right","s","1005.89326125","408.955127186","32","red","3"
"100","90","23","828.368301773","1","0","2","127","3","left","out","Female","Right-handed","2","3","no","left","s","620.399567922","480.570037922","32","red","2"
"100","90","23","825.546175631","1","1","2","128","0","left","out","Female","Right-handed","2","3","no","left","d","868.913664284","545.120091034","32","green","2"
"100","90","23","820.495551911","1","1","2","129","2","right","in","Female","Right-handed","2","3","no","right","s","613.808736973","592.828726914","32","green","2"
"100","91","23","818.659852257","1","1","2","130","2","right","in","Female","Right-handed","2","3","no","right","s","947.339100337","528.439034653","32","red","1"
"100","91","23","816.23221403","1","1","2","131","3","right","in","Female","Right-handed","2","3","no","right","d","836.978121648","576.998865927","32","green","3"
"100","89","23","817.598434403","1","0","2","132","1","left","out","Female","Right-handed","2","3","no","left","s","736.500182169","1024.38896102","32","red","1"
"100","87","23","817.62886451","1","0","2","133","0","right","out","Female","Right-handed","2","3","no","right","s","684.997087847","953.121071158","32","green","0"
"100","85","23","818.111206152","1","0","2","134","3","left","in","Female","Right-handed","2","3","no","left","d","825.863511107","856.663698922","32","red","1"
"100","86","23","816.003656869","1","1","2","135","0","left","out","Female","Right-handed","2","3","no","left","s","905.265224017","520.202259935","32","red","3"
"100","86","23","816.44248094","1","1","2","136","0","right","out","Female","Right-handed","2","3","no","right","s","1027.99708015","648.770288855","32","red","2"
"100","86","23","813.70998121","1","1","2","137","2","left","in","Female","Right-handed","2","3","no","left","d","732.29519995","616.409789965","32","green","2"
"100","86","23","810.508094338","1","1","2","138","3","right","out","Female","Right-handed","2","3","no","right","s","656.007374033","632.012579988","32","red","2"
"100","87","23","804.299339138","1","1","2","139","3","right","out","Female","Right-handed","2","3","no","right","s","541.662390378","408.808236645","32","red","2"
"100","87","23","805.153391276","1","1","2","140","3","right","out","Female","Right-handed","2","3","no","right","d","1046.33209834","656.2123152","32","green","0"
"100","87","23","801.095734809","1","1","2","141","2","right","in","Female","Right-handed","2","3","no","right","s","602.853525117","552.995733118","32","red","2"
"100","87","23","802.270963968","1","1","2","142","1","left","in","Female","Right-handed","2","3","no","left","s","927.629468935","808.538124831","32","red","0"
"100","86","23","804.785169435","1","0","2","143","2","left","in","Female","Right-handed","2","3","no","left","d","1248.13083393","648.058928122","32","green","0"
"100","86","23","804.357283714","1","1","2","144","2","left","out","Female","Right-handed","2","3","no","left","d","846.63152412","712.448299661","32","red","3"
"100","86","23","804.130238027","1","1","2","145","0","right","in","Female","Right-handed","2","3","no","right","d","765.275974609","816.193110386","32","green","2"
"100","86","23","801.971064089","1","1","2","146","1","right","in","Female","Right-handed","2","3","no","right","d","727.86539182","616.975863768","32","red","0"
"100","87","23","800.181343292","1","1","2","147","0","left","in","Female","Right-handed","2","3","no","left","s","813.4769183","568.539831069","32","red","1"
"100","87","23","799.877185479","1","1","2","148","1","right","in","Female","Right-handed","2","3","no","right","s","913.951971284","648.08683091","32","green","2"
"100","87","23","801.076674777","1","1","2","149","3","left","in","Female","Right-handed","2","3","no","left","d","1216.63628363","536.65271741","32","green","0"
"100","100","23","843.375076332","1","1","3","150","3","left","in","Female","Right-handed","2","3","no","left","s","837.865237874","848.884914791","32","green","0"
"100","50","23","763.37537781","1","0","3","151","2","right","out","Female","Right-handed","2","3","no","right","s","877.384565845","489.36679273","32","red","1"
"100","66","23","803.747611692","1","1","3","152","0","right","out","Female","Right-handed","2","3","no","right","d","591.978172963","1177.00598595","32","red","1"
"100","75","23","790.32971153","1","1","3","153","0","right","in","Female","Right-handed","2","3","no","right","d","739.495402135","760.656619954","32","red","0"
"100","80","23","757.590937431","1","1","3","154","1","right","in","Female","Right-handed","2","3","no","right","s","564.092062523","689.179619547","32","green","1"
"100","83","23","737.797100547","1","1","3","155","1","right","in","Female","Right-handed","2","3","no","right","d","788.79481765","488.861014608","32","red","2"
"100","85","23","725.790780589","1","1","3","156","3","right","out","Female","Right-handed","2","3","no","right","d","714.238568196","593.267153479","32","red","2"
"100","87","23","726.996436461","1","1","3","157","3","left","out","Female","Right-handed","2","3","no","left","s","558.00636825","912.865686883","32","red","2"
"100","88","23","706.621962338","1","1","3","158","3","right","in","Female","Right-handed","2","3","no","right","s","598.684784449","488.567554254","32","red","2"
"100","90","23","726.82694306","1","1","3","159","3","left","out","Female","Right-handed","2","3","no","left","d","712.21577643","1105.1277627","32","red","3"
"100","90","23","757.869052712","1","1","3","160","1","left","in","Female","Right-handed","2","3","no","left","d","1199.83463589","936.74566256","32","green","3"
"100","91","23","741.028638951","1","1","3","161","3","right","out","Female","Right-handed","2","3","no","right","s","623.318456124","488.249719048","32","red","2"
"100","92","23","732.174916977","1","1","3","162","2","right","out","Female","Right-handed","2","3","no","right","s","658.957692958","592.902813629","32","green","3"
"100","92","23","721.131118087","1","1","3","163","0","left","out","Female","Right-handed","2","3","no","left","s","658.575713413","496.547751612","32","green","1"
"100","93","23","732.327614224","1","1","3","164","1","right","out","Female","Right-handed","2","3","no","right","s","1321.10913261","457.047987662","32","green","1"
"100","93","23","722.508958559","1","1","3","165","3","right","out","Female","Right-handed","2","3","no","right","s","701.718555161","448.739692003","32","green","0"
"100","94","23","723.911261135","1","1","3","166","3","left","in","Female","Right-handed","2","3","no","left","d","764.265701251","728.430503455","32","red","0"
"100","94","23","732.496541907","1","1","3","167","3","left","in","Female","Right-handed","2","3","no","left","d","555.885435642","1201.00719443","32","green","3"
"100","94","23","726.607639469","1","1","3","168","1","left","out","Female","Right-handed","2","3","no","left","d","568.601088915","672.613702256","32","red","1"
"100","95","23","730.584678868","1","1","3","169","2","left","out","Female","Right-handed","2","3","no","left","d","851.188658768","761.108196108","32","green","0"
"100","95","23","728.378118911","1","1","3","170","3","left","in","Female","Right-handed","2","3","no","left","d","655.779982348","712.71385723","32","green","0"
"100","95","23","726.403068514","1","1","3","171","3","right","in","Female","Right-handed","2","3","no","right","d","689.432668969","680.421351342","32","red","2"
"100","95","23","720.773286794","1","1","3","172","2","left","in","Female","Right-handed","2","3","no","left","d","616.95180964","576.88436828","32","red","1"
"100","91","23","717.721686047","1","0","3","173","2","right","out","Female","Right-handed","2","3","no","right","d","686.454767976","608.614969749","32","red","2"
"100","92","23","712.962551251","1","1","3","174","0","right","out","Female","Right-handed","2","3","no","right","s","701.195778789","496.290853529","32","green","2"
"100","88","23","718.918785963","1","0","3","175","3","left","out","Female","Right-handed","2","3","no","left","d","886.827895605","848.821411895","32","red","1"
"100","88","23","721.677814953","1","1","3","176","0","right","in","Female","Right-handed","2","3","no","right","s","962.43290502","624.392232376","32","green","3"
"100","89","23","723.007202585","1","1","3","177","3","left","in","Female","Right-handed","2","3","no","left","s","1012.94785578","504.853481499","32","red","1"
"100","89","23","719.75269216","1","1","3","178","2","left","out","Female","Right-handed","2","3","no","left","s","744.66511523","512.587685313","32","green","2"
"100","90","23","720.784476727","1","1","3","179","1","right","in","Female","Right-handed","2","3","no","right","s","909.230947847","592.181510521","32","green","2"
"100","90","23","714.026053858","1","1","3","180","1","right","out","Female","Right-handed","2","3","no","right","s","661.859582908","360.687152659","32","red","2"
"100","90","23","718.930305731","1","1","3","181","2","right","in","Female","Right-handed","2","3","no","right","d","1181.49063749","560.433590081","32","green","3"
"100","90","23","717.933014921","1","1","3","182","1","left","out","Female","Right-handed","2","3","no","left","d","627.053581051","744.985836931","32","green","2"
"100","91","23","713.365294886","1","1","3","183","0","right","in","Female","Right-handed","2","3","no","right","s","780.677351402","344.583716062","32","green","2"
"100","91","23","718.676664692","1","1","3","184","0","left","in","Female","Right-handed","2","3","no","left","d","998.283176736","800.243299482","32","red","0"
"100","91","23","712.053068074","1","1","3","185","0","right","in","Female","Right-handed","2","3","no","right","s","551.730165287","408.72420756","32","red","0"
"100","91","23","712.860492058","1","1","3","186","1","right","out","Female","Right-handed","2","3","no","right","s","803.412029887","680.443481138","32","green","0"
"100","92","23","718.32376508","1","1","3","187","3","right","in","Female","Right-handed","2","3","no","right","s","1104.96804329","735.961690434","32","green","2"
"100","92","23","714.907466197","1","1","3","188","1","left","out","Female","Right-handed","2","3","no","left","s","785.629294463","384.546922867","32","green","0"
"100","92","23","719.139869299","1","1","3","189","0","left","in","Female","Right-handed","2","3","no","left","d","768.160545587","1000.24663499","32","green","2"
"100","92","23","716.069638788","1","1","3","190","2","right","out","Female","Right-handed","2","3","no","right","d","705.698390748","480.822445901","32","green","0"
"100","92","23","714.733751047","1","1","3","191","2","left","in","Female","Right-handed","2","3","no","left","d","823.46547495","496.459232423","32","green","1"
"100","93","23","716.985019999","1","1","3","192","0","right","in","Female","Right-handed","2","3","no","right","d","1086.9685","536.108131962","32","red","2"
"100","93","23","726.533153964","1","1","3","193","2","right","in","Female","Right-handed","2","3","no","right","s","1345.67192479","928.533904133","32","red","1"
"100","93","23","724.024154335","1","1","3","194","2","left","out","Female","Right-handed","2","3","no","left","s","859.131652409","368.124688899","32","red","0"
"100","93","23","727.441355898","1","1","3","195","1","right","in","Female","Right-handed","2","3","no","right","d","1137.66337564","624.767476767","32","green","3"
"100","93","23","725.802062876","1","1","3","196","0","right","in","Female","Right-handed","2","3","no","right","d","796.445313101","504.343854714","32","green","1"
"100","93","23","723.336788041","1","1","3","197","3","left","out","Female","Right-handed","2","3","no","left","s","823.002352814","391.935388689","32","red","1"
"100","93","23","722.707250887","1","1","3","198","1","right","out","Female","Right-handed","2","3","no","right","s","696.539861858","688.439073141","32","red","0"
"100","94","23","721.148728916","1","1","3","199","0","left","out","Female","Right-handed","2","3","no","left","s","889.23715702","400.325147661","32","green","2"
"100","94","23","718.359524474","1","1","3","200","2","right","out","Female","Right-handed","2","3","no","right","s","581.895644857","575.902959877","32","red","2"
"100","94","23","718.22542882","1","1","3","201","1","right","out","Female","Right-handed","2","3","no","right","d","862.377356021","560.39574492","32","green","2"
"100","94","23","717.335517452","1","1","3","202","2","left","in","Female","Right-handed","2","3","no","left","d","662.020264481","680.099988198","32","red","2"
"100","94","23","720.443458095","1","1","3","203","0","left","out","Female","Right-handed","2","3","no","left","d","945.722021521","824.606602762","32","green","0"
"100","94","23","724.567938303","1","1","3","204","2","left","in","Female","Right-handed","2","3","no","left","s","1086.245914","808.333825107","32","green","0"
"100","94","23","721.873923864","1","1","3","205","2","left","in","Female","Right-handed","2","3","no","left","s","563.792508454","583.613751007","32","red","2"
"100","94","23","716.736118107","1","1","3","206","1","left","in","Female","Right-handed","2","3","no","left","d","433.481677812","424.556313599","32","red","1"
"100","94","23","713.76861137","1","1","3","207","0","left","out","Female","Right-handed","2","3","no","left","s","649.01660312","440.224851571","32","green","1"
"100","94","23","712.436326958","1","1","3","208","0","left","in","Female","Right-handed","2","3","no","left","d","766.682659989","503.645002129","32","red","3"
"100","95","23","712.508966844","1","1","3","209","2","right","in","Female","Right-handed","2","3","no","right","d","561.339308166","872.250132137","32","red","2"
"100","95","23","714.794441996","1","1","3","210","0","left","out","Female","Right-handed","2","3","no","left","s","1023.90338836","679.942513841","32","red","2"
"100","95","23","717.394549912","1","1","3","211","1","left","in","Female","Right-handed","2","3","no","left","d","775.48165985","976.520605729","32","green","0"
"100","95","23","720.522801928","1","1","3","212","1","right","out","Female","Right-handed","2","3","no","right","d","828.990868413","999.957985457","32","green","2"
"100","95","23","720.837144075","1","1","3","213","3","left","out","Female","Right-handed","2","3","no","left","d","945.709834097","535.571564557","32","red","1"
"100","100","23","811.505923088","1","1","4","214","2","left","out","Female","Right-handed","2","3","no","left","s","758.068716548","864.943129627","32","green","1"
"100","100","23","720.29074705","1","1","4","215","1","left","out","Female","Right-handed","2","3","no","left","d","689.635685805","568.51545622","32","green","2"
"100","100","23","657.570571603","1","1","4","216","2","left","out","Female","Right-handed","2","3","no","left","d","616.157381988","448.103059429","32","green","2"
"100","100","23","614.015121387","1","1","4","217","3","left","out","Female","Right-handed","2","3","no","left","s","597.93654072","368.761000755","32","red","2"
"100","100","23","565.689641459","1","1","4","218","2","left","in","Female","Right-handed","2","3","no","left","s","424.397877079","320.377566415","32","green","2"
"100","100","23","587.097483575","1","1","4","219","3","right","in","Female","Right-handed","2","3","no","right","s","804.138464538","584.134923771","32","green","2"
"100","100","23","602.619444092","1","1","4","220","0","right","out","Female","Right-handed","2","3","no","right","s","718.731558503","672.77085589","32","red","1"
"100","100","23","653.639405536","1","1","4","221","1","left","out","Female","Right-handed","2","3","no","left","d","1053.24429244","968.313978847","32","green","3"
"100","100","23","662.985993157","1","1","4","222","1","right","out","Female","Right-handed","2","3","no","right","s","906.76844663","568.748941618","32","green","1"
"100","100","23","666.4261147","1","1","4","223","3","left","out","Female","Right-handed","2","3","no","left","s","850.280054188","544.494362995","32","green","0"
"100","100","23","662.947733325","1","1","4","224","3","right","in","Female","Right-handed","2","3","no","right","d","608.109191627","648.21864753","32","red","3"
"100","100","23","673.346043534","1","1","4","225","1","left","in","Female","Right-handed","2","3","no","left","s","926.629779395","648.825132266","32","green","3"
"100","100","23","655.535715766","1","1","4","226","0","left","out","Female","Right-handed","2","3","no","left","s","483.357109502","400.266455588","32","green","0"
"100","100","23","653.249831758","1","1","4","227","1","left","in","Female","Right-handed","2","3","no","left","d","709.974893905","537.09178542","32","red","0"
"100","100","23","654.439034226","1","1","4","228","3","right","out","Female","Right-handed","2","3","no","right","s","925.5672284","416.608509131","32","red","1"
"100","100","23","653.204055895","1","1","4","229","2","left","out","Female","Right-handed","2","3","no","left","s","597.12351121","672.23525065","32","green","2"
"100","100","23","643.536299357","1","1","4","230","2","right","in","Female","Right-handed","2","3","no","right","s","608.921900417","368.78248911","32","red","0"
"100","100","23","654.192213932","1","1","4","231","2","right","in","Female","Right-handed","2","3","no","right","d","1086.33218814","584.353335249","32","red","1"
"100","94","23","664.786987112","1","0","4","232","1","right","out","Female","Right-handed","2","3","no","right","s","1047.05372217","663.93208654","32","red","2"
"100","95","23","656.925608281","1","1","4","233","3","right","in","Female","Right-handed","2","3","no","right","d","590.656158114","424.462662862","32","red","2"
"100","95","23","658.345572684","1","1","4","234","2","right","in","Female","Right-handed","2","3","no","right","s","749.238285962","624.251435551","32","green","3"
"100","95","23","659.957353344","1","1","4","235","0","left","in","Female","Right-handed","2","3","no","left","d","818.840988748","568.768505642","32","red","2"
"100","91","23","691.018519252","1","0","4","236","1","left","in","Female","Right-handed","2","3","no","left","d","844.462162537","1904.26617592","32","green","2"
"100","91","23","691.933309343","1","1","4","237","0","right","in","Female","Right-handed","2","3","no","right","d","714.021118884","711.925844013","32","green","2"
"100","92","23","693.755234178","1","1","4","238","1","right","out","Female","Right-handed","2","3","no","right","s","746.464684691","728.498175735","32","red","0"
"100","92","23","691.495840832","1","1","4","239","3","right","out","Female","Right-handed","2","3","no","right","d","797.956874478","472.06513986","32","red","0"
"100","92","23","689.615753546","1","1","4","240","3","left","in","Female","Right-handed","2","3","no","left","d","832.676602198","448.790366032","32","green","0"
"100","92","23","686.321170207","1","1","4","241","0","left","out","Female","Right-handed","2","3","no","left","s","770.363262227","424.371577899","32","red","3"
"100","93","23","687.582281705","1","1","4","242","2","right","in","Female","Right-handed","2","3","no","right","s","1037.932397","407.854410308","32","red","1"
"100","93","23","689.749675644","1","1","4","243","0","right","in","Female","Right-handed","2","3","no","right","s","1128.62030656","376.587893141","32","green","1"
"100","93","23","682.665404872","1","1","4","244","0","left","out","Female","Right-handed","2","3","no","left","s","596.00739969","344.267163742","32","red","1"
"100","93","23","675.449543581","1","1","4","245","3","right","in","Female","Right-handed","2","3","no","right","d","495.731194162","407.784492978","32","red","3"
"100","93","23","670.266238081","1","1","4","246","3","right","out","Female","Right-handed","2","3","no","right","s","664.432412392","344.3685118","32","green","2"
"100","94","23","667.375444332","1","1","4","247","1","right","in","Female","Right-handed","2","3","no","right","s","839.912725211","304.045775967","32","green","2"
"100","94","23","663.79858384","1","1","4","248","1","left","in","Female","Right-handed","2","3","no","left","d","579.694852546","504.675801676","32","green","1"
"100","94","23","662.688599505","1","1","4","249","2","left","in","Female","Right-handed","2","3","no","left","d","575.26825163","672.410043979","32","red","3"
"100","94","23","669.355490499","1","1","4","250","0","left","out","Female","Right-handed","2","3","no","left","s","898.803002469","919.924130076","32","red","3"
"100","94","23","667.806915307","1","1","4","251","1","right","in","Female","Right-handed","2","3","no","right","d","660.498440009","560.520826384","32","green","1"
"100","94","23","669.544897222","1","1","4","252","3","left","out","Female","Right-handed","2","3","no","left","d","1007.16877146","464.007648572","32","red","0"
"100","95","23","669.350659628","1","1","4","253","3","left","out","Female","Right-handed","2","3","no","left","s","739.714455056","583.836331869","32","red","1"
"100","95","23","668.130626945","1","1","4","254","3","right","out","Female","Right-handed","2","3","no","right","d","734.374118016","504.284521201","32","red","1"
"100","95","23","670.127139275","1","1","4","255","2","left","out","Female","Right-handed","2","3","no","left","d","583.971997146","919.996292458","32","green","2"
"100","95","23","670.82053604","1","1","4","256","0","right","out","Female","Right-handed","2","3","no","right","d","615.380273306","784.506127067","32","red","1"
"100","95","23","671.327032396","1","1","4","257","2","left","in","Female","Right-handed","2","3","no","left","s","626.169351321","760.043400059","32","red","2"
"100","95","23","670.093795418","1","1","4","258","0","left","in","Female","Right-handed","2","3","no","left","s","847.820118745","383.842618014","32","red","2"
"100","95","23","670.827237065","1","1","4","259","2","right","in","Female","Right-handed","2","3","no","right","s","703.208628183","704.455594156","32","green","0"
"100","95","23","668.252566101","1","1","4","260","1","right","in","Female","Right-handed","2","3","no","right","s","699.866066618","399.769336953","32","green","2"
"100","95","23","666.33312612","1","1","4","261","2","right","out","Female","Right-handed","2","3","no","right","d","576.623942259","575.614951789","32","green","2"
"100","95","23","669.584246888","1","1","4","262","2","left","in","Female","Right-handed","2","3","no","left","d","963.146510805","688.1295767","32","green","0"
"100","96","23","672.586761635","1","1","4","263","0","left","in","Female","Right-handed","2","3","no","left","s","847.690867899","791.72910049","32","red","2"
"100","94","23","672.888331219","1","0","4","264","1","right","in","Female","Right-handed","2","3","no","right","s","1008.54915766","367.384463214","32","red","2"
"100","94","23","670.062015735","1","1","4","265","0","right","out","Female","Right-handed","2","3","no","right","s","651.915606573","399.924245534","32","green","2"
"100","94","23","669.65686905","1","1","4","266","3","left","out","Female","Right-handed","2","3","no","left","d","737.598653994","559.579828916","32","red","1"
"100","94","23","673.674611038","1","1","4","267","3","right","out","Female","Right-handed","2","3","no","right","d","957.008218172","816.221654617","32","green","2"
"100","94","23","674.84015522","1","1","4","268","0","right","out","Female","Right-handed","2","3","no","right","d","795.708936077","679.850145993","32","green","0"
"100","94","23","678.15353965","1","1","4","269","3","left","in","Female","Right-handed","2","3","no","left","s","768.359072319","952.420294243","32","red","2"
"100","92","23","678.227226666","1","0","4","270","1","right","in","Female","Right-handed","2","3","no","right","s","812.96568791","551.741711268","32","red","1"
"100","93","23","684.834227579","1","1","4","271","2","right","out","Female","Right-handed","2","3","no","right","d","1595.48494404","527.381615206","32","green","1"
"100","93","23","689.050553524","1","1","4","272","0","left","out","Female","Right-handed","2","3","no","left","d","867.08555059","1000.1093661","32","red","2"
"100","93","23","688.135293563","1","1","4","273","0","left","in","Female","Right-handed","2","3","no","left","d","548.636483762","719.633427925","32","green","0"
"100","93","23","685.620965163","1","1","4","274","1","left","in","Female","Right-handed","2","3","no","left","s","646.317088566","423.205433795","32","green","0"
"100","93","23","691.261437039","1","1","4","275","2","left","in","Female","Right-handed","2","3","no","left","d","1094.8399727","975.820470254","32","red","0"
"100","93","23","689.470185772","1","1","4","276","0","right","out","Female","Right-handed","2","3","no","right","s","613.367744634","543.457469736","32","green","0"
"100","93","23","686.934750553","1","1","4","277","1","right","out","Female","Right-handed","2","3","no","right","d","550.251958968","504.152704581","32","red","0"
"100","100","23","634.632715924","1","1","5","278","3","left","out","Female","Right-handed","2","3","no","left","s","780.680879343","488.584552504","32","green","2"
"100","100","23","668.483608556","1","1","5","279","2","left","out","Female","Right-handed","2","3","no","left","s","828.35487728","576.314125097","32","green","1"
"100","100","23","655.95883815","1","1","5","280","3","right","out","Female","Right-handed","2","3","no","right","d","797.847508378","463.971086297","32","red","1"
"100","100","23","677.549368692","1","1","5","281","2","left","out","Female","Right-handed","2","3","no","left","s","892.09382521","592.548095427","32","red","0"
"100","100","23","680.357591868","1","1","5","282","0","left","in","Female","Right-handed","2","3","no","left","d","847.116455332","536.064513812","32","green","3"
"100","100","23","680.09595245","1","1","5","283","1","left","out","Female","Right-handed","2","3","no","left","s","740.740443776","616.835066941","32","red","3"
"100","100","23","689.624071099","1","1","5","284","2","right","in","Female","Right-handed","2","3","no","right","s","701.354536031","792.231029953","32","red","1"
"100","100","23","664.784985767","1","1","5","285","2","left","out","Female","Right-handed","2","3","no","left","s","525.90020167","455.922575216","32","green","2"
"100","100","23","653.193379649","1","1","5","286","1","left","in","Female","Right-handed","2","3","no","left","s","688.388719833","432.532341576","32","red","2"
"100","100","23","645.902251082","1","1","5","287","3","right","out","Female","Right-handed","2","3","no","right","d","640.234280787","520.329907171","32","red","2"
"100","100","23","646.932830496","1","1","5","288","1","right","out","Female","Right-handed","2","3","no","right","s","658.75243107","655.724818216","32","green","2"
"100","100","23","658.466734852","1","1","5","289","3","right","in","Female","Right-handed","2","3","no","right","d","818.308911446","752.370454089","32","green","0"
"100","100","23","646.270941647","1","1","5","290","2","left","out","Female","Right-handed","2","3","no","left","s","600.01449662","399.828349746","32","red","3"
"100","100","23","649.364689256","1","1","5","291","0","right","out","Female","Right-handed","2","3","no","right","s","626.560631796","752.60618454","32","green","1"
"100","100","23","644.727666651","1","1","5","292","3","left","in","Female","Right-handed","2","3","no","left","s","759.316323965","400.30237642","32","green","0"
"100","100","23","639.768492653","1","1","5","293","3","right","out","Female","Right-handed","2","3","no","right","s","634.88688787","495.874877485","32","red","2"
"100","100","23","651.041573909","1","1","5","294","3","left","in","Female","Right-handed","2","3","no","left","s","862.344642408","800.477105602","32","red","1"
"100","100","23","656.375188371","1","1","5","295","1","left","out","Female","Right-handed","2","3","no","left","d","766.063667106","728.029601331","32","green","1"
"100","94","23","665.121592687","1","0","5","296","2","right","in","Female","Right-handed","2","3","no","right","s","789.37564465","855.738096094","32","green","0"
"100","95","23","660.953079057","1","1","5","297","0","left","out","Female","Right-handed","2","3","no","left","s","731.235214729","432.26742545","32","red","0"
"100","95","23","665.708732036","1","1","5","298","0","right","in","Female","Right-handed","2","3","no","right","d","1009.88111488","511.762468375","32","green","3"
"100","95","23","670.717376888","1","1","5","299","1","left","in","Female","Right-handed","2","3","no","left","d","927.38155106","624.416286504","32","green","2"
"100","95","23","664.490449075","1","1","5","300","2","right","out","Female","Right-handed","2","3","no","right","s","551.010786512","503.985287853","32","green","2"
"100","95","23","672.706210423","1","1","5","301","1","left","in","Female","Right-handed","2","3","no","left","s","1003.7036942","719.633748646","32","red","0"
"100","92","23","677.184583036","1","0","5","302","0","right","in","Female","Right-handed","2","3","no","right","s","969.114179492","600.216872016","32","red","1"
"100","92","23","669.863606189","1","1","5","303","2","left","in","Female","Right-handed","2","3","no","left","d","533.797652832","439.880717183","32","green","2"
"100","92","23","670.104387549","1","1","5","304","0","left","in","Female","Right-handed","2","3","no","left","s","848.297994078","504.43141174","32","green","2"
"100","92","23","670.015163493","1","1","5","305","3","right","in","Female","Right-handed","2","3","no","right","d","639.139657624","696.072570341","32","red","0"
"100","93","23","671.228754067","1","1","5","306","3","left","in","Female","Right-handed","2","3","no","left","d","714.713236313","695.705343993","32","red","1"
"100","93","23","668.049869873","1","1","5","307","0","left","in","Female","Right-handed","2","3","no","left","d","631.398397933","520.326058509","32","red","2"
"100","93","23","664.993489143","1","1","5","308","0","right","in","Female","Right-handed","2","3","no","right","d","626.773591006","519.83054348","32","red","2"
"100","90","23","667.00706598","1","0","5","309","3","left","out","Female","Right-handed","2","3","no","left","d","923.445333627","535.410562264","32","red","3"
"100","90","23","664.886704962","1","1","5","310","0","left","out","Female","Right-handed","2","3","no","left","d","642.043792624","552.026512138","32","red","0"
"100","91","23","661.176313623","1","1","5","311","1","left","out","Female","Right-handed","2","3","no","left","d","597.659437171","479.807361717","32","green","2"
"100","91","23","658.666051553","1","1","5","312","1","left","in","Female","Right-handed","2","3","no","left","d","659.282263321","487.352019008","32","green","0"
"100","91","23","653.022332529","1","1","5","313","3","right","out","Female","Right-handed","2","3","no","right","s","558.95859098","352.025742406","32","red","2"
"100","91","23","656.888660924","1","1","5","314","2","right","out","Female","Right-handed","2","3","no","right","d","504.589206818","1087.56375947","32","red","2"
"100","92","23","653.368986502","1","1","5","315","0","left","in","Female","Right-handed","2","3","no","left","s","494.112832461","552.169233295","32","red","0"
"100","92","23","660.315591634","1","1","5","316","2","left","out","Female","Right-handed","2","3","no","left","d","1336.81711935","511.756053942","32","green","0"
"100","92","23","657.643539799","1","1","5","317","1","left","in","Female","Right-handed","2","3","no","left","d","635.426341771","471.440694709","32","red","1"
"100","92","23","655.785563687","1","1","5","318","0","left","out","Female","Right-handed","2","3","no","left","s","594.953828904","567.979209538","32","red","1"
"100","92","23","659.316809629","1","1","5","319","3","right","out","Female","Right-handed","2","3","no","right","d","640.531910527","967.663875961","32","green","2"
"100","93","23","654.65121351","1","1","5","320","1","left","out","Female","Right-handed","2","3","no","left","s","534.173538664","383.218814304","32","red","0"
"100","93","23","655.256604622","1","1","5","321","2","right","in","Female","Right-handed","2","3","no","right","d","778.844106162","583.732738758","32","red","0"
"100","93","23","651.927476841","1","1","5","322","3","right","in","Female","Right-handed","2","3","no","right","s","595.330997625","415.560711335","32","green","3"
"100","93","23","651.64600861","1","1","5","323","3","right","out","Female","Right-handed","2","3","no","right","d","749.97915309","527.980723344","32","green","0"
"100","93","23","649.181068527","1","1","5","324","2","right","out","Female","Right-handed","2","3","no","right","s","559.668027383","511.919622011","32","red","2"
"100","93","23","652.424157603","1","1","5","325","0","right","in","Female","Right-handed","2","3","no","right","s","890.368983903","719.329704474","32","red","2"
"100","93","23","649.557179548","1","1","5","326","1","left","out","Female","Right-handed","2","3","no","left","d","567.988189743","455.896276036","32","green","2"
"100","92","23","651.026222848","1","0","5","327","3","right","in","Female","Right-handed","2","3","no","right","d","894.538045291","551.480643804","32","green","1"
"100","90","23","648.792437518","1","0","5","328","0","left","in","Female","Right-handed","2","3","no","left","s","658.115157052","416.091185029","32","red","1"
"100","88","23","648.127544063","1","0","5","329","2","right","out","Female","Right-handed","2","3","no","right","s","724.711735334","503.724220389","32","red","1"
"100","88","23","647.781056051","1","1","5","330","1","right","in","Female","Right-handed","2","3","no","right","d","668.291977339","591.235381505","32","green","0"
"100","88","23","645.92162683","1","1","5","331","0","left","in","Female","Right-handed","2","3","no","left","s","662.925020399","431.818735791","32","green","0"
"100","89","23","648.44203311","1","1","5","332","1","right","out","Female","Right-handed","2","3","no","right","s","993.521100922","575.566843534","32","green","2"
"100","89","23","646.785158979","1","1","5","333","1","right","out","Female","Right-handed","2","3","no","right","d","584.112473251","527.201690332","32","red","1"
"100","89","23","644.047262315","1","1","5","334","2","right","out","Female","Right-handed","2","3","no","right","s","557.757808933","423.692289336","32","green","2"
"100","89","23","645.578773386","1","1","5","335","0","left","in","Female","Right-handed","2","3","no","left","d","778.337686596","687.412122254","32","green","2"
"100","89","23","642.806517752","1","1","5","336","1","right","out","Female","Right-handed","2","3","no","right","s","605.023848866","359.00753311","32","green","1"
"100","90","23","641.862237415","1","1","5","337","2","right","in","Female","Right-handed","2","3","no","right","s","732.552098032","439.747296958","32","red","3"
"100","90","23","641.139625572","1","1","5","338","0","left","out","Female","Right-handed","2","3","no","left","d","628.204651233","567.361178819","32","green","2"
"100","90","23","642.053706546","1","1","5","339","2","right","in","Female","Right-handed","2","3","no","right","d","915.836211278","479.789080582","32","red","1"
"100","90","23","641.021398023","1","1","5","340","1","right","in","Female","Right-handed","2","3","no","right","s","618.567284848","535.469254335","32","green","3"
"100","90","23","640.062381473","1","1","5","341","3","right","in","Female","Right-handed","2","3","no","right","d","616.170210855","543.1184669","32","green","2"
"100","100","23","580.693098839","1","1","6","342","0","left","out","Female","Right-handed","2","3","no","left","d","641.677528441","519.708669237","32","green","0"
"100","100","23","599.458846274","1","1","6","343","3","left","in","Female","Right-handed","2","3","no","left","s","844.218414044","392.230773375","32","red","1"
"100","100","23","652.434961915","1","1","6","344","1","right","out","Female","Right-handed","2","3","no","right","d","868.896666034","647.877720361","32","green","2"
"100","100","23","646.32358318","1","1","6","345","1","right","out","Female","Right-handed","2","3","no","right","d","680.441236087","575.53765786","32","red","0"
"100","100","23","622.859952379","1","1","6","346","0","right","out","Female","Right-handed","2","3","no","right","d","554.047058853","503.963799499","32","green","0"
"100","83","23","652.669462932","1","0","6","347","3","right","in","Female","Right-handed","2","3","no","right","d","691.646610869","911.787420524","32","green","2"
"100","85","23","628.820643078","1","1","6","348","0","right","out","Female","Right-handed","2","3","no","right","s","627.229657264","344.225790643","32","green","1"
"100","87","23","642.509079631","1","1","6","349","1","left","out","Female","Right-handed","2","3","no","left","d","660.862779861","815.793491145","32","green","2"
"100","88","23","639.837975673","1","1","6","350","3","right","out","Female","Right-handed","2","3","no","right","s","805.463045164","431.475242849","32","red","0"
"100","90","23","629.612411032","1","1","6","351","2","left","in","Female","Right-handed","2","3","no","left","d","651.174418725","423.990239797","32","red","0"
"100","90","23","612.711300203","1","1","6","352","1","left","out","Female","Right-handed","2","3","no","left","s","551.644853314","335.755530525","32","green","0"
"100","91","23","630.263230198","1","1","6","353","3","right","in","Female","Right-handed","2","3","no","right","s","830.362274406","816.306645866","32","red","1"
"100","92","23","643.082055117","1","1","6","354","3","right","out","Female","Right-handed","2","3","no","right","d","587.965303044","1005.85060527","32","red","1"
"100","92","23","635.689654288","1","1","6","355","0","right","in","Female","Right-handed","2","3","no","right","s","607.629391963","471.547495035","32","red","1"
"100","93","23","627.220495314","1","1","6","356","2","right","out","Female","Right-handed","2","3","no","right","s","569.165559107","448.138980258","32","green","2"
"100","93","23","630.788395278","1","1","6","357","2","left","out","Female","Right-handed","2","3","no","left","s","744.797894013","623.81589548","32","red","1"
"100","94","23","636.086670021","1","1","6","358","0","left","in","Female","Right-handed","2","3","no","left","d","971.303425821","470.414705988","32","red","2"
"100","94","23","635.059257967","1","1","6","359","1","right","in","Female","Right-handed","2","3","no","right","s","603.036977931","632.149528153","32","red","1"
"100","94","23","640.405478656","1","1","6","360","1","left","in","Female","Right-handed","2","3","no","left","s","834.570463841","638.704438275","32","green","0"
"100","95","23","636.951461657","1","1","6","361","3","right","in","Female","Right-handed","2","3","no","right","s","639.350051058","503.300226303","32","red","2"
"100","95","23","641.969652457","1","1","6","362","2","right","out","Female","Right-handed","2","3","no","right","d","612.773447323","871.893489606","32","red","2"
"100","95","23","641.241128255","1","1","6","363","0","right","in","Female","Right-handed","2","3","no","right","s","812.409877202","439.474362791","32","green","0"
"100","95","23","645.796208634","1","1","6","364","2","left","in","Female","Right-handed","2","3","no","left","s","1092.05033535","399.965618634","32","red","3"
"100","95","23","649.166620697","1","1","6","365","2","right","in","Female","Right-handed","2","3","no","right","d","949.736174331","503.636021922","32","green","0"
"100","96","23","651.448039236","1","1","6","366","3","right","out","Female","Right-handed","2","3","no","right","d","925.173382151","487.230786204","32","green","0"
"100","96","23","659.289300694","1","1","6","367","3","left","in","Female","Right-handed","2","3","no","left","s","710.883498485","999.758175838","32","green","2"
"100","92","23","664.01213036","1","0","6","368","0","right","in","Female","Right-handed","2","3","no","right","s","1086.33571608","487.275687243","32","red","2"
"100","92","23","669.886468183","1","1","6","369","1","right","in","Female","Right-handed","2","3","no","right","d","793.00717647","863.980002361","32","green","2"
"100","89","23","665.220525145","1","0","6","370","1","left","out","Female","Right-handed","2","3","no","left","d","613.610210239","455.538029895","32","red","2"
"100","90","23","672.331814609","1","1","6","371","1","left","in","Female","Right-handed","2","3","no","left","d","1054.11954196","702.99887619","32","red","3"
"100","90","23","669.847125829","1","1","6","372","3","left","out","Female","Right-handed","2","3","no","left","s","694.797380858","495.815543969","32","red","1"
"100","90","23","670.504927007","1","1","6","373","0","right","out","Female","Right-handed","2","3","no","right","s","607.420281414","774.373245653","32","red","2"
"100","90","23","666.611920444","1","1","6","374","0","left","out","Female","Right-handed","2","3","no","left","d","595.975327522","488.096093353","32","red","0"
"100","91","23","669.155129049","1","1","6","375","2","right","out","Female","Right-handed","2","3","no","right","s","738.552480334","767.609545704","32","red","1"
"100","91","23","669.414581181","1","1","6","376","1","right","out","Female","Right-handed","2","3","no","right","s","669.209562126","687.26234522","32","red","1"
"100","91","23","672.827071278","1","1","6","377","0","right","in","Female","Right-handed","2","3","no","right","s","1160.70883345","423.819615853","32","red","3"
"100","91","23","668.370835871","1","1","6","378","3","left","out","Female","Right-handed","2","3","no","left","d","496.523376764","519.369345677","32","green","3"
"100","92","23","665.598096513","1","1","6","379","3","left","out","Female","Right-handed","2","3","no","left","s","542.972859246","583.040621328","32","green","2"
"100","92","23","669.54966693","1","1","6","380","1","left","out","Female","Right-handed","2","3","no","left","d","1095.69629964","543.722385863","32","red","3"
"100","92","23","671.190872549","1","1","6","381","3","left","in","Female","Right-handed","2","3","no","left","d","655.162272351","815.233511057","32","red","2"
"100","92","23","668.183436511","1","1","6","382","2","left","in","Female","Right-handed","2","3","no","left","d","535.865024913","559.906965049","32","red","2"
"100","92","23","667.451109948","1","1","6","383","0","right","in","Female","Right-handed","2","3","no","right","d","691.503568992","583.347872716","32","red","1"
"100","93","23","666.617511715","1","1","6","384","1","right","out","Female","Right-handed","2","3","no","right","d","712.124370744","551.088401164","32","green","1"
"100","93","23","669.348215948","1","1","6","385","2","left","in","Female","Right-handed","2","3","no","left","s","1029.77644415","543.760551744","32","red","1"
"100","93","23","670.82495537","1","1","6","386","2","left","out","Female","Right-handed","2","3","no","left","s","1088.26998866","383.332991231","32","red","0"
"100","93","23","668.598301424","1","1","6","387","2","left","out","Female","Right-handed","2","3","no","left","d","625.941959635","510.855788129","32","red","2"
"100","93","23","664.93837817","1","1","6","388","0","right","in","Female","Right-handed","2","3","no","right","s","609.477390402","383.686426545","32","red","2"
"100","93","23","661.475695736","1","1","6","389","2","right","out","Female","Right-handed","2","3","no","right","d","526.219319764","471.239922924","32","green","2"
"100","93","23","659.307760695","1","1","6","390","1","left","in","Female","Right-handed","2","3","no","left","s","694.780703329","415.713054142","32","green","2"
"100","94","23","667.689277119","1","1","6","391","3","left","in","Female","Right-handed","2","3","no","left","d","1325.34330051","831.423863234","32","green","0"
"98","94","23","677.655085796","0","1","6","392","1","right","in","Female","Right-handed","2","3","no","left","d","893.962991282","1457.92804801","32","green","2"
"98","94","23","683.776337789","1","1","6","393","0","right","out","Female","Right-handed","2","3","no","right","d","784.464753968","1207.45562495","32","red","1"
"98","94","23","688.801062042","1","1","6","394","3","left","in","Female","Right-handed","2","3","no","left","s","829.201582568","1070.97186373","32","green","0"
"98","94","23","692.47464303","1","1","6","395","1","left","in","Female","Right-handed","2","3","no","left","s","1022.75648756","751.592383243","32","green","1"
"98","94","23","690.715891072","1","1","6","396","1","right","in","Female","Right-handed","2","3","no","right","s","656.257536961","535.22903378","32","green","0"
"98","94","23","688.109482911","1","1","6","397","2","left","in","Female","Right-handed","2","3","no","left","d","610.849437838","478.6646303","32","green","1"
"98","94","23","686.906391959","1","1","6","398","2","left","out","Female","Right-handed","2","3","no","left","s","695.552039022","543.514558198","32","green","0"
"98","94","23","685.512349378","1","1","6","399","3","left","out","Female","Right-handed","2","3","no","left","d","701.112391147","510.991453408","32","green","2"
"98","94","23","683.888554058","1","1","6","400","2","left","out","Female","Right-handed","2","3","no","left","d","516.66566174","662.751189237","32","red","2"
"98","95","23","687.645968464","1","1","6","401","0","left","out","Female","Right-handed","2","3","no","left","s","771.294317325","1047.37251954","32","green","2"
"98","95","23","685.75601003","1","1","6","402","0","right","out","Female","Right-handed","2","3","no","right","s","673.862913282","470.854094718","32","green","2"
"98","95","23","690.261274175","1","1","6","403","0","left","in","Female","Right-handed","2","3","no","left","d","1026.58109384","903.583680141","32","green","3"
"98","93","23","694.513363974","1","0","6","404","3","right","in","Female","Right-handed","2","3","no","right","s","861.104732314","1055.18113079","32","green","3"
"98","93","23","692.141148699","1","1","6","405","2","right","in","Female","Right-handed","2","3","no","right","d","669.663704055","415.719468579","32","green","3"
"100","0","23","1049.3375814","1","0","7","406","3","right","out","Female","Right-handed","2","3","no","right","s","1130.83264485","967.842517948","32","red","3"
"100","50","23","772.097003561","1","1","7","407","3","left","out","Female","Right-handed","2","3","no","left","s","590.341850846","399.3710006","32","green","2"
"100","66","23","760.200126064","1","1","7","408","2","right","in","Female","Right-handed","2","3","no","right","s","688.945492704","783.86724944","32","green","2"
"100","75","23","682.426503415","1","1","7","409","1","left","out","Female","Right-handed","2","3","no","left","s","522.615049289","375.596221642","32","green","0"
"100","60","23","649.168432773","1","0","7","410","2","left","in","Female","Right-handed","2","3","no","left","d","481.128414401","551.143886016","32","red","2"
"100","66","23","687.951308886","1","1","7","411","2","right","out","Female","Right-handed","2","3","no","right","d","1123.84732621","639.884052692","32","red","1"
"100","71","23","679.502346217","1","1","7","412","3","right","in","Female","Right-handed","2","3","no","right","s","722.372070529","535.245069867","32","green","2"
"100","75","23","659.744543561","1","1","7","413","0","left","in","Female","Right-handed","2","3","no","left","s","706.907511557","335.972338395","32","red","2"
"100","77","23","700.889257933","1","1","7","414","1","right","out","Female","Right-handed","2","3","no","right","s","652.526260696","1407.56768511","32","green","0"
"100","80","23","693.91360014","1","1","7","415","0","right","out","Female","Right-handed","2","3","no","right","s","703.108563015","559.156796989","32","red","1"
"100","81","23","672.679945867","1","1","7","416","3","left","in","Female","Right-handed","2","3","no","left","s","576.791038264","343.895768012","32","green","2"
"100","83","23","667.452795645","1","1","7","417","0","right","out","Female","Right-handed","2","3","no","right","d","700.471268469","519.437017952","32","red","2"
"100","84","23","669.145232753","1","1","7","418","3","left","in","Female","Right-handed","2","3","no","left","d","922.870279617","456.038676471","32","green","0"
"100","85","23","666.897009756","1","1","7","419","1","left","out","Female","Right-handed","2","3","no","left","d","835.646164425","439.694057153","32","red","3"
"100","86","23","658.919227736","1","1","7","420","2","left","out","Female","Right-handed","2","3","no","left","s","567.262075812","527.198483116","32","green","2"
"100","87","23","647.947437241","1","1","7","421","2","left","in","Female","Right-handed","2","3","no","left","d","494.790196692","471.950962932","32","red","2"
"100","88","23","660.597241159","1","1","7","422","0","right","in","Female","Right-handed","2","3","no","right","d","846.513498535","879.47470917","32","red","0"
"100","88","23","658.930422705","1","1","7","423","0","left","in","Female","Right-handed","2","3","no","left","d","750.137910331","511.051107646","32","red","2"
"100","89","23","652.259453998","1","1","7","424","0","right","in","Female","Right-handed","2","3","no","right","s","672.63454917","391.72948536","32","red","0"
"100","90","23","650.036482093","1","1","7","425","3","right","out","Female","Right-handed","2","3","no","right","d","712.34791377","503.252118047","32","red","3"
"100","90","23","654.078263548","1","1","7","426","1","right","in","Female","Right-handed","2","3","no","right","d","614.852044666","854.975740611","32","green","0"
"100","90","23","670.189869871","1","1","7","427","0","left","out","Female","Right-handed","2","3","no","left","d","905.560608702","1111.5065966","32","green","3"
"100","91","23","665.058384457","1","1","7","428","3","left","out","Female","Right-handed","2","3","no","left","d","633.231001728","471.100408984","32","red","0"
"100","91","23","666.545881538","1","1","7","429","2","right","out","Female","Right-handed","2","3","no","right","d","897.726339721","503.790289062","32","red","1"
"100","92","23","670.976629651","1","1","7","430","1","right","out","Female","Right-handed","2","3","no","right","d","675.295256398","879.333912344","32","green","1"
"100","92","23","671.284415659","1","1","7","431","1","left","in","Female","Right-handed","2","3","no","left","d","782.877822992","575.080308714","32","red","0"
"100","92","23","680.608011372","1","1","7","432","0","right","in","Female","Right-handed","2","3","no","right","s","1054.62756513","791.415434669","32","green","2"
"100","92","23","675.503416236","1","1","7","433","3","right","in","Female","Right-handed","2","3","no","right","s","628.181879994","447.176815156","32","red","2"
"100","89","23","668.128569633","1","0","7","434","0","right","in","Female","Right-handed","2","3","no","right","s","483.678151926","439.587577548","32","green","0"
"100","86","23","683.569357778","1","0","7","435","2","left","out","Female","Right-handed","2","3","no","left","s","711.32192505","1551.38250296","32","red","0"
"100","87","23","704.154576148","1","1","7","436","3","right","out","Female","Right-handed","2","3","no","right","s","764.658264612","1878.76398988","32","green","0"
"100","87","23","702.694115406","1","1","7","437","3","left","out","Female","Right-handed","2","3","no","left","d","699.477672639","615.361992168","32","green","0"
"100","87","23","699.780516534","1","1","7","438","3","left","in","Female","Right-handed","2","3","no","left","d","646.060831925","567.029873302","32","green","2"
"100","88","23","696.600157539","1","1","7","439","1","left","out","Female","Right-handed","2","3","no","left","s","719.557096163","463.739525232","32","green","2"
"100","88","23","693.418341689","1","1","7","440","2","right","out","Female","Right-handed","2","3","no","right","s","603.22941095","567.243794678","32","red","0"
"100","88","23","694.111869404","1","1","7","441","1","right","out","Female","Right-handed","2","3","no","right","s","1045.89527538","390.875403468","32","green","2"
"100","89","23","689.890434186","1","1","7","442","2","right","out","Female","Right-handed","2","3","no","right","d","596.454806466","479.382726186","32","green","0"
"100","89","23","699.513268527","1","1","7","443","3","left","in","Female","Right-handed","2","3","no","left","d","704.073614612","1407.04266368","32","red","1"
"100","89","23","693.823628657","1","1","7","444","1","left","out","Female","Right-handed","2","3","no","left","s","499.650413345","455.584213821","32","red","1"
"100","90","23","690.949029143","1","1","7","445","1","left","out","Female","Right-handed","2","3","no","left","s","750.333871292","407.345424966","32","green","2"
"100","90","23","694.17020175","1","1","7","446","0","left","out","Female","Right-handed","2","3","no","left","d","766.994722206","879.039489824","32","red","3"
"100","90","23","693.9054309","1","1","7","447","1","right","in","Female","Right-handed","2","3","no","right","s","846.465390281","519.6342618","32","green","2"
"100","90","23","694.922298232","1","1","7","448","0","left","in","Female","Right-handed","2","3","no","left","s","1092.19530156","383.066150774","32","green","0"
"100","90","23","691.498065698","1","1","7","449","2","left","in","Female","Right-handed","2","3","no","left","d","521.666675217","566.845458325","32","green","2"
"100","91","23","695.527343449","1","1","7","450","1","right","in","Female","Right-handed","2","3","no","right","d","1282.33227538","463.298853614","32","green","2"
"100","91","23","695.526489354","1","1","7","451","2","left","in","Female","Right-handed","2","3","no","left","d","823.994024314","566.982085769","32","green","1"
"100","89","23","696.610942659","1","0","7","452","0","right","in","Female","Right-handed","2","3","no","right","s","694.500713285","798.49087611","32","red","2"
"100","89","23","692.309569352","1","1","7","453","3","left","in","Female","Right-handed","2","3","no","left","s","581.1528534","399.137194479","32","green","2"
"100","89","23","690.215459006","1","1","7","454","0","right","in","Female","Right-handed","2","3","no","right","s","732.607262165","446.789062618","32","red","1"
"100","90","23","688.538410272","1","1","7","455","2","right","out","Female","Right-handed","2","3","no","right","d","709.425497633","503.300547021","32","green","1"
"100","90","23","687.969486261","1","1","7","456","3","left","out","Female","Right-handed","2","3","no","left","s","736.031287044","583.015284312","32","red","1"
"100","90","23","684.06939416","1","1","7","457","1","left","out","Female","Right-handed","2","3","no","left","s","659.690221324","310.639172694","32","green","3"
"100","90","23","680.674769896","1","1","7","458","0","right","out","Female","Right-handed","2","3","no","right","s","665.061026924","343.247589459","32","green","1"
"100","90","23","677.689530014","1","1","7","459","0","left","in","Female","Right-handed","2","3","no","left","s","616.021395988","422.922236532","32","red","2"
"100","90","23","676.592179149","1","1","7","460","3","left","in","Female","Right-handed","2","3","no","left","d","684.482970963","550.187493904","32","green","1"
"100","91","23","677.004368024","1","1","7","461","1","left","out","Female","Right-handed","2","3","no","left","d","520.163773329","879.185738919","32","red","1"
"100","91","23","673.979475927","1","1","7","462","1","left","out","Female","Right-handed","2","3","no","left","s","642.565927552","366.605109481","32","red","2"
"100","91","23","672.355764594","1","1","7","463","2","right","out","Female","Right-handed","2","3","no","right","s","625.333550571","534.274886722","32","red","0"
"100","91","23","670.890499893","1","1","7","464","2","right","out","Female","Right-handed","2","3","no","right","s","780.885499789","390.924794611","32","green","3"
"100","91","23","672.817462099","1","1","7","465","2","right","in","Female","Right-handed","2","3","no","right","s","742.47202024","830.544444332","32","red","3"
"100","91","23","676.897298098","1","1","7","466","3","right","in","Female","Right-handed","2","3","no","right","d","1316.20048698","527.174428989","32","red","1"
"100","91","23","677.573567661","1","1","7","467","1","left","in","Female","Right-handed","2","3","no","left","s","710.921664366","726.730357721","32","red","1"
"100","92","23","675.030528633","1","1","7","468","2","right","in","Female","Right-handed","2","3","no","right","d","540.408368528","494.315849297","32","red","2"
"100","92","23","673.685403843","1","1","7","469","0","right","in","Female","Right-handed","2","3","no","right","d","698.836229236","479.048854894","32","green","1"
"100","100","23","739.174520073","1","1","8","470","1","left","in","Female","Right-handed","2","3","no","left","d","895.068839706","583.28020044","32","red","2"
"100","100","23","643.76462491","1","1","8","471","1","right","out","Female","Right-handed","2","3","no","right","d","505.832965573","590.876493919","32","green","1"
"100","100","23","593.657685604","1","1","8","472","3","right","out","Female","Right-handed","2","3","no","right","s","563.453184896","423.434429089","32","green","2"
"100","100","23","600.533344153","1","1","8","473","2","right","in","Female","Right-handed","2","3","no","right","d","755.100116487","487.220523112","32","red","0"
"100","100","23","601.171564301","1","1","8","474","2","right","in","Female","Right-handed","2","3","no","right","s","663.776857236","543.672032556","32","red","0"
"100","100","23","605.273931613","1","1","8","475","3","right","out","Female","Right-handed","2","3","no","right","d","588.287949075","663.283587263","32","green","2"
"100","100","23","621.729967357","1","1","8","476","3","right","out","Female","Right-handed","2","3","no","right","d","905.978829803","534.953533839","32","red","1"
"100","100","23","613.638533975","1","1","8","477","3","left","in","Female","Right-handed","2","3","no","left","s","658.460895043","455.536105568","32","green","2"
"100","100","23","632.804976404","1","1","8","478","0","left","in","Female","Right-handed","2","3","no","left","s","1173.09670914","399.176322528","32","red","0"
"100","100","23","621.601087632","1","1","8","479","2","left","out","Female","Right-handed","2","3","no","left","d","537.83297327","503.699204095","32","red","2"
"100","100","23","613.171171388","1","1","8","480","1","left","in","Female","Right-handed","2","3","no","left","s","618.328667901","439.415349996","32","red","1"
"100","100","23","613.113960225","1","1","8","481","3","left","in","Female","Right-handed","2","3","no","left","d","737.893397236","487.075877623","32","red","0"
"100","100","23","615.465918336","1","1","8","482","1","left","in","Female","Right-handed","2","3","no","left","d","759.666552065","527.712279279","32","green","2"
"100","92","23","621.947531213","1","0","8","483","2","left","in","Female","Right-handed","2","3","no","left","s","485.173997938","927.242999289","32","green","2"
"100","93","23","616.672012029","1","1","8","484","2","left","in","Female","Right-handed","2","3","no","left","d","598.78869828","486.840788617","32","green","2"
"100","93","23","628.66431559","1","1","8","485","3","left","in","Female","Right-handed","2","3","no","left","d","673.578753856","943.518984157","32","red","2"
"100","94","23","629.366701421","1","1","8","486","3","left","out","Female","Right-handed","2","3","no","left","d","746.143000826","535.066748598","32","green","2"
"100","94","23","626.825494468","1","1","8","487","3","left","in","Female","Right-handed","2","3","no","left","s","791.604981194","375.64497134","32","red","1"
"100","94","23","638.008505945","1","1","8","488","1","left","out","Female","Right-handed","2","3","no","left","s","767.337894423","911.267530649","32","red","3"
"100","90","23","648.17830074","1","0","8","489","1","right","out","Female","Right-handed","2","3","no","right","s","1083.87770497","598.931098717","32","green","1"
"100","90","23","644.257856705","1","1","8","490","2","left","out","Female","Right-handed","2","3","no","left","d","660.381697311","471.31625469","32","red","1"
"100","90","23","642.815434458","1","1","8","491","0","left","in","Female","Right-handed","2","3","no","left","d","650.007633176","575.041501387","32","green","2"
"100","91","23","642.414449299","1","1","8","492","0","left","out","Female","Right-handed","2","3","no","left","s","620.601301874","646.584249742","32","green","2"
"100","91","23","641.639222244","1","1","8","493","1","right","in","Female","Right-handed","2","3","no","right","s","656.305645218","591.312354714","32","red","2"
"100","92","23","644.171672064","1","1","8","494","0","left","out","Female","Right-handed","2","3","no","left","s","770.925487366","638.975448113","32","red","2"
"100","92","23","642.029045594","1","1","8","495","2","left","out","Female","Right-handed","2","3","no","left","s","697.517421602","479.409346088","32","red","3"
"100","92","23","642.720420384","1","1","8","496","0","right","in","Female","Right-handed","2","3","no","right","d","626.281283196","695.11104668","32","green","2"
"100","92","23","643.899562838","1","1","8","497","0","right","in","Female","Right-handed","2","3","no","right","d","664.725552026","686.747266169","32","green","0"
"100","93","23","651.310377077","1","1","8","498","1","right","out","Female","Right-handed","2","3","no","right","d","1078.37155481","639.254796711","32","red","2"
"100","93","23","652.613892552","1","1","8","499","1","right","out","Female","Right-handed","2","3","no","right","s","821.911899031","558.919783652","32","green","1"
"100","93","23","651.433096295","1","1","8","500","1","left","out","Female","Right-handed","2","3","no","left","d","601.43240726","630.586009861","32","red","0"
"100","93","23","660.503997516","1","1","8","501","3","left","in","Female","Right-handed","2","3","no","left","d","1188.15523443","695.248636289","32","red","0"
"100","93","23","656.221290549","1","1","8","502","1","left","in","Female","Right-handed","2","3","no","left","s","599.677738836","438.671596373","32","green","2"
"100","94","23","661.695387547","1","1","8","503","3","right","in","Female","Right-handed","2","3","no","right","s","933.37616037","751.305016598","32","green","0"
"100","94","23","662.175003537","1","1","8","504","0","left","out","Female","Right-handed","2","3","no","left","s","662.01834015","694.945554282","32","red","3"
"100","94","23","667.797500202","1","1","8","505","2","right","in","Female","Right-handed","2","3","no","right","s","922.523258738","806.646508238","32","green","1"
"100","94","23","669.562763399","1","1","8","506","2","left","out","Female","Right-handed","2","3","no","left","s","971.127349607","495.097127361","32","green","0"
"100","94","23","671.288805131","1","1","8","507","1","left","out","Female","Right-handed","2","3","no","left","d","847.527941278","622.77675717","32","green","2"
"100","94","23","669.097169728","1","1","8","508","2","left","in","Female","Right-handed","2","3","no","left","s","629.258542744","542.371506057","32","green","2"
"100","95","23","667.481032519","1","1","8","509","1","left","out","Female","Right-handed","2","3","no","left","d","689.980140912","518.923221789","32","red","0"
"100","95","23","666.289727406","1","1","8","510","0","right","out","Female","Right-handed","2","3","no","right","d","630.676774105","606.598271697","32","red","1"
"100","95","23","667.72901912","1","1","8","511","0","right","in","Female","Right-handed","2","3","no","right","d","646.216702673","807.263256069","32","red","3"
"100","95","23","666.716357398","1","1","8","512","3","right","out","Female","Right-handed","2","3","no","right","d","601.796426392","646.572703762","32","red","2"
"100","95","23","665.654245446","1","1","8","513","2","right","in","Female","Right-handed","2","3","no","right","d","681.45118872","558.515674311","32","red","3"
"100","95","23","665.361682138","1","1","8","514","3","right","out","Female","Right-handed","2","3","no","right","s","617.911408968","687.06638426","32","red","1"
"100","95","23","667.584887086","1","1","8","515","0","left","out","Female","Right-handed","2","3","no","left","s","1112.65478029","422.603439165","32","green","2"
"100","95","23","667.088697756","1","1","8","516","3","right","out","Female","Right-handed","2","3","no","right","d","562.33226255","726.195714644","32","green","3"
"100","95","23","665.614559172","1","1","8","517","0","right","in","Female","Right-handed","2","3","no","right","s","673.774394094","518.885697355","32","red","2"
"100","95","23","667.458883085","1","1","8","518","0","right","in","Female","Right-handed","2","3","no","right","d","545.491486762","966.481375049","32","green","0"
"100","96","23","667.031441631","1","1","8","519","3","left","out","Female","Right-handed","2","3","no","left","s","837.059905683","455.113715085","32","green","0"
"100","96","23","665.484150034","1","1","8","520","2","right","in","Female","Right-handed","2","3","no","right","s","633.59662447","542.642515895","32","green","2"
"100","96","23","668.326340819","1","1","8","521","0","right","in","Female","Right-handed","2","3","no","right","d","708.293670752","918.262470942","32","red","1"
"100","94","23","682.505869933","1","0","8","522","1","right","out","Female","Right-handed","2","3","no","right","d","720.83581358","2118.84695417","32","red","0"
"100","94","23","681.752551306","1","1","8","523","1","right","out","Female","Right-handed","2","3","no","right","s","773.343408273","510.309919795","32","red","0"
"100","94","23","690.718150702","1","1","8","524","0","left","in","Female","Right-handed","2","3","no","left","s","1374.85086441","974.870171856","32","green","1"
"100","94","23","690.820947214","1","1","8","525","2","right","out","Female","Right-handed","2","3","no","right","s","882.560051931","510.389458774","32","green","1"
"100","94","23","692.694332706","1","1","8","526","3","left","out","Female","Right-handed","2","3","no","left","s","1116.10382146","479.104019029","32","green","3"
"100","94","23","691.912458746","1","1","8","527","3","left","in","Female","Right-handed","2","3","no","left","d","703.770211883","590.92107424","32","red","1"
"100","94","23","693.334370769","1","1","8","528","1","right","in","Female","Right-handed","2","3","no","right","d","785.292857399","766.317678692","32","green","3"
"100","95","23","692.302754016","1","1","8","529","2","right","in","Female","Right-handed","2","3","no","right","s","720.03433005","542.840401183","32","green","1"
"100","95","23","693.461275284","1","1","8","530","0","left","out","Female","Right-handed","2","3","no","left","s","1031.51892514","494.426177564","32","green","1"
"100","95","23","694.777700444","1","1","8","531","0","right","in","Female","Right-handed","2","3","no","right","s","608.110153793","942.049116602","32","red","0"
"100","95","23","692.934374679","1","1","8","532","2","right","out","Female","Right-handed","2","3","no","right","s","526.668971586","630.627382965","32","red","2"
"100","95","23","691.682386373","1","1","8","533","2","right","out","Female","Right-handed","2","3","no","right","d","595.353127425","630.261118778","32","green","0"
dis_reply=Yes
dis_loc=3
tar_loc=1
