"acc_1","acc_2","age","avg_rt","correct_1","correct_2","count_block_loop","count_trial_sequence","cue_position","detection","dis_shape","gender","hand","high_loc","low_loc","practice","response_keyboard_response_1","response_keyboard_response_2","response_time_keyboard_response_1","response_time_keyboard_response_2","subject_nr","tar_color","tar_position"
"100","100","19","918.671020248","1","1","0","0","2","left","out","Female","Right-handed","0","1","yes","left","s","1253.31184979","584.030190703","12","green","2"
"100","100","19","956.546263268","1","1","0","1","2","right","out","Female","Right-handed","0","1","yes","right","d","1450.9542194","537.888793173","12","red","1"
"100","100","19","1005.38521027","1","1","0","2","0","right","in","Female","Right-handed","0","1","yes","right","s","1716.6090558","489.51715273","12","red","2"
"100","75","19","1033.95147153","1","0","0","3","1","left","out","Female","Right-handed","0","1","yes","left","s","1342.07192582","897.228584825","12","red","2"
"100","80","19","996.979871368","1","1","0","4","1","right","out","Female","Right-handed","0","1","yes","right","d","912.526947966","785.659993469","12","red","0"
"100","83","19","1029.26159524","1","1","0","5","1","left","in","Female","Right-handed","0","1","yes","left","d","1068.14203511","1313.19839412","12","red","1"
"100","85","19","1018.33781248","1","1","0","6","0","left","out","Female","Right-handed","0","1","yes","left","d","1167.9147774","737.675454437","12","red","3"
"100","75","19","1023.27966377","1","0","0","7","0","right","out","Female","Right-handed","0","1","yes","right","d","898.299127082","1217.4461185","12","green","0"
"100","77","19","1005.95276657","1","1","0","8","0","left","out","Female","Right-handed","0","1","yes","left","s","1028.89213308","705.783044894","12","green","2"
"100","70","19","988.158641662","1","0","0","9","3","left","in","Female","Right-handed","0","1","yes","left","d","862.454883605","793.568151335","12","green","2"
"100","72","19","964.971258515","1","1","0","10","2","right","in","Female","Right-handed","0","1","yes","right","d","737.048459196","729.14639489","12","red","0"
"100","75","19","977.532443396","1","1","0","11","1","left","in","Female","Right-handed","0","1","yes","left","s","1029.74202433","1201.66892984","12","red","0"
"100","76","19","970.933312327","1","1","0","12","3","right","in","Female","Right-handed","0","1","yes","right","s","1086.17191664","697.315562375","12","green","2"
"100","78","19","955.665068077","1","1","0","13","1","right","in","Female","Right-handed","0","1","yes","right","d","808.583003585","705.772782057","12","red","3"
"100","73","19","944.444148675","1","0","0","14","3","left","out","Female","Right-handed","0","1","yes","left","d","805.302744091","769.399810009","12","green","3"
"100","75","19","932.192950328","1","1","0","15","3","right","out","Female","Right-handed","0","1","yes","right","d","646.955817841","849.894132416","12","red","3"
"100","76","19","916.098019306","1","1","0","16","2","right","in","Female","Right-handed","0","1","yes","right","d","763.558972511","553.599273389","12","green","0"
"100","77","19","924.044836271","1","1","0","17","2","left","in","Female","Right-handed","0","1","yes","left","s","1029.10508697","1089.17636237","12","red","1"
"100","78","19","922.086857231","1","1","0","18","1","right","out","Female","Right-handed","0","1","yes","right","s","763.908229705","1009.77823932","12","green","1"
"100","80","19","923.397738519","1","1","0","19","3","left","out","Female","Right-handed","0","1","yes","left","d","1047.25363256","849.355333437","12","red","1"
"100","80","19","939.441132897","1","1","0","20","1","left","in","Female","Right-handed","0","1","yes","left","s","1455.78480882","1064.8332321","12","green","3"
"100","81","19","942.688691746","1","1","0","21","2","left","in","Female","Right-handed","0","1","yes","left","s","1084.37752362","937.397331534","12","green","3"
"100","100","19","563.565130214","1","1","1","22","0","right","in","Female","Right-handed","0","1","no","right","s","621.59570449","505.534555938","12","red","0"
"100","100","19","661.130961506","1","1","1","23","2","left","out","Female","Right-handed","0","1","no","left","d","780.174506726","737.219078872","12","green","3"
"100","100","19","662.860329835","1","1","1","24","3","left","in","Female","Right-handed","0","1","no","left","d","738.81559156","593.822541425","12","green","2"
"100","100","19","694.507714126","1","1","1","25","0","left","in","Female","Right-handed","0","1","no","left","s","793.364498149","785.535235849","12","red","1"
"100","100","19","707.415573728","1","1","1","26","1","left","out","Female","Right-handed","0","1","no","left","d","1012.95394616","505.140078112","12","green","2"
"100","100","19","696.615684951","1","1","1","27","2","right","in","Female","Right-handed","0","1","no","right","d","715.599449142","569.633032996","12","red","0"
"100","85","19","704.841658617","1","0","1","28","1","right","out","Female","Right-handed","0","1","no","right","d","715.222931285","793.172069943","12","green","0"
"100","87","19","724.269221814","1","1","1","29","0","left","in","Female","Right-handed","0","1","no","left","d","1070.75809658","649.7662318","12","red","1"
"100","88","19","719.838553447","1","1","1","30","0","left","out","Female","Right-handed","0","1","no","left","s","831.349184713","537.437228317","12","red","2"
"100","80","19","711.207980896","1","0","1","31","3","right","in","Female","Right-handed","0","1","no","right","d","569.976517343","697.089138517","12","red","0"
"100","81","19","728.467531501","1","1","1","32","3","left","out","Female","Right-handed","0","1","no","left","s","912.469860932","889.656214182","12","green","0"
"100","83","19","725.649613572","1","1","1","33","1","right","out","Female","Right-handed","0","1","no","right","s","644.198321641","745.106711061","12","green","0"
"100","84","19","770.882358325","1","1","1","34","1","right","in","Female","Right-handed","0","1","no","right","s","1913.55547673","713.795113992","12","red","1"
"100","85","19","773.870810666","1","1","1","35","0","left","in","Female","Right-handed","0","1","no","left","s","968.243893773","657.197488426","12","red","2"
"100","86","19","766.86816038","1","1","1","36","2","right","out","Female","Right-handed","0","1","no","right","d","800.799282628","536.862830119","12","green","1"
"100","87","19","775.003950792","1","1","1","37","1","right","in","Female","Right-handed","0","1","no","right","s","1200.59133188","593.490282054","12","green","2"
"100","88","19","769.125807335","1","1","1","38","2","right","out","Female","Right-handed","0","1","no","right","s","780.921769596","569.229254475","12","green","3"
"100","88","19","768.323031654","1","1","1","39","3","right","out","Female","Right-handed","0","1","no","right","d","875.684964238","633.666725893","12","green","3"
"100","89","19","770.341239691","1","1","1","40","2","left","in","Female","Right-handed","0","1","no","left","s","868.120290719","745.217677995","12","green","3"
"100","90","19","762.992544048","1","1","1","41","2","right","out","Female","Right-handed","0","1","no","right","d","629.850233126","616.884420564","12","green","0"
"100","90","19","759.088155118","1","1","1","42","1","left","in","Female","Right-handed","0","1","no","left","d","712.440098703","649.560654332","12","green","0"
"100","90","19","763.204080959","1","1","1","43","3","left","out","Female","Right-handed","0","1","no","left","s","674.074083578","1025.20296365","12","red","3"
"100","91","19","780.982321732","1","1","1","44","3","left","in","Female","Right-handed","0","1","no","left","s","758.656543234","1585.55069425","12","red","1"
"100","91","19","786.454100581","1","1","1","45","0","right","in","Female","Right-handed","0","1","no","right","d","1327.35726157","497.252766636","12","green","2"
"100","92","19","783.029846256","1","1","1","46","3","right","in","Female","Right-handed","0","1","no","right","s","584.621266011","817.074218918","12","red","0"
"100","92","19","777.641867819","1","1","1","47","0","right","in","Female","Right-handed","0","1","no","right","d","676.432611963","609.452201796","12","green","3"
"100","92","19","776.265060447","1","1","1","48","3","right","in","Female","Right-handed","0","1","no","right","s","759.894177314","721.041960252","12","green","0"
"100","92","19","771.7625134","1","1","1","49","2","left","in","Female","Right-handed","0","1","no","left","d","762.685989879","537.701496385","12","green","2"
"100","93","19","765.468739518","1","1","1","50","2","right","in","Female","Right-handed","0","1","no","right","s","633.133058333","545.353083309","12","green","0"
"100","93","19","762.662492257","1","1","1","51","0","left","out","Female","Right-handed","0","1","no","left","s","641.742937723","720.819705675","12","red","0"
"100","93","19","760.691233569","1","1","1","52","1","right","in","Female","Right-handed","0","1","no","right","d","633.442226317","769.664719506","12","red","3"
"100","93","19","771.026474794","1","1","1","53","0","left","out","Female","Right-handed","0","1","no","left","s","701.955006438","1480.8828991","12","red","0"
"100","93","19","773.562707561","1","1","1","54","0","right","out","Female","Right-handed","0","1","no","right","d","892.689844857","816.754467382","12","red","2"
"100","94","19","772.038052602","1","1","1","55","3","right","out","Female","Right-handed","0","1","no","right","s","914.226409744","529.222468174","12","red","2"
"100","94","19","768.930528011","1","1","1","56","3","left","in","Female","Right-handed","0","1","no","left","d","645.688357387","680.861026423","12","green","2"
"100","94","19","769.068486054","1","1","1","57","1","left","out","Female","Right-handed","0","1","no","left","s","682.46074625","865.333288861","12","red","0"
"100","94","19","765.541208405","1","1","1","58","0","right","out","Female","Right-handed","0","1","no","right","s","668.027989323","609.090436767","12","red","3"
"100","94","19","764.620053713","1","1","1","59","3","left","in","Female","Right-handed","0","1","no","left","d","812.522008975","648.552651242","12","green","3"
"100","94","19","760.674198208","1","1","1","60","2","right","out","Female","Right-handed","0","1","no","right","d","540.188951669","681.274426355","12","red","0"
"100","95","19","763.116904786","1","1","1","61","1","left","in","Female","Right-handed","0","1","no","left","s","715.855057944","1000.9098647","12","red","2"
"100","95","19","761.990240667","1","1","1","62","0","right","out","Female","Right-handed","0","1","no","right","d","769.338232983","664.509118853","12","red","0"
"100","92","19","764.538993331","1","0","1","63","2","right","in","Female","Right-handed","0","1","no","right","s","993.019025376","745.056679729","12","green","2"
"100","93","19","762.122801744","1","1","1","64","2","left","out","Female","Right-handed","0","1","no","left","s","720.532987647","600.752522572","12","green","2"
"100","93","19","762.17973605","1","1","1","65","3","left","out","Female","Right-handed","0","1","no","left","s","984.05636094","545.199461456","12","green","1"
"100","93","19","760.654404143","1","1","1","66","3","left","in","Female","Right-handed","0","1","no","left","d","818.17394612","568.905654374","12","red","0"
"100","93","19","758.54899957","1","1","1","67","1","left","in","Female","Right-handed","0","1","no","left","d","662.313192301","665.298395214","12","red","1"
"100","93","19","756.016503298","1","1","1","68","1","right","in","Female","Right-handed","0","1","no","right","s","725.954010943","553.089338644","12","green","0"
"100","93","19","756.602716226","1","1","1","69","3","right","in","Female","Right-handed","0","1","no","right","d","863.638958503","704.670489145","12","red","2"
"100","93","19","754.012681176","1","1","1","70","2","right","in","Female","Right-handed","0","1","no","right","d","538.177114771","721.204882802","12","red","0"
"100","94","19","751.241540375","1","1","1","71","2","left","in","Female","Right-handed","0","1","no","left","s","685.863839084","545.047443175","12","green","0"
"100","94","19","748.274532115","1","1","1","72","0","right","out","Female","Right-handed","0","1","no","right","d","567.439992867","632.408245421","12","red","0"
"100","92","19","747.367289174","1","0","1","73","0","right","out","Female","Right-handed","0","1","no","right","d","649.181570765","753.014227501","12","green","3"
"100","92","19","746.109876215","1","1","1","74","1","right","out","Female","Right-handed","0","1","no","right","s","800.716538499","560.732266298","12","green","3"
"100","92","19","745.299249143","1","1","1","75","2","left","out","Female","Right-handed","0","1","no","left","d","772.240050339","632.431978233","12","red","1"
"100","90","19","746.520320739","1","0","1","76","1","left","out","Female","Right-handed","0","1","no","left","d","759.865313084","865.051060824","12","green","3"
"100","91","19","745.528025748","1","1","1","77","1","left","in","Female","Right-handed","0","1","no","left","s","781.442287895","600.461314554","12","green","2"
"100","91","19","750.494245097","1","1","1","78","3","left","out","Female","Right-handed","0","1","no","left","d","800.06356545","1257.14149182","12","green","3"
"100","91","19","748.972917212","1","1","1","79","3","right","out","Female","Right-handed","0","1","no","right","d","723.684640958","600.82981457","12","red","0"
"100","91","19","747.579715206","1","1","1","80","0","right","out","Female","Right-handed","0","1","no","right","d","629.316565568","704.231432121","12","red","0"
"100","91","19","748.545087746","1","1","1","81","0","left","out","Female","Right-handed","0","1","no","left","s","705.952702428","905.051432852","12","red","3"
"100","91","19","749.371474798","1","1","1","82","1","left","out","Female","Right-handed","0","1","no","left","d","829.411753386","768.497642435","12","red","0"
"100","91","19","747.117053023","1","1","1","83","1","left","out","Female","Right-handed","0","1","no","left","d","586.130544578","633.064104892","12","green","3"
"100","92","19","746.967051475","1","1","1","84","2","left","in","Female","Right-handed","0","1","no","left","d","842.583143418","632.750767627","12","red","3"
"100","92","19","747.636177333","1","1","1","85","2","right","in","Female","Right-handed","0","1","no","right","d","931.24925033","648.332962375","12","green","2"
"100","100","19","422.432991688","1","1","2","86","1","right","out","Female","Right-handed","0","1","no","right","s","531.470350341","313.395633035","12","green","0"
"100","100","19","506.522113529","1","1","2","87","3","left","in","Female","Right-handed","0","1","no","left","d","612.068583978","569.153886761","12","red","3"
"100","100","19","517.935698618","1","1","2","88","2","left","in","Female","Right-handed","0","1","no","left","s","688.748337901","392.777399693","12","green","0"
"100","100","19","503.037038261","1","1","2","89","3","left","out","Female","Right-handed","0","1","no","left","s","547.28377965","369.398334726","12","green","3"
"100","100","19","511.323886819","1","1","2","90","3","left","out","Female","Right-handed","0","1","no","left","d","519.902849413","569.039712691","12","red","1"
"100","100","19","514.03026126","1","1","2","91","1","left","out","Female","Right-handed","0","1","no","left","d","517.515456795","537.608810133","12","red","1"
"100","100","19","516.555377493","1","1","2","92","0","right","out","Female","Right-handed","0","1","no","right","s","582.162674958","481.249474831","12","red","0"
"100","100","19","520.463236431","1","1","2","93","2","left","in","Female","Right-handed","0","1","no","left","s","606.825877489","488.810620498","12","green","2"
"100","100","19","556.239798187","1","1","2","94","3","right","out","Female","Right-handed","0","1","no","right","s","835.448867656","849.455716818","12","green","2"
"100","100","19","573.323645642","1","1","2","95","0","right","in","Female","Right-handed","0","1","no","right","s","669.052669524","785.103875953","12","green","0"
"100","100","19","579.304270571","1","1","2","96","0","left","in","Female","Right-handed","0","1","no","left","d","732.643136118","545.577903598","12","green","3"
"100","100","19","595.548956515","1","1","2","97","2","right","in","Female","Right-handed","0","1","no","right","d","971.177782496","577.303221313","12","green","1"
"100","100","19","588.540288472","1","1","2","98","2","right","out","Female","Right-handed","0","1","no","right","d","487.965539958","520.907003938","12","red","0"
"100","100","19","584.365382312","1","1","2","99","1","right","out","Female","Right-handed","0","1","no","right","s","675.53942437","384.643780111","12","red","2"
"100","100","19","582.522291204","1","1","2","100","0","left","out","Female","Right-handed","0","1","no","left","s","656.156772544","457.281258839","12","green","1"
"100","100","19","579.158630117","1","1","2","101","1","right","out","Female","Right-handed","0","1","no","right","s","648.698255254","408.709172347","12","green","2"
"100","100","19","581.144276972","1","1","2","102","0","right","in","Female","Right-handed","0","1","no","right","d","536.285866214","689.543387109","12","green","2"
"100","100","19","588.418818852","1","1","2","103","2","right","out","Female","Right-handed","0","1","no","right","s","583.049768989","841.122292615","12","green","0"
"100","100","19","599.744097493","1","1","2","104","2","left","in","Female","Right-handed","0","1","no","left","s","854.541273604","752.656952463","12","green","3"
"100","100","19","596.46481322","1","1","2","105","2","left","out","Female","Right-handed","0","1","no","left","s","699.137857491","369.17896657","12","green","2"
"100","100","19","606.859957135","1","1","2","106","3","left","in","Female","Right-handed","0","1","no","left","d","612.726047018","1016.79962387","12","red","0"
"100","100","19","607.111640665","1","1","2","107","0","left","out","Female","Right-handed","0","1","no","left","d","568.364931114","656.429058454","12","green","0"
"100","100","19","604.458787442","1","1","2","108","1","right","out","Female","Right-handed","0","1","no","right","d","515.221071146","576.970961944","12","red","0"
"100","100","19","605.844794304","1","1","2","109","1","right","in","Female","Right-handed","0","1","no","right","d","738.680250388","536.765653873","12","green","3"
"100","100","19","600.20070262","1","1","2","110","0","right","in","Female","Right-handed","0","1","no","right","s","552.182360363","377.302644029","12","red","3"
"100","100","19","605.766473865","1","1","2","111","2","left","out","Female","Right-handed","0","1","no","left","s","744.977142736","744.844367273","12","red","2"
"100","100","19","604.967424874","1","1","2","112","2","right","in","Female","Right-handed","0","1","no","right","s","711.717530787","456.666771433","12","green","3"
"100","100","19","608.65134538","1","1","2","113","1","right","in","Female","Right-handed","0","1","no","right","d","743.117003405","673.117394677","12","red","2"
"100","96","19","610.173105318","1","0","2","114","0","left","out","Female","Right-handed","0","1","no","left","s","584.789640692","720.775126474","12","red","0"
"100","96","19","611.348298475","1","1","2","115","1","right","in","Female","Right-handed","0","1","no","right","d","642.49757701","648.360223036","12","red","3"
"100","96","19","614.609996753","1","1","2","116","1","left","out","Female","Right-handed","0","1","no","left","d","727.850070203","697.071819979","12","green","3"
"100","96","19","614.997426473","1","1","2","117","0","left","out","Female","Right-handed","0","1","no","left","d","613.519171942","640.49632366","12","red","2"
"100","96","19","620.032001783","1","1","2","118","2","right","in","Female","Right-handed","0","1","no","right","d","697.181824769","865.094998599","12","green","3"
"100","97","19","626.995334295","1","1","2","119","2","right","in","Female","Right-handed","0","1","no","right","s","528.727286255","1184.84332816","12","red","0"
"100","97","19","640.846685026","1","1","2","120","2","left","out","Female","Right-handed","0","1","no","left","d","615.350126331","1608.23509339","12","red","0"
"100","97","19","639.084969668","1","1","2","121","0","left","out","Female","Right-handed","0","1","no","left","d","585.937474943","568.912389363","12","green","3"
"100","97","19","641.720188723","1","1","2","122","3","right","in","Female","Right-handed","0","1","no","right","d","840.620375709","632.555773713","12","red","2"
"100","97","19","643.26856847","1","1","2","123","3","right","in","Female","Right-handed","0","1","no","right","d","831.98804636","569.129191808","12","green","2"
"100","97","19","644.290991447","1","1","2","124","2","left","out","Female","Right-handed","0","1","no","left","s","597.567835754","768.718293444","12","red","3"
"100","95","19","651.918276703","1","0","2","125","1","left","in","Female","Right-handed","0","1","no","left","d","1130.41404777","768.35075557","12","green","0"
"100","95","19","654.002214145","1","1","2","126","3","right","out","Female","Right-handed","0","1","no","right","s","657.795619436","816.923804203","12","green","1"
"100","95","19","654.821893492","1","1","2","127","3","right","in","Female","Right-handed","0","1","no","right","d","512.275636729","864.581856715","12","red","0"
"100","95","19","654.619192858","1","1","2","128","3","right","out","Female","Right-handed","0","1","no","right","s","683.070743664","609.140788816","12","red","0"
"100","95","19","656.531238562","1","1","2","129","1","right","out","Female","Right-handed","0","1","no","right","d","884.718185684","592.780221972","12","red","2"
"100","95","19","656.660407048","1","1","2","130","1","left","in","Female","Right-handed","0","1","no","left","d","748.241366548","576.446274366","12","green","0"
"100","93","19","660.516111554","1","0","2","131","0","left","out","Female","Right-handed","0","1","no","left","s","818.978296024","849.067332554","12","green","2"
"100","93","19","666.324160381","1","1","2","132","1","left","in","Female","Right-handed","0","1","no","left","s","794.553063041","1072.43574983","12","red","0"
"100","93","19","669.454213071","1","1","2","133","3","right","out","Female","Right-handed","0","1","no","right","d","889.008051838","744.125327208","12","red","2"
"100","93","19","671.508017443","1","1","2","134","0","right","in","Female","Right-handed","0","1","no","right","s","635.546428755","904.634825785","12","red","3"
"100","94","19","674.592369709","1","1","2","135","3","right","out","Female","Right-handed","0","1","no","right","d","619.239421099","1032.21184036","12","red","0"
"100","94","19","674.60899626","1","1","2","136","1","left","in","Female","Right-handed","0","1","no","left","d","765.898578789","584.982068898","12","red","1"
"100","94","19","673.385471221","1","1","2","137","0","right","out","Female","Right-handed","0","1","no","right","s","597.439870997","624.531517495","12","green","0"
"100","94","19","672.399171523","1","1","2","138","2","right","in","Female","Right-handed","0","1","no","right","s","562.07894303","680.144231355","12","red","0"
"100","94","19","673.248260704","1","1","2","139","2","left","in","Female","Right-handed","0","1","no","left","s","683.78016232","752.719812342","12","red","1"
"100","94","19","672.629685386","1","1","2","140","3","right","out","Female","Right-handed","0","1","no","right","s","566.182474537","712.270761882","12","green","3"
"100","94","19","674.901908576","1","1","2","141","0","right","out","Female","Right-handed","0","1","no","right","d","862.884960647","736.863407403","12","green","1"
"100","94","19","677.140806842","1","1","2","142","3","left","in","Female","Right-handed","0","1","no","left","s","788.454051031","816.584168417","12","red","3"
"100","94","19","682.225795833","1","1","2","143","2","left","in","Female","Right-handed","0","1","no","left","d","1120.07295595","824.067380661","12","red","2"
"100","94","19","684.776399565","1","1","2","144","0","left","in","Female","Right-handed","0","1","no","left","s","856.716353766","808.706478352","12","red","2"
"100","95","19","685.691907154","1","1","2","145","3","left","in","Female","Right-handed","0","1","no","left","s","815.214079588","664.199630153","12","green","0"
"100","95","19","685.063837216","1","1","2","146","1","left","out","Female","Right-handed","0","1","no","left","d","685.830805574","608.92847636","12","green","3"
"100","95","19","683.593938888","1","1","2","147","0","left","in","Female","Right-handed","0","1","no","left","s","643.372483921","544.487797808","12","green","0"
"100","95","19","681.340424649","1","1","2","148","1","left","out","Female","Right-handed","0","1","no","left","s","643.157285043","440.087798575","12","red","0"
"100","93","19","680.470692823","1","0","2","149","3","right","in","Female","Right-handed","0","1","no","right","s","530.699996087","720.655179557","12","green","0"
"100","100","19","491.153754627","1","1","3","150","1","right","out","Female","Right-handed","0","1","no","right","s","565.07088093","417.236628324","12","red","0"
"100","100","19","509.02087397","1","1","3","151","0","left","out","Female","Right-handed","0","1","no","left","s","636.826717759","416.949268869","12","green","1"
"100","100","19","533.681778054","1","1","3","152","1","right","in","Female","Right-handed","0","1","no","right","s","557.50941455","608.49775789","12","green","0"
"100","100","19","601.525482626","1","1","3","153","0","right","in","Female","Right-handed","0","1","no","right","d","905.033152172","705.080040514","12","red","3"
"100","100","19","587.961691393","1","1","3","154","3","left","in","Female","Right-handed","0","1","no","left","s","586.564470184","480.848582734","12","red","0"
"100","100","19","605.353400816","1","1","3","155","3","left","in","Female","Right-handed","0","1","no","left","d","631.283181838","753.340714023","12","green","0"
"100","100","19","605.867081041","1","1","3","156","2","right","in","Female","Right-handed","0","1","no","right","d","601.006207093","616.892117691","12","green","3"
"100","100","19","601.44688773","1","1","3","157","2","left","out","Female","Right-handed","0","1","no","left","d","540.465727574","600.545341538","12","red","0"
"100","100","19","604.246466466","1","1","3","158","0","left","out","Female","Right-handed","0","1","no","left","d","652.076011707","601.210180992","12","red","0"
"100","100","19","604.89837225","1","1","3","159","1","left","in","Female","Right-handed","0","1","no","left","d","604.637327351","616.893721259","12","green","0"
"100","100","19","600.173095003","1","1","3","160","2","left","out","Female","Right-handed","0","1","no","left","s","553.391771642","552.448873428","12","green","0"
"100","100","19","615.90774051","1","1","3","161","2","left","in","Female","Right-handed","0","1","no","left","d","760.931365348","817.046316828","12","red","1"
"100","100","19","618.617507937","1","1","3","162","0","right","out","Female","Right-handed","0","1","no","right","d","733.637669233","568.631764894","12","red","2"
"100","92","19","637.629063202","1","0","3","163","3","left","out","Female","Right-handed","0","1","no","left","d","713.342907706","1056.21565558","12","red","1"
"100","86","19","658.467653567","1","0","3","164","3","left","in","Female","Right-handed","0","1","no","left","d","1211.78680494","688.629032415","12","green","3"
"100","87","19","661.178417108","1","1","3","165","2","right","out","Female","Right-handed","0","1","no","right","s","667.377902699","736.301837754","12","red","3"
"100","88","19","662.28323387","1","1","3","166","2","left","in","Female","Right-handed","0","1","no","left","d","726.934753367","632.985850754","12","red","0"
"100","88","19","660.664376557","1","1","3","167","0","right","in","Female","Right-handed","0","1","no","right","s","681.729198352","584.55840613","12","green","0"
"100","89","19","653.162100137","1","1","3","168","3","right","out","Female","Right-handed","0","1","no","right","s","580.015176172","456.22707298","12","green","3"
"100","90","19","651.699181154","1","1","3","169","0","right","in","Female","Right-handed","0","1","no","right","d","542.923997915","704.883443028","12","green","0"
"100","90","19","651.517282664","1","1","3","170","2","right","out","Female","Right-handed","0","1","no","right","d","623.481180201","672.277445554","12","green","2"
"100","90","19","662.790246607","1","1","3","171","1","right","out","Female","Right-handed","0","1","no","right","d","693.937805922","1105.10717289","12","red","1"
"100","91","19","660.304018718","1","1","3","172","1","left","out","Female","Right-handed","0","1","no","left","s","626.571577199","584.642433112","12","green","2"
"100","91","19","664.386940304","1","1","3","173","0","right","in","Female","Right-handed","0","1","no","right","s","764.281540425","752.306733126","12","red","2"
"100","92","19","670.886510334","1","1","3","174","0","left","in","Female","Right-handed","0","1","no","left","s","932.801825245","720.950556855","12","red","1"
"100","92","19","674.155908737","1","1","3","175","0","left","out","Female","Right-handed","0","1","no","left","s","847.299879477","664.48185819","12","green","3"
"100","92","19","678.315611052","1","1","3","176","2","left","in","Female","Right-handed","0","1","no","left","s","963.872566344","609.063176104","12","red","1"
"100","89","19","709.162794354","1","0","3","177","3","right","out","Female","Right-handed","0","1","no","right","s","691.645665265","2392.42782178","12","green","2"
"100","89","19","705.090784421","1","1","3","178","2","left","out","Female","Right-handed","0","1","no","left","s","717.002250769","465.146761788","12","green","2"
"100","90","19","710.17836705","1","1","3","179","1","right","out","Female","Right-handed","0","1","no","right","d","586.649780023","1128.78674657","12","green","2"
"100","90","19","706.181226443","1","1","3","180","1","right","in","Female","Right-handed","0","1","no","right","s","700.215455448","472.318561048","12","green","3"
"100","90","19","704.779451618","1","1","3","181","2","left","out","Female","Right-handed","0","1","no","left","d","681.830543872","640.818320191","12","red","2"
"100","90","19","704.241811582","1","1","3","182","0","left","in","Female","Right-handed","0","1","no","left","s","829.386417005","544.688243856","12","green","2"
"100","91","19","705.6347384","1","1","3","183","0","right","out","Female","Right-handed","0","1","no","right","d","575.047321303","928.155325482","12","green","0"
"100","91","19","708.052827224","1","1","3","184","3","right","out","Female","Right-handed","0","1","no","right","d","667.680335699","912.855358772","12","red","3"
"100","91","19","705.893815835","1","1","3","185","0","left","in","Female","Right-handed","0","1","no","left","s","724.278602689","536.378231751","12","green","0"
"100","91","19","702.801101126","1","1","3","186","3","left","in","Female","Right-handed","0","1","no","left","s","710.912218741","472.014524481","12","red","0"
"100","89","19","700.017444292","1","0","3","187","0","right","in","Female","Right-handed","0","1","no","right","s","601.553344626","592.490938236","12","red","3"
"100","87","19","701.314356195","1","0","3","188","1","right","out","Female","Right-handed","0","1","no","right","s","581.026386397","920.167630626","12","red","3"
"100","87","19","702.171640508","1","1","3","189","3","left","out","Female","Right-handed","0","1","no","left","d","734.563248905","736.648208525","12","green","2"
"100","87","19","700.418983477","1","1","3","190","3","right","in","Female","Right-handed","0","1","no","right","s","660.354914584","600.270489915","12","red","2"
"100","88","19","702.919644455","1","1","3","191","2","left","in","Female","Right-handed","0","1","no","left","s","1138.95304944","471.940439622","12","green","0"
"100","88","19","699.63497488","1","1","3","192","3","left","out","Female","Right-handed","0","1","no","left","s","674.638860363","448.718845071","12","green","2"
"100","88","19","700.727471191","1","1","3","193","1","left","in","Female","Right-handed","0","1","no","left","d","927.138021696","568.271603434","12","green","3"
"100","88","19","707.07392101","1","1","3","194","3","left","in","Female","Right-handed","0","1","no","left","s","619.814140009","1352.82128615","12","red","0"
"100","89","19","706.156875032","1","1","3","195","1","right","out","Female","Right-handed","0","1","no","right","d","585.349286059","744.430325914","12","green","0"
"100","89","19","703.619360303","1","1","3","196","2","right","in","Female","Right-handed","0","1","no","right","d","581.867618374","591.919747174","12","red","0"
"100","89","19","705.681659283","1","1","3","197","2","left","in","Female","Right-handed","0","1","no","left","d","796.583501335","808.635921343","12","red","3"
"100","89","19","706.977058644","1","1","3","198","1","right","in","Female","Right-handed","0","1","no","right","s","1106.09593316","432.216522784","12","red","1"
"100","88","19","704.173431053","1","0","3","199","2","right","in","Female","Right-handed","0","1","no","right","s","533.736833902","599.854524276","12","red","0"
"100","88","19","702.598147409","1","1","3","200","0","left","out","Female","Right-handed","0","1","no","left","s","711.242553831","536.425376662","12","red","0"
"100","88","19","699.096346657","1","1","3","201","3","right","out","Female","Right-handed","0","1","no","right","s","569.023035581","471.985980963","12","green","0"
"100","88","19","697.868687573","1","1","3","202","1","right","out","Female","Right-handed","0","1","no","right","d","619.59797899","648.462851415","12","red","0"
"100","88","19","700.866011266","1","1","3","203","1","right","in","Female","Right-handed","0","1","no","right","s","1063.22324943","656.225084556","12","green","2"
"100","89","19","700.483388402","1","1","3","204","3","left","in","Female","Right-handed","0","1","no","left","d","671.749871553","687.89363595","12","green","1"
"100","89","19","702.570384396","1","1","3","205","3","right","in","Female","Right-handed","0","1","no","right","d","666.385935294","968.324392907","12","green","3"
"100","89","19","710.217887696","1","1","3","206","0","right","in","Female","Right-handed","0","1","no","right","s","884.915103883","1392.04104109","12","red","2"
"100","89","19","707.984536934","1","1","3","207","1","right","out","Female","Right-handed","0","1","no","right","d","641.693547819","519.673539135","12","green","2"
"100","89","19","706.674520202","1","1","3","208","2","right","in","Female","Right-handed","0","1","no","right","s","565.17639573","696.210703756","12","green","2"
"100","88","19","719.350890483","1","0","3","209","1","right","out","Female","Right-handed","0","1","no","right","d","678.761313977","2255.75216017","12","red","3"
"100","88","19","720.496959934","1","1","3","210","2","left","out","Female","Right-handed","0","1","no","left","d","762.213257918","816.308996082","12","green","3"
"100","88","19","719.123112215","1","1","3","211","3","left","out","Female","Right-handed","0","1","no","left","s","638.813859707","631.82294296","12","red","0"
"100","88","19","717.310446431","1","1","3","212","1","left","out","Female","Right-handed","0","1","no","left","d","689.376936709","520.473399045","12","red","0"
"100","89","19","715.323931037","1","1","3","213","0","left","out","Female","Right-handed","0","1","no","left","d","548.131746613","632.215175787","12","red","3"
"100","100","19","579.340394594","1","1","4","214","1","right","in","Female","Right-handed","0","1","no","right","d","550.312920335","608.367868852","12","green","3"
"100","50","19","622.89275078","1","0","4","215","2","left","in","Female","Right-handed","0","1","no","left","d","643.923790732","688.966423202","12","red","2"
"100","33","19","619.442112144","1","0","4","216","0","right","out","Female","Right-handed","0","1","no","right","s","672.525036514","552.556633225","12","red","3"
"100","50","19","800.849033337","1","1","4","217","3","right","in","Female","Right-handed","0","1","no","right","s","1890.11772116","800.021872674","12","green","1"
"100","60","19","780.221844065","1","1","4","218","2","right","in","Female","Right-handed","0","1","no","right","d","746.635873877","648.79030008","12","red","0"
"100","66","19","749.893977404","1","1","4","219","3","right","out","Female","Right-handed","0","1","no","right","s","732.27976752","464.229520669","12","red","2"
"100","71","19","742.904507686","1","1","4","220","3","left","in","Female","Right-handed","0","1","no","left","s","848.945782071","552.98959669","12","red","0"
"100","75","19","728.18457457","1","1","4","221","0","right","out","Female","Right-handed","0","1","no","right","s","641.680719271","608.609366251","12","red","1"
"100","77","19","707.285178674","1","1","4","222","1","right","in","Female","Right-handed","0","1","no","right","d","528.063729656","552.116293346","12","green","0"
"100","80","19","714.335644824","1","1","4","223","3","right","in","Female","Right-handed","0","1","no","right","d","770.72371607","784.855964279","12","green","2"
"100","81","19","711.8372153","1","1","4","224","2","left","out","Female","Right-handed","0","1","no","left","s","693.277135744","680.428704387","12","green","2"
"100","83","19","698.684488619","1","1","4","225","3","left","out","Female","Right-handed","0","1","no","left","s","571.970714993","536.038275253","12","green","3"
"100","84","19","696.518329848","1","1","4","226","0","right","in","Female","Right-handed","0","1","no","right","d","636.527171184","704.521677999","12","green","3"
"100","85","19","688.317722519","1","1","4","227","2","left","in","Female","Right-handed","0","1","no","left","d","555.129398348","608.290256141","12","red","0"
"100","86","19","684.418874299","1","1","4","228","1","right","in","Female","Right-handed","0","1","no","right","d","714.887464777","544.782533676","12","green","3"
"100","87","19","677.229324872","1","1","4","229","1","right","in","Female","Right-handed","0","1","no","right","d","546.404382745","592.367784182","12","red","0"
"100","88","19","677.656879831","1","1","4","230","2","right","in","Female","Right-handed","0","1","no","right","d","736.886819501","632.108698846","12","red","1"
"100","88","19","675.049489684","1","1","4","231","1","right","out","Female","Right-handed","0","1","no","right","d","596.709605952","664.738108418","12","green","3"
"100","84","19","698.326848559","1","0","4","232","0","left","out","Female","Right-handed","0","1","no","left","d","634.405650206","1600.23296642","12","red","2"
"100","85","19","692.626592103","1","1","4","233","0","right","in","Female","Right-handed","0","1","no","right","s","679.926787481","488.716651391","12","red","0"
"100","85","19","685.450798047","1","1","4","234","0","left","in","Female","Right-handed","0","1","no","left","d","547.372938052","536.496895813","12","green","0"
"100","86","19","691.454949962","1","1","4","235","0","right","out","Female","Right-handed","0","1","no","right","s","594.97229996","1040.11198039","12","green","0"
"100","86","19","691.117770553","1","1","4","236","3","right","in","Female","Right-handed","0","1","no","right","d","726.754512281","640.645134805","12","red","2"
"100","87","19","691.434121188","1","1","4","237","3","right","out","Female","Right-handed","0","1","no","right","d","653.22993952","744.190432086","12","red","3"
"100","88","19","692.753192224","1","1","4","238","1","left","out","Female","Right-handed","0","1","no","left","s","648.89517345","799.92662071","12","red","2"
"100","88","19","692.317899637","1","1","4","239","2","right","in","Female","Right-handed","0","1","no","right","s","666.401970979","696.46919898","12","green","3"
"100","88","19","697.361127473","1","1","4","240","0","left","out","Female","Right-handed","0","1","no","left","s","728.966474517","928.003627912","12","green","3"
"100","89","19","694.800245089","1","1","4","241","1","right","in","Female","Right-handed","0","1","no","right","s","666.56874209","584.744099349","12","green","0"
"100","89","19","692.03977814","1","1","4","242","1","left","in","Female","Right-handed","0","1","no","left","s","709.252204746","520.241202343","12","green","0"
"100","90","19","689.153436693","1","1","4","243","1","right","out","Female","Right-handed","0","1","no","right","s","658.928380146","551.970689336","12","green","2"
"100","90","19","684.405414326","1","1","4","244","3","right","out","Female","Right-handed","0","1","no","right","s","539.386526049","544.542960559","12","green","0"
"100","90","19","687.879730006","1","1","4","245","3","right","out","Female","Right-handed","0","1","no","right","d","599.085773591","992.081258582","12","green","0"
"100","90","19","683.133010711","1","1","4","246","2","left","out","Female","Right-handed","0","1","no","left","s","582.706926068","479.769060494","12","red","0"
"100","91","19","680.095610218","1","1","4","247","2","right","in","Female","Right-handed","0","1","no","right","s","623.429866011","536.292921912","12","red","0"
"100","91","19","688.061570795","1","1","4","248","2","left","in","Female","Right-handed","0","1","no","left","d","637.853642955","1279.95481786","12","red","0"
"100","91","19","696.671377772","1","1","4","249","0","left","in","Female","Right-handed","0","1","no","left","s","827.512486987","1168.51675697","12","red","2"
"100","91","19","696.464604972","1","1","4","250","3","left","out","Female","Right-handed","0","1","no","left","d","770.109870093","607.931698249","12","red","0"
"100","92","19","696.72025027","1","1","4","251","0","left","in","Female","Right-handed","0","1","no","left","d","524.591683381","887.766569191","12","green","0"
"100","92","19","696.758104439","1","1","4","252","1","right","out","Female","Right-handed","0","1","no","right","d","596.219555453","800.173570242","12","red","2"
"100","92","19","696.187756691","1","1","4","253","2","left","out","Female","Right-handed","0","1","no","left","s","707.933750818","639.954638258","12","green","1"
"100","92","19","695.292641297","1","1","4","254","1","right","out","Female","Right-handed","0","1","no","right","s","703.43766577","615.538385259","12","green","2"
"100","92","19","695.706778571","1","1","4","255","0","left","out","Female","Right-handed","0","1","no","left","d","729.023882264","696.348931349","12","green","2"
"100","93","19","690.568537192","1","1","4","256","1","right","out","Female","Right-handed","0","1","no","right","s","549.692980796","399.831817747","12","red","0"
"100","93","19","687.757194147","1","1","4","257","0","left","out","Female","Right-handed","0","1","no","left","d","645.285220297","488.453666174","12","red","3"
"100","93","19","689.297068314","1","1","4","258","0","right","out","Female","Right-handed","0","1","no","right","d","658.112484551","855.990578715","12","green","2"
"100","93","19","687.597815929","1","1","4","259","2","left","out","Female","Right-handed","0","1","no","left","s","726.510449172","495.752468052","12","green","3"
"100","93","19","690.280045955","1","1","4","260","1","right","out","Female","Right-handed","0","1","no","right","s","875.196517307","752.128737034","12","red","1"
"100","93","19","688.707296573","1","1","4","261","0","left","out","Female","Right-handed","0","1","no","left","s","613.701337311","615.874813906","12","red","0"
"100","93","19","688.701199536","1","1","4","262","3","left","in","Female","Right-handed","0","1","no","left","s","865.489797138","511.327286384","12","red","2"
"100","94","19","689.166853215","1","1","4","263","3","left","in","Female","Right-handed","0","1","no","left","d","767.80137304","656.166393954","12","red","1"
"100","94","19","687.145860568","1","1","4","264","1","left","out","Female","Right-handed","0","1","no","left","s","564.683458808","607.508997622","12","red","3"
"100","94","19","686.63804807","1","1","4","265","3","right","in","Female","Right-handed","0","1","no","right","d","705.130071847","616.349149435","12","red","3"
"100","94","19","687.44326923","1","1","4","266","3","left","in","Female","Right-handed","0","1","no","left","d","866.803119647","591.826419495","12","green","0"
"100","94","19","688.027091445","1","1","4","267","2","left","in","Female","Right-handed","0","1","no","left","d","790.421629445","647.517708207","12","green","3"
"100","94","19","687.319643019","1","1","4","268","0","left","out","Female","Right-handed","0","1","no","left","d","602.053016535","696.181839523","12","green","0"
"100","94","19","688.423612439","1","1","4","269","2","left","out","Female","Right-handed","0","1","no","left","d","786.568896033","711.714965077","12","red","2"
"100","94","19","688.230661013","1","1","4","270","2","left","in","Female","Right-handed","0","1","no","left","s","642.388855071","712.461907233","12","green","0"
"100","94","19","689.603977111","1","1","4","271","2","left","in","Female","Right-handed","0","1","no","left","d","887.806016972","647.959972366","12","green","2"
"100","94","19","688.502114052","1","1","4","272","3","right","out","Female","Right-handed","0","1","no","right","d","601.688365086","647.499748238","12","green","0"
"100","95","19","689.687887329","1","1","4","273","3","right","in","Female","Right-handed","0","1","no","right","s","735.088898626","784.208122652","12","red","3"
"100","95","19","693.12152652","1","1","4","274","0","left","in","Female","Right-handed","0","1","no","left","s","798.563908292","999.715847682","12","green","1"
"100","95","19","691.447862519","1","1","4","275","1","right","out","Female","Right-handed","0","1","no","right","d","523.288623708","655.420093224","12","red","0"
"100","95","19","697.645688744","1","1","4","276","2","left","in","Female","Right-handed","0","1","no","left","d","675.925563639","1487.8962658","12","red","3"
"100","95","19","698.830746584","1","1","4","277","1","left","out","Female","Right-handed","0","1","no","left","s","907.498478215","639.480302727","12","green","1"
"100","100","19","628.695663888","1","1","5","278","3","left","out","Female","Right-handed","0","1","no","left","s","801.18221476","456.209113016","12","green","2"
"100","100","19","550.50903675","1","1","5","279","2","left","out","Female","Right-handed","0","1","no","left","s","520.72580071","423.919018513","12","red","0"
"100","100","19","577.853619436","1","1","5","280","0","left","in","Female","Right-handed","0","1","no","left","d","696.530776005","568.55479361","12","red","2"
"100","100","19","562.064310469","1","1","5","281","0","left","in","Female","Right-handed","0","1","no","left","d","517.266582982","512.126184154","12","red","0"
"100","100","19","579.590006049","1","1","5","282","0","right","in","Female","Right-handed","0","1","no","right","d","771.756414113","527.629162623","12","green","2"
"100","100","19","581.305006405","1","1","5","283","0","right","in","Female","Right-handed","0","1","no","right","s","643.347147541","536.412868829","12","green","2"
"100","100","19","603.690191137","1","1","5","284","1","left","out","Female","Right-handed","0","1","no","left","s","940.036484388","535.966114676","12","green","3"
"100","100","19","602.934457991","1","1","5","285","3","left","in","Female","Right-handed","0","1","no","left","s","722.579782337","472.708869593","12","red","0"
"100","100","19","613.301478625","1","1","5","286","2","right","in","Female","Right-handed","0","1","no","right","d","784.140131352","608.335156057","12","red","2"
"100","100","19","607.707230746","1","1","5","287","1","left","out","Female","Right-handed","0","1","no","left","s","538.841633512","575.87636616","12","red","0"
"100","100","19","603.467669991","1","1","5","288","3","right","in","Female","Right-handed","0","1","no","right","d","593.601248987","528.542875892","12","red","0"
"100","100","19","596.35666055","1","1","5","289","3","right","out","Female","Right-handed","0","1","no","right","s","572.045761992","464.22535139","12","green","3"
"100","100","19","593.536242792","1","1","5","290","1","right","out","Female","Right-handed","0","1","no","right","s","639.697746601","479.684712796","12","green","3"
"100","100","19","597.453398241","1","1","5","291","2","left","out","Female","Right-handed","0","1","no","left","d","688.320505855","608.432332299","12","green","1"
"100","100","19","600.061854978","1","1","5","292","2","left","out","Female","Right-handed","0","1","no","left","s","713.067735371","560.092763224","12","green","3"
"100","100","19","600.314357533","1","1","5","293","3","left","in","Female","Right-handed","0","1","no","left","d","688.58862249","519.615169243","12","red","1"
"100","100","19","594.132662119","1","1","5","294","0","left","out","Female","Right-handed","0","1","no","left","s","574.146757295","416.304313663","12","red","0"
"100","100","19","603.363639707","1","1","5","295","3","right","out","Female","Right-handed","0","1","no","right","d","880.878280821","639.702236592","12","green","0"
"100","100","19","609.053039864","1","1","5","296","0","left","in","Female","Right-handed","0","1","no","left","d","734.542081804","688.382403594","12","red","3"
"100","100","19","606.031662137","1","1","5","297","2","right","in","Female","Right-handed","0","1","no","right","s","537.100799667","560.150170974","12","green","0"
"100","100","19","620.372807964","1","1","5","298","3","left","in","Female","Right-handed","0","1","no","left","s","774.646044351","1039.74540465","12","green","2"
"100","100","19","615.778082287","1","1","5","299","2","left","out","Female","Right-handed","0","1","no","left","s","646.291619816","392.286066337","12","green","0"
"100","100","19","619.219146417","1","1","5","300","2","right","out","Female","Right-handed","0","1","no","right","s","885.949084779","503.896029757","12","red","1"
"100","100","19","616.293719421","1","1","5","301","1","left","out","Female","Right-handed","0","1","no","left","d","546.622147332","551.395649713","12","red","0"
"100","96","19","617.621221752","1","0","5","302","0","right","in","Female","Right-handed","0","1","no","right","d","706.914202036","592.048353359","12","red","3"
"100","96","19","616.832070223","1","1","5","303","2","right","in","Female","Right-handed","0","1","no","right","d","602.50073283","591.705831151","12","green","0"
"100","96","19","618.109232038","1","1","5","304","3","right","out","Female","Right-handed","0","1","no","right","d","670.321412834","632.309465609","12","red","3"
"100","96","19","616.284817708","1","1","5","305","1","right","in","Female","Right-handed","0","1","no","right","s","597.997912795","536.053348795","12","green","0"
"100","96","19","615.793380279","1","1","5","306","0","left","in","Female","Right-handed","0","1","no","left","s","644.4388569","559.627407678","12","red","0"
"100","96","19","615.342429201","1","1","5","307","1","right","out","Female","Right-handed","0","1","no","right","s","748.295887874","456.233807968","12","red","1"
"100","96","19","619.536267472","1","1","5","308","1","left","in","Female","Right-handed","0","1","no","left","d","754.745760647","735.95707055","12","green","2"
"100","96","19","637.03196449","1","1","5","309","1","right","out","Female","Right-handed","0","1","no","right","d","647.413476261","1711.38366785","12","green","0"
"100","96","19","640.334188317","1","1","5","310","1","right","in","Female","Right-handed","0","1","no","right","d","780.122871825","711.887829749","12","red","2"
"100","94","19","636.911277693","1","0","5","311","2","right","in","Female","Right-handed","0","1","no","right","s","552.453363421","495.457090754","12","red","3"
"100","94","19","640.490133885","1","1","5","312","0","left","out","Female","Right-handed","0","1","no","left","d","916.072116959","608.270371893","12","red","1"
"100","94","19","640.789522776","1","1","5","313","2","right","out","Female","Right-handed","0","1","no","right","d","694.806939988","607.729327919","12","green","2"
"100","94","19","642.548314779","1","1","5","314","0","left","out","Female","Right-handed","0","1","no","left","s","620.393990339","791.335663426","12","green","0"
"100","94","19","646.153674955","1","1","5","315","3","right","out","Female","Right-handed","0","1","no","right","d","695.023742434","864.080260522","12","red","1"
"100","94","19","651.072145002","1","1","5","316","1","left","out","Female","Right-handed","0","1","no","left","s","916.40950775","759.538505847","12","red","1"
"100","95","19","651.610487786","1","1","5","317","2","right","out","Female","Right-handed","0","1","no","right","s","777.034719822","568.176992898","12","red","2"
"100","95","19","651.956643641","1","1","5","318","0","right","in","Female","Right-handed","0","1","no","right","d","723.847242792","607.758512864","12","red","3"
"100","92","19","653.47612163","1","0","5","319","3","left","out","Female","Right-handed","0","1","no","left","s","608.184420628","823.365017707","12","red","0"
"100","93","19","650.672225565","1","1","5","320","3","right","in","Female","Right-handed","0","1","no","right","s","593.911058401","471.906123257","12","red","3"
"100","93","19","649.988384334","1","1","5","321","3","left","in","Female","Right-handed","0","1","no","left","d","649.577331444","591.589091373","12","green","0"
"100","93","19","649.670584291","1","1","5","322","2","left","out","Female","Right-handed","0","1","no","left","d","679.06502983","592.309735008","12","red","0"
"100","93","19","650.988206689","1","1","5","323","2","right","out","Female","Right-handed","0","1","no","right","s","804.831294985","615.73113418","12","red","3"
"100","93","19","650.866979144","1","1","5","324","3","right","out","Female","Right-handed","0","1","no","right","s","571.285029151","719.295994991","12","red","3"
"97","93","19","657.598958477","0","1","5","325","0","right","out","Female","Right-handed","0","1","no","left","s","1137.95755419","810.046420098","12","green","1"
"97","93","19","657.434783823","1","1","5","326","2","left","out","Female","Right-handed","0","1","no","left","s","787.577861263","511.53093957","12","green","3"
"98","94","19","657.018353802","1","1","5","327","3","right","out","Female","Right-handed","0","1","no","right","s","722.227318007","550.999247607","12","green","2"
"98","94","19","659.863609528","1","1","5","328","1","left","in","Female","Right-handed","0","1","no","left","d","788.421979663","815.830811989","12","green","0"
"98","94","19","660.007387393","1","1","5","329","0","right","out","Female","Right-handed","0","1","no","right","s","695.209756366","639.470360604","12","green","2"
"98","94","19","658.676190274","1","1","5","330","1","right","out","Female","Right-handed","0","1","no","right","s","659.925799682","518.982080444","12","red","2"
"98","94","19","668.58231619","1","1","5","331","0","left","in","Female","Right-handed","0","1","no","left","d","1467.60631498","919.607664542","12","red","0"
"98","94","19","668.264973407","1","1","5","332","1","right","in","Female","Right-handed","0","1","no","right","d","591.095192309","711.161733983","12","red","3"
"98","94","19","668.096874041","1","1","5","333","2","left","in","Female","Right-handed","0","1","no","left","d","805.82326239","511.879555337","12","green","0"
"98","94","19","667.460494911","1","1","5","334","1","right","in","Female","Right-handed","0","1","no","right","s","664.310917798","599.335609546","12","green","0"
"98","94","19","672.064447436","1","1","5","335","0","left","in","Female","Right-handed","0","1","no","left","d","1044.98169687","823.997785792","12","red","3"
"98","94","19","672.633089844","1","1","5","336","3","left","in","Female","Right-handed","0","1","no","left","d","691.593068223","719.635630778","12","green","0"
"98","95","19","671.776370522","1","1","5","337","0","right","in","Female","Right-handed","0","1","no","right","d","579.161757076","663.298104004","12","green","0"
"98","95","19","671.300228349","1","1","5","338","1","left","out","Female","Right-handed","0","1","no","left","d","709.699279614","575.764116373","12","green","3"
"98","95","19","670.107887357","1","1","5","339","1","left","in","Female","Right-handed","0","1","no","left","d","635.298837799","559.451335868","12","green","2"
"98","95","19","668.219483389","1","1","5","340","2","right","in","Female","Right-handed","0","1","no","right","s","631.09845076","471.178423924","12","green","2"
"98","95","19","668.117120165","1","1","5","341","3","left","in","Female","Right-handed","0","1","no","left","s","795.698973012","527.637501178","12","green","2"
"100","100","19","545.047282817","1","1","6","342","3","left","out","Female","Right-handed","0","1","no","left","d","521.990695456","568.103870179","12","green","0"
"100","100","19","569.587170939","1","1","6","343","1","left","in","Female","Right-handed","0","1","no","left","s","548.566313646","639.687804476","12","green","0"
"100","100","19","568.335478908","1","1","6","344","3","left","in","Female","Right-handed","0","1","no","left","d","611.304643999","520.35954569","12","green","2"
"100","100","19","576.873464984","1","1","6","345","0","left","out","Female","Right-handed","0","1","no","left","d","596.962969757","608.011876668","12","green","3"
"100","80","19","576.319175535","1","0","6","346","1","left","in","Female","Right-handed","0","1","no","left","s","700.634628225","447.56940725","12","green","0"
"100","83","19","580.547133258","1","1","6","347","1","right","in","Female","Right-handed","0","1","no","right","s","659.108300519","544.265543228","12","red","3"
"100","85","19","573.651369204","1","1","6","348","0","right","out","Female","Right-handed","0","1","no","right","s","520.739270683","543.814299084","12","red","3"
"100","87","19","572.756162834","1","1","6","349","0","left","in","Female","Right-handed","0","1","no","left","d","549.458539099","583.520897382","12","red","0"
"100","88","19","594.835604663","1","1","6","350","3","left","out","Female","Right-handed","0","1","no","left","s","599.040873675","943.901404918","12","green","3"
"100","90","19","635.370453162","1","1","6","351","2","right","out","Female","Right-handed","0","1","no","right","s","768.757741227","1231.61043807","12","red","1"
"100","81","19","625.858135045","1","0","6","352","0","left","out","Female","Right-handed","0","1","no","left","s","509.163751915","552.306155841","12","red","0"
"100","83","19","638.892300926","1","1","6","353","2","left","in","Female","Right-handed","0","1","no","left","s","684.780147567","879.756103663","12","red","2"
"100","84","19","643.013679326","1","1","6","354","2","left","out","Female","Right-handed","0","1","no","left","s","873.471398434","511.469041829","12","green","3"
"100","85","19","635.093329055","1","1","6","355","2","right","out","Female","Right-handed","0","1","no","right","s","592.075614022","472.181937021","12","red","0"
"100","86","19","633.730323414","1","1","6","356","1","right","in","Female","Right-handed","0","1","no","right","d","509.588056109","719.708432782","12","green","0"
"100","87","19","676.634210576","1","1","6","357","1","left","out","Female","Right-handed","0","1","no","left","d","1001.21839126","1639.16664475","12","green","1"
"100","88","19","669.641273451","1","1","6","358","2","right","in","Female","Right-handed","0","1","no","right","d","515.743513726","599.765045159","12","green","3"
"100","88","19","665.683509979","1","1","6","359","3","right","in","Female","Right-handed","0","1","no","right","s","693.345768472","503.457293445","12","green","0"
"100","89","19","681.151002228","1","1","6","360","3","right","out","Female","Right-handed","0","1","no","right","s","487.049581694","1432.08214375","12","green","0"
"100","90","19","679.568967231","1","1","6","361","2","right","out","Female","Right-handed","0","1","no","right","s","627.448408395","671.572196176","12","red","2"
"100","90","19","713.311164687","1","1","6","362","3","right","out","Female","Right-handed","0","1","no","right","d","561.048810698","2215.26141692","12","green","2"
"100","86","19","711.058588091","1","0","6","363","3","left","in","Female","Right-handed","0","1","no","left","d","631.753348091","695.755611046","12","red","1"
"100","86","19","710.848006286","1","1","6","364","0","right","out","Female","Right-handed","0","1","no","right","d","733.191556506","679.238856643","12","green","1"
"100","83","19","715.226325504","1","0","6","365","1","right","out","Female","Right-handed","0","1","no","right","s","591.874526546","1039.98080849","12","green","1"
"100","84","19","713.357942763","1","1","6","366","2","right","in","Female","Right-handed","0","1","no","right","d","609.444183954","727.589329983","12","red","0"
"100","84","19","707.924419282","1","1","6","367","0","left","out","Female","Right-handed","0","1","no","left","d","569.057351944","575.115312604","12","red","0"
"100","85","19","709.100150828","1","1","6","368","3","right","in","Female","Right-handed","0","1","no","right","d","735.67548394","743.662858083","12","green","2"
"100","85","19","709.771193928","1","1","6","369","1","left","in","Female","Right-handed","0","1","no","left","s","704.440858153","751.337857108","12","green","2"
"100","86","19","706.380540005","1","1","6","370","1","left","in","Female","Right-handed","0","1","no","left","s","654.916572752","567.96788758","12","red","2"
"100","86","19","705.220614663","1","1","6","371","3","left","in","Female","Right-handed","0","1","no","left","d","759.544599407","583.620960049","12","green","2"
"100","87","19","710.281566332","1","1","6","372","0","left","out","Female","Right-handed","0","1","no","left","s","717.046188542","1007.17404426","12","red","3"
"100","87","19","707.392611631","1","1","6","373","3","left","out","Female","Right-handed","0","1","no","left","s","611.933884233","623.736147576","12","red","3"
"100","87","19","702.118682176","1","1","6","374","2","right","in","Female","Right-handed","0","1","no","right","s","611.443192307","455.262686952","12","red","0"
"100","88","19","702.307947123","1","1","6","375","3","left","in","Female","Right-handed","0","1","no","left","d","658.098693863","759.008686851","12","red","0"
"100","88","19","698.774140691","1","1","6","376","0","left","out","Female","Right-handed","0","1","no","left","s","637.473917961","519.775526084","12","red","2"
"100","88","19","702.520170752","1","1","6","377","2","right","out","Female","Right-handed","0","1","no","right","s","1172.01093249","495.251513288","12","green","1"
"100","89","19","708.298120561","1","1","6","378","2","right","out","Female","Right-handed","0","1","no","right","d","600.709546941","1231.89908038","12","red","3"
"100","86","19","709.891652961","1","0","6","379","1","left","in","Female","Right-handed","0","1","no","left","s","666.353543213","871.351160311","12","green","2"
"100","87","19","711.943605148","1","1","6","380","3","left","out","Female","Right-handed","0","1","no","left","s","732.849996441","846.985580072","12","red","0"
"100","87","19","709.156748329","1","1","6","381","2","right","in","Female","Right-handed","0","1","no","right","d","625.50167637","575.436988422","12","red","0"
"100","87","19","705.377913119","1","1","6","382","1","right","out","Female","Right-handed","0","1","no","right","s","557.291649962","551.157359448","12","red","0"
"100","88","19","725.230011268","1","1","6","383","3","left","in","Female","Right-handed","0","1","no","left","d","1407.66043862","1670.67163217","12","green","3"
"100","88","19","727.069061544","1","1","6","384","0","left","out","Female","Right-handed","0","1","no","left","d","713.346435558","895.271910677","12","green","0"
"100","88","19","727.803931168","1","1","6","385","0","left","out","Female","Right-handed","0","1","no","left","s","863.774941101","655.03170896","12","red","2"
"100","88","19","727.808598362","1","1","6","386","0","right","out","Female","Right-handed","0","1","no","right","s","728.432486243","727.595423545","12","red","2"
"100","89","19","727.044252687","1","1","6","387","2","right","in","Female","Right-handed","0","1","no","right","s","626.093393106","759.204001481","12","red","0"
"100","89","19","729.897175374","1","1","6","388","3","left","out","Female","Right-handed","0","1","no","left","s","730.635789209","991.627448729","12","red","0"
"100","89","19","728.091691212","1","1","6","389","1","right","out","Female","Right-handed","0","1","no","right","s","703.218297613","583.249573613","12","green","3"
"100","89","19","727.464958529","1","1","6","390","1","right","in","Female","Right-handed","0","1","no","right","d","563.864676789","830.89890271","12","red","3"
"100","90","19","729.674565417","1","1","6","391","0","right","in","Female","Right-handed","0","1","no","right","d","1004.42873518","671.461870672","12","green","1"
"100","90","19","726.644428883","1","1","6","392","1","right","out","Female","Right-handed","0","1","no","right","s","623.163032231","527.112172175","12","green","0"
"100","90","19","728.127176073","1","1","6","393","2","left","in","Female","Right-handed","0","1","no","left","d","704.735914737","902.758650771","12","red","0"
"100","90","19","729.563706922","1","1","6","394","0","left","out","Female","Right-handed","0","1","no","left","d","841.201829608","767.324792514","12","green","2"
"100","90","19","727.198463159","1","1","6","395","0","right","in","Female","Right-handed","0","1","no","right","s","652.814294593","550.866792857","12","green","0"
"100","90","19","726.895422209","1","1","6","396","3","right","out","Female","Right-handed","0","1","no","right","s","693.474374657","727.58804713","12","red","1"
"100","91","19","726.693725585","1","1","6","397","1","left","in","Female","Right-handed","0","1","no","left","d","552.047981333","879.152841235","12","red","0"
"100","91","19","724.763445811","1","1","6","398","2","right","in","Female","Right-handed","0","1","no","right","d","650.570902416","582.764654531","12","green","3"
"100","91","19","730.72983573","1","1","6","399","1","right","in","Female","Right-handed","0","1","no","right","d","758.30215462","1383.32596761","12","green","2"
"100","91","19","728.34396655","1","1","6","400","0","right","out","Female","Right-handed","0","1","no","right","s","548.949245778","630.977862418","12","green","0"
"100","91","19","727.196878002","1","1","6","401","2","left","in","Female","Right-handed","0","1","no","left","s","696.59299446","622.44431288","12","red","2"
"100","91","19","725.638005446","1","1","6","402","0","right","in","Female","Right-handed","0","1","no","right","d","617.115975838","647.095328291","12","red","3"
"100","91","19","724.469326458","1","1","6","403","2","right","in","Female","Right-handed","0","1","no","right","s","619.594130427","686.765685945","12","red","2"
"100","92","19","729.44373974","1","1","6","404","3","left","out","Female","Right-handed","0","1","no","left","d","668.347420147","1407.36730632","12","green","3"
"100","92","19","728.591184391","1","1","6","405","1","left","in","Female","Right-handed","0","1","no","left","d","694.855367754","654.905027059","12","green","3"
"100","100","19","532.173034009","1","1","7","406","3","right","out","Female","Right-handed","0","1","no","right","d","552.594798153","511.751269865","12","red","0"
"100","100","19","514.091036502","1","1","7","407","0","left","out","Female","Right-handed","0","1","no","left","s","504.549644233","487.468433755","12","green","0"
"100","100","19","552.881302372","1","1","7","408","2","left","in","Female","Right-handed","0","1","no","left","d","741.978790564","518.944877659","12","red","2"
"100","100","19","553.70382605","1","1","7","409","1","left","in","Female","Right-handed","0","1","no","left","d","576.69258247","535.650211703","12","red","2"
"100","100","19","574.621285254","1","1","7","410","2","right","in","Female","Right-handed","0","1","no","right","s","605.228081948","711.354162189","12","green","0"
"100","83","19","581.854068221","1","0","7","411","0","right","out","Female","Right-handed","0","1","no","right","d","571.94345433","664.092511785","12","red","3"
"100","85","19","618.655974195","1","1","7","412","0","left","out","Female","Right-handed","0","1","no","left","s","719.459879681","959.474940397","12","green","3"
"100","87","19","633.51923769","1","1","7","413","2","left","in","Female","Right-handed","0","1","no","left","s","860.029326058","615.094838242","12","green","2"
"100","88","19","639.711127489","1","1","7","414","2","left","out","Female","Right-handed","0","1","no","left","d","530.681394694","847.811097079","12","red","0"
"100","90","19","632.86920719","1","1","7","415","2","right","out","Female","Right-handed","0","1","no","right","d","511.296177158","631.287671829","12","red","0"
"100","90","19","625.73189048","1","1","7","416","3","right","in","Female","Right-handed","0","1","no","right","d","596.780483675","511.936963085","12","red","1"
"100","91","19","616.800259949","1","1","7","417","2","right","out","Female","Right-handed","0","1","no","right","s","493.640889199","543.463759035","12","green","0"
"100","92","19","621.256808813","1","1","7","418","3","left","in","Female","Right-handed","0","1","no","left","d","790.237219078","559.233571281","12","red","3"
"100","92","19","613.511005198","1","1","7","419","3","right","in","Female","Right-handed","0","1","no","right","s","529.76704","495.864076412","12","red","0"
"100","93","19","616.106700586","1","1","7","420","0","right","out","Female","Right-handed","0","1","no","right","s","649.371753976","655.521118035","12","red","1"
"100","93","19","615.316661862","1","1","7","421","3","left","out","Female","Right-handed","0","1","no","left","s","751.839132585","455.093029415","12","red","2"
"100","94","19","641.920424447","1","1","7","422","0","left","out","Female","Right-handed","0","1","no","left","d","983.639753871","1151.52149776","12","red","3"
"100","94","19","639.627492489","1","1","7","423","1","right","in","Female","Right-handed","0","1","no","right","d","570.207431192","631.087867209","12","red","2"
"100","94","19","640.664959975","1","1","7","424","3","left","out","Female","Right-handed","0","1","no","left","d","654.794701553","663.884047892","12","red","2"
"100","95","19","639.579379201","1","1","7","425","0","right","out","Female","Right-handed","0","1","no","right","d","518.407361534","719.499327464","12","green","0"
"100","95","19","650.483675934","1","1","7","426","0","left","out","Female","Right-handed","0","1","no","left","d","1057.95552728","679.18369389","12","green","1"
"100","95","19","650.419693208","1","1","7","427","2","left","in","Female","Right-handed","0","1","no","left","d","610.437113501","687.714998429","12","red","3"
"100","95","19","647.804258905","1","1","7","428","0","left","out","Female","Right-handed","0","1","no","left","s","557.1729859","623.356422577","12","green","2"
"100","95","19","650.264093014","1","1","7","429","2","right","in","Female","Right-handed","0","1","no","right","s","806.885786802","606.794768264","12","red","1"
"100","96","19","649.508454975","1","1","7","430","2","left","in","Female","Right-handed","0","1","no","left","s","743.334767991","519.411516059","12","green","1"
"100","96","19","648.646404486","1","1","7","431","1","right","in","Female","Right-handed","0","1","no","right","d","703.082956443","551.107328116","12","green","2"
"100","96","19","658.241833127","1","1","7","432","1","left","in","Female","Right-handed","0","1","no","left","s","1143.70538472","671.740570859","12","red","0"
"100","96","19","660.797115749","1","1","7","433","3","left","in","Female","Right-handed","0","1","no","left","s","836.198054807","623.381438247","12","green","1"
"100","96","19","657.454258433","1","1","7","434","0","left","in","Female","Right-handed","0","1","no","left","s","608.824565126","518.883942059","12","red","3"
"100","96","19","653.74075623","1","1","7","435","2","right","in","Female","Right-handed","0","1","no","right","d","540.540774575","551.557610121","12","red","3"
"100","96","19","654.396851063","1","1","7","436","2","left","in","Female","Right-handed","0","1","no","left","s","677.070511469","671.088880663","12","green","3"
"100","96","19","656.642157661","1","1","7","437","1","left","in","Female","Right-handed","0","1","no","left","s","829.72605279","622.767271554","12","red","2"
"100","96","19","661.690531555","1","1","7","438","0","right","in","Female","Right-handed","0","1","no","right","d","599.129711365","1047.34728096","12","green","2"
"100","97","19","659.313675182","1","1","7","439","0","left","in","Female","Right-handed","0","1","no","left","d","626.825582433","534.929247355","12","green","0"
"100","97","19","657.494441803","1","1","7","440","3","right","out","Female","Right-handed","0","1","no","right","d","511.555955236","679.725058581","12","green","2"
"100","97","19","655.221669454","1","1","7","441","0","left","out","Female","Right-handed","0","1","no","left","s","584.203376089","567.145898425","12","red","2"
"100","97","19","651.952619287","1","1","7","442","2","right","in","Female","Right-handed","0","1","no","right","d","581.858959103","486.674667401","12","green","2"
"100","97","19","650.728588049","1","1","7","443","1","right","out","Female","Right-handed","0","1","no","right","d","531.419356866","679.459507653","12","green","3"
"100","97","19","649.813269806","1","1","7","444","3","left","in","Female","Right-handed","0","1","no","left","s","639.054074251","591.008278902","12","red","0"
"100","97","19","650.997656064","1","1","7","445","1","left","in","Female","Right-handed","0","1","no","left","s","723.644551748","670.732888481","12","green","1"
"100","97","19","649.03998741","1","1","7","446","1","left","out","Female","Right-handed","0","1","no","left","s","566.146554604","575.319927928","12","green","0"
"100","97","19","646.536748152","1","1","7","447","1","left","in","Female","Right-handed","0","1","no","left","s","592.903376026","494.904501087","12","green","3"
"100","97","19","645.91074249","1","1","7","448","1","right","in","Female","Right-handed","0","1","no","right","s","615.648069335","623.588939994","12","green","0"
"100","97","19","653.275965577","1","1","7","449","3","right","out","Female","Right-handed","0","1","no","right","s","660.836947241","1279.12416943","12","green","0"
"100","97","19","654.52818136","1","1","7","450","1","left","out","Female","Right-handed","0","1","no","left","d","676.556728155","742.694623492","12","green","1"
"100","97","19","652.661296739","1","1","7","451","3","right","in","Female","Right-handed","0","1","no","right","s","537.983403708","599.319573859","12","green","0"
"100","97","19","650.964227037","1","1","7","452","3","right","out","Female","Right-handed","0","1","no","right","s","698.910471496","446.887569971","12","red","3"
"100","97","19","648.737756488","1","1","7","453","0","right","out","Female","Right-handed","0","1","no","right","d","481.578847779","606.608433612","12","green","0"
"100","97","19","648.726108254","1","1","7","454","0","right","out","Female","Right-handed","0","1","no","right","d","697.183749053","599.150237038","12","green","2"
"100","98","19","652.507352361","1","1","7","455","3","left","out","Female","Right-handed","0","1","no","left","d","772.749664375","902.826962782","12","green","3"
"100","98","19","651.072844477","1","1","7","456","2","right","in","Female","Right-handed","0","1","no","right","s","527.306203949","631.388696638","12","green","0"
"100","98","19","653.590939769","1","1","7","457","1","left","in","Female","Right-handed","0","1","no","left","s","884.964814504","679.062784832","12","green","3"
"100","98","19","656.450900267","1","1","7","458","1","left","out","Female","Right-handed","0","1","no","left","s","595.656382237","1014.68131003","12","red","0"
"100","98","19","654.287531477","1","1","7","459","0","right","in","Female","Right-handed","0","1","no","right","d","512.134522713","567.123448469","12","red","0"
"100","98","19","655.604486096","1","1","7","460","3","right","in","Female","Right-handed","0","1","no","right","d","894.704247469","558.735823656","12","green","2"
"100","98","19","653.037431135","1","1","7","461","2","right","out","Female","Right-handed","0","1","no","right","d","497.386183524","526.312632974","12","red","0"
"100","96","19","652.55440117","1","0","7","462","1","left","out","Female","Right-handed","0","1","no","left","s","652.070559576","598.938886723","12","red","0"
"100","96","19","652.253734086","1","1","7","463","3","left","out","Female","Right-handed","0","1","no","left","s","751.670437188","518.560983386","12","red","3"
"100","96","19","651.923629224","1","1","7","464","1","right","in","Female","Right-handed","0","1","no","right","d","546.316507196","719.238587244","12","red","3"
"100","96","19","650.613723039","1","1","7","465","0","right","out","Female","Right-handed","0","1","no","right","d","523.827101973","622.83141429","12","red","0"
"100","96","19","649.433060236","1","1","7","466","1","left","out","Female","Right-handed","0","1","no","left","s","662.500489088","494.686095073","12","green","0"
"100","96","19","648.145784561","1","1","7","467","2","right","out","Female","Right-handed","0","1","no","right","d","548.086525985","591.157410763","12","red","3"
"100","96","19","647.821828769","1","1","7","468","2","right","in","Female","Right-handed","0","1","no","right","s","656.737585014","598.735554256","12","red","2"
"100","96","19","650.031845365","1","1","7","469","3","right","out","Female","Right-handed","0","1","no","right","d","836.2917032","742.23407865","12","green","0"
"100","100","19","469.275629674","1","1","8","470","0","right","out","Female","Right-handed","0","1","no","right","d","474.689597268","463.86166208","12","red","0"
"100","100","19","515.111387067","1","1","8","471","1","left","in","Female","Right-handed","0","1","no","left","d","538.439137843","583.455151078","12","green","0"
"100","100","19","524.621937371","1","1","8","472","0","left","out","Female","Right-handed","0","1","no","left","d","512.009444377","575.276631582","12","green","2"
"100","100","19","569.904116231","1","1","8","473","2","left","in","Female","Right-handed","0","1","no","left","d","883.648284856","527.853020769","12","red","3"
"100","100","19","557.365510323","1","1","8","474","2","left","in","Female","Right-handed","0","1","no","left","s","471.281693728","543.140479648","12","red","0"
"100","100","19","574.225706313","1","1","8","475","0","left","in","Female","Right-handed","0","1","no","left","d","789.98706241","527.066310118","12","red","3"
"100","100","19","574.261252079","1","1","8","476","3","right","out","Female","Right-handed","0","1","no","right","d","597.444681702","551.504371648","12","green","2"
"100","100","19","573.940378044","1","1","8","477","0","right","in","Female","Right-handed","0","1","no","right","s","528.098687446","615.289832156","12","green","0"
"100","100","19","590.859592478","1","1","8","478","1","left","in","Female","Right-handed","0","1","no","left","d","781.655883202","670.770732697","12","red","2"
"100","90","19","616.362603374","1","0","8","479","2","left","out","Female","Right-handed","0","1","no","left","d","668.383019365","1023.39638351","12","green","2"
"100","90","19","609.593447015","1","1","8","480","1","right","out","Female","Right-handed","0","1","no","right","s","612.775436922","471.028329921","12","red","2"
"100","91","19","611.562885324","1","1","8","481","1","right","out","Female","Right-handed","0","1","no","right","d","795.732968658","470.720444791","12","red","1"
"100","92","19","609.689875301","1","1","8","482","2","left","in","Female","Right-handed","0","1","no","left","d","615.123381758","559.304128292","12","red","2"
"100","85","19","608.802149533","1","0","8","483","3","left","out","Female","Right-handed","0","1","no","left","d","579.734872419","614.788556682","12","red","0"
"100","86","19","608.703934023","1","1","8","484","3","left","in","Female","Right-handed","0","1","no","left","s","655.279299917","559.378533864","12","green","0"
"100","87","19","612.412228684","1","1","8","485","1","left","in","Female","Right-handed","0","1","no","left","s","641.02678408","695.046513105","12","green","3"
"100","88","19","611.544452934","1","1","8","486","0","right","in","Female","Right-handed","0","1","no","right","s","524.69367033","670.626411542","12","red","3"
"100","88","19","611.694881274","1","1","8","487","0","right","out","Female","Right-handed","0","1","no","right","d","557.230072937","671.274253171","12","green","3"
"100","89","19","612.437100874","1","1","8","488","2","left","out","Female","Right-handed","0","1","no","left","d","652.720646198","598.873461135","12","green","1"
"100","90","19","618.140471628","1","1","8","489","1","left","in","Female","Right-handed","0","1","no","left","d","717.418857839","735.590174099","12","green","3"
"100","90","19","618.161655149","1","1","8","490","2","right","in","Female","Right-handed","0","1","no","right","s","566.068621181","671.102029926","12","red","0"
"100","90","19","627.685437669","1","1","8","491","3","right","in","Female","Right-handed","0","1","no","right","d","944.688115567","710.681625609","12","red","1"
"100","91","19","623.405017674","1","1","8","492","1","right","out","Female","Right-handed","0","1","no","right","d","475.214284845","583.25727074","12","green","0"
"100","91","19","622.656999501","1","1","8","493","1","left","out","Female","Right-handed","0","1","no","left","d","651.880376365","559.024786675","12","red","3"
"100","88","19","638.51083018","1","0","8","494","2","right","out","Female","Right-handed","0","1","no","right","d","615.506955317","1422.49857763","12","red","2"
"100","88","19","640.457221261","1","1","8","495","1","right","in","Female","Right-handed","0","1","no","right","s","659.0210664","719.212930151","12","green","0"
"100","85","19","641.076197745","1","0","8","496","2","right","out","Female","Right-handed","0","1","no","right","d","595.648685107","718.690487567","12","red","3"
"100","85","19","639.388836332","1","1","8","497","0","right","in","Female","Right-handed","0","1","no","right","d","580.331399859","607.328756534","12","green","3"
"100","86","19","638.544946816","1","1","8","498","2","left","out","Female","Right-handed","0","1","no","left","s","646.853510178","582.978570554","12","green","0"
"100","86","19","638.778752248","1","1","8","499","0","left","in","Female","Right-handed","0","1","no","left","s","732.601443342","558.516776211","12","red","1"
"100","87","19","636.628113227","1","1","8","500","1","right","out","Female","Right-handed","0","1","no","right","d","593.001835125","551.216050051","12","green","2"
"100","87","19","636.287051851","1","1","8","501","2","right","in","Female","Right-handed","0","1","no","right","d","596.657971052","654.770327313","12","red","3"
"100","87","19","634.789938081","1","1","8","502","3","left","out","Female","Right-handed","0","1","no","left","d","655.324841264","518.439753618","12","red","2"
"100","88","19","631.267848895","1","1","8","503","1","right","out","Female","Right-handed","0","1","no","right","d","542.923035773","487.154775779","12","red","0"
"100","88","19","632.446717317","1","1","8","504","0","left","out","Female","Right-handed","0","1","no","left","s","682.578768883","662.477718415","12","green","2"
"100","86","19","654.842937781","1","0","8","505","1","right","in","Female","Right-handed","0","1","no","right","s","662.10120056","2215.32010753","12","green","3"
"100","86","19","653.245853852","1","1","8","506","1","left","out","Female","Right-handed","0","1","no","left","d","624.687384345","566.814280482","12","red","0"
"100","86","19","652.985572577","1","1","8","507","3","right","out","Female","Right-handed","0","1","no","right","d","592.313904286","694.396426479","12","red","2"
"100","84","19","668.841746829","1","0","8","508","3","right","out","Female","Right-handed","0","1","no","right","s","567.868466344","1974.88427047","12","green","0"
"100","85","19","668.096461694","1","1","8","509","3","right","in","Female","Right-handed","0","1","no","right","s","639.630717444","638.429965435","12","red","2"
"100","82","19","666.778019499","1","0","8","510","2","left","out","Female","Right-handed","0","1","no","left","d","645.094716368","582.985946971","12","green","2"
"100","83","19","665.669827468","1","1","8","511","2","left","out","Female","Right-handed","0","1","no","left","d","617.637135565","622.830772863","12","green","0"
"100","83","19","664.986594392","1","1","8","512","3","right","in","Female","Right-handed","0","1","no","right","s","530.347852469","742.233757937","12","green","0"
"100","84","19","673.098363235","1","1","8","513","3","left","out","Female","Right-handed","0","1","no","left","s","756.976324276","1286.83252267","12","red","3"
"100","84","19","678.305932626","1","1","8","514","0","left","in","Female","Right-handed","0","1","no","left","s","960.423290741","854.454680914","12","green","1"
"100","84","19","676.813801085","1","1","8","515","3","left","in","Female","Right-handed","0","1","no","left","d","588.154247886","631.181515604","12","green","0"
"100","85","19","675.989549429","1","1","8","516","0","right","in","Female","Right-handed","0","1","no","right","d","677.655172501","598.492773999","12","green","0"
"100","85","19","680.818074177","1","1","8","517","0","right","in","Female","Right-handed","0","1","no","right","s","705.148352525","1110.3691222","12","green","2"
"100","85","19","680.286291151","1","1","8","518","3","left","out","Female","Right-handed","0","1","no","left","d","710.882713083","598.63869872","12","red","3"
"100","86","19","677.341405483","1","1","8","519","0","right","in","Female","Right-handed","0","1","no","right","s","531.531606652","534.552408783","12","green","0"
"100","86","19","676.581533158","1","1","8","520","2","left","in","Female","Right-handed","0","1","no","left","s","783.090114768","494.085719067","12","green","1"
"100","86","19","679.22953436","1","1","8","521","2","left","out","Female","Right-handed","0","1","no","left","d","637.717339643","990.837851656","12","red","0"
"100","86","19","679.239374021","1","1","8","522","3","right","out","Female","Right-handed","0","1","no","right","s","785.246593539","574.255479234","12","green","1"
"100","87","19","678.721536572","1","1","8","523","3","right","out","Female","Right-handed","0","1","no","right","d","663.688412548","638.86389104","12","green","3"
"100","87","19","676.800773771","1","1","8","524","0","right","out","Female","Right-handed","0","1","no","right","s","595.555036711","550.604128355","12","red","2"
"100","87","19","676.770329192","1","1","8","525","1","left","out","Female","Right-handed","0","1","no","left","s","736.152064466","614.039690241","12","red","1"
"100","87","19","676.770106843","1","1","8","526","2","left","in","Female","Right-handed","0","1","no","left","d","706.69579602","646.819514528","12","red","0"
"100","87","19","676.384715034","1","1","8","527","0","left","out","Female","Right-handed","0","1","no","left","s","630.456702693","678.378061133","12","green","0"
"100","88","19","676.266542072","1","1","8","528","3","left","in","Female","Right-handed","0","1","no","left","s","628.867245705","709.957774838","12","green","0"
"100","88","19","674.048298197","1","1","8","529","1","right","out","Female","Right-handed","0","1","no","right","s","631.53173494","454.812084234","12","green","0"
"100","88","19","671.066283494","1","1","8","530","3","right","in","Female","Right-handed","0","1","no","right","s","554.083551044","430.207251593","12","red","3"
"100","88","19","671.222069951","1","1","8","531","0","left","in","Female","Right-handed","0","1","no","left","d","659.741710035","701.708377619","12","red","0"
"100","88","19","668.79108934","1","1","8","532","2","right","in","Female","Right-handed","0","1","no","right","s","629.58724791","406.553335004","12","red","3"
"100","89","19","667.194306647","1","1","8","533","1","right","in","Female","Right-handed","0","1","no","right","s","655.058969623","478.13502431","12","red","2"
dis_reply=No
dis_loc=3
tar_loc=0
