"acc_1","acc_2","age","avg_rt","correct_1","correct_2","count_block_loop","count_trial_sequence","cue_position","detection","dis_shape","gender","hand","high_loc","low_loc","practice","response_keyboard_response_1","response_keyboard_response_2","response_time_keyboard_response_1","response_time_keyboard_response_2","subject_nr","tar_color","tar_position"
"100","0","19","1302.72570271","1","0","0","0","3","right","out","Male","Right-handed","2","1","yes","right","s","1237.44241276","1368.00899267","19","red","1"
"100","50","19","1020.41839649","1","1","0","1","0","left","out","Male","Right-handed","2","1","yes","left","d","890.11046809","586.11171244","19","green","2"
"100","66","19","912.165013146","1","1","0","2","2","left","out","Male","Right-handed","2","1","yes","left","d","861.673553884","529.642939038","19","green","1"
"100","75","19","878.556538527","1","1","0","3","1","right","in","Male","Right-handed","2","1","yes","right","s","858.277890828","697.184338514","19","green","2"
"100","80","19","867.706788921","1","1","0","4","3","right","in","Male","Right-handed","2","1","yes","right","d","1022.91302863","625.702552359","19","red","0"
"100","83","19","904.397530116","1","1","0","5","1","left","in","Male","Right-handed","2","1","yes","left","s","1574.39815015","601.30432203","19","green","0"
"100","85","19","899.195914722","1","1","0","6","3","right","in","Male","Right-handed","2","1","yes","right","d","1046.05696748","689.915477239","19","green","3"
"100","87","19","878.688029069","1","1","0","7","0","right","in","Male","Right-handed","2","1","yes","right","d","980.533627102","489.732031898","19","red","3"
"100","88","19","861.406831201","1","1","0","8","2","right","out","Male","Right-handed","2","1","yes","right","s","701.142203814","745.172292698","19","red","2"
"100","90","19","842.75123112","1","1","0","9","1","right","in","Male","Right-handed","2","1","yes","right","d","963.746454165","385.955206624","19","red","3"
"100","90","19","819.816368065","1","1","0","10","0","left","in","Male","Right-handed","2","1","yes","left","s","723.453262328","457.482212697","19","green","1"
"100","83","19","799.46014046","1","0","0","11","2","right","out","Male","Right-handed","2","1","yes","right","d","629.159150058","521.924123543","19","green","3"
"100","84","19","809.398736679","1","1","0","12","0","left","in","Male","Right-handed","2","1","yes","left","d","1127.68757847","729.636204157","19","red","0"
"100","78","19","819.028239083","1","0","0","13","3","left","out","Male","Right-handed","2","1","yes","left","d","1159.1625656","729.26097505","19","red","0"
"100","80","19","806.342943368","1","1","0","14","0","left","out","Male","Right-handed","2","1","yes","left","d","727.703934615","529.793672098","19","green","1"
"100","81","19","799.907325226","1","1","0","15","3","right","out","Male","Right-handed","2","1","yes","right","s","965.377578296","441.3685279","19","green","2"
"100","82","19","792.828388902","1","1","0","16","1","left","out","Male","Right-handed","2","1","yes","left","s","870.097928382","489.032887067","19","red","0"
"100","83","19","785.11790764","1","1","0","17","1","right","in","Male","Right-handed","2","1","yes","right","s","834.626911624","473.452540734","19","green","1"
"100","84","19","774.854214715","1","1","0","18","0","left","in","Male","Right-handed","2","1","yes","left","s","739.152912275","441.062571858","19","green","2"
"100","85","19","767.377653663","1","1","0","19","3","right","out","Male","Right-handed","2","1","yes","right","d","800.83352175","449.812465625","19","green","1"
"100","80","19","751.713771511","1","0","0","20","1","right","in","Male","Right-handed","2","1","yes","right","s","531.430248277","345.442008663","19","green","2"
"100","81","19","743.548348066","1","1","0","21","1","left","in","Male","Right-handed","2","1","yes","left","d","599.059361565","545.089549869","19","green","1"
"100","100","19","795.973663407","1","1","1","22","1","left","in","Male","Right-handed","2","1","no","left","d","1077.95368647","513.993640348","19","red","0"
"100","100","19","656.791807177","1","1","1","23","2","left","in","Male","Right-handed","2","1","no","left","s","593.624953698","441.594948198","19","red","1"
"100","66","19","616.755155525","1","0","1","24","1","left","in","Male","Right-handed","2","1","no","left","s","664.190154565","409.173549875","19","green","2"
"100","75","19","591.641851836","1","1","1","25","1","right","in","Male","Right-handed","2","1","no","right","s","686.752648652","345.851232884","19","green","1"
"100","80","19","615.103324305","1","1","1","26","0","right","in","Male","Right-handed","2","1","no","right","d","808.437202843","609.461225525","19","green","3"
"100","83","19","613.182888911","1","1","1","27","3","right","in","Male","Right-handed","2","1","no","right","d","686.029450674","521.131973208","19","green","0"
"100","71","19","683.825769993","1","0","1","28","0","left","in","Male","Right-handed","2","1","no","left","escape","725.584050519","1489.78206244","19","red","0"
"100","62","19","666.529784211","1","0","1","29","3","left","in","Male","Right-handed","2","1","no","left","s","713.930460746","376.985306733","19","red","2"
"100","66","19","653.151594875","1","1","1","30","0","right","in","Male","Right-handed","2","1","no","right","d","698.532597627","393.719562746","19","red","2"
"100","70","19","658.959172187","1","1","1","31","2","right","out","Male","Right-handed","2","1","no","right","d","717.261661368","705.193074618","19","green","0"
"100","63","19","654.038108058","1","0","1","32","0","left","out","Male","Right-handed","2","1","no","left","s","767.809832607","441.845100935","19","red","1"
"100","66","19","654.271545073","1","1","1","33","0","left","out","Male","Right-handed","2","1","no","left","d","800.3861332","513.292571266","19","green","0"
"100","69","19","641.483723975","1","1","1","34","2","right","in","Male","Right-handed","2","1","no","right","d","526.958287031","449.101454575","19","green","2"
"100","71","19","630.032038793","1","1","1","35","0","left","out","Male","Right-handed","2","1","no","left","s","520.603445373","441.716817481","19","green","2"
"100","73","19","624.65255228","1","1","1","36","2","right","out","Male","Right-handed","2","1","no","right","s","593.275701991","505.403780193","19","red","2"
"100","75","19","626.165425123","1","1","1","37","0","right","out","Male","Right-handed","2","1","no","right","d","743.896513735","553.820521825","19","green","2"
"100","76","19","617.572145059","1","1","1","38","1","right","in","Male","Right-handed","2","1","no","right","d","454.471400004","505.687928046","19","red","2"
"100","77","19","617.549924981","1","1","1","39","2","right","in","Male","Right-handed","2","1","no","right","d","793.048640275","441.295727038","19","red","3"
"100","73","19","613.59390235","1","0","1","40","1","right","in","Male","Right-handed","2","1","no","right","d","610.869457154","473.901532829","19","green","2"
"100","75","19","608.458193224","1","1","1","41","3","right","out","Male","Right-handed","2","1","no","right","s","476.383496974","545.375942684","19","red","2"
"100","76","19","601.768692866","1","1","1","42","1","left","in","Male","Right-handed","2","1","no","left","s","599.046853929","336.910517479","19","green","2"
"100","77","19","603.671188221","1","1","1","43","0","right","out","Male","Right-handed","2","1","no","right","d","789.497754238","497.749427135","19","red","1"
"100","78","19","618.347357713","1","1","1","44","0","left","in","Male","Right-handed","2","1","no","left","d","793.253893804","1089.19227926","19","red","2"
"100","79","19","619.282266095","1","1","1","45","3","right","out","Male","Right-handed","2","1","no","right","s","632.66641972","648.903898053","19","green","3"
"100","80","19","619.409113577","1","1","1","46","0","left","out","Male","Right-handed","2","1","no","left","d","619.477918408","625.428987891","19","red","3"
"100","80","19","625.473282689","1","1","1","47","3","right","in","Male","Right-handed","2","1","no","right","s","601.199129596","952.955891338","19","red","3"
"100","81","19","621.294471524","1","1","1","48","3","right","in","Male","Right-handed","2","1","no","right","s","680.579007374","344.711755093","19","red","0"
"100","82","19","615.922158745","1","1","1","49","3","right","out","Male","Right-handed","2","1","no","right","s","548.332234906","393.407192532","19","red","3"
"100","82","19","612.440431826","1","1","1","50","2","left","in","Male","Right-handed","2","1","no","left","s","540.978385841","488.925770382","19","green","3"
"100","83","19","609.910447458","1","1","1","51","0","left","out","Male","Right-handed","2","1","no","left","d","575.559436129","497.522365418","19","red","3"
"100","83","19","631.032331621","1","1","1","52","3","left","out","Male","Right-handed","2","1","no","left","d","680.182611497","1849.1951015","19","red","2"
"100","84","19","646.037258927","1","1","1","53","2","left","in","Male","Right-handed","2","1","no","left","s","1877.60892468","344.771086191","19","green","0"
"100","84","19","641.771959929","1","1","1","54","0","left","out","Male","Right-handed","2","1","no","left","d","537.276446035","473.288337913","19","green","3"
"100","82","19","645.187177352","1","0","1","55","1","left","in","Male","Right-handed","2","1","no","left","d","602.917807188","912.860897439","19","green","1"
"100","80","19","652.321277667","1","0","1","56","0","right","out","Male","Right-handed","2","1","no","right","s","588.450640535","1201.3107362","19","red","0"
"100","80","19","652.286875302","1","1","1","57","2","right","in","Male","Right-handed","2","1","no","right","s","637.110158606","665.055426471","19","green","2"
"100","81","19","649.796668557","1","1","1","58","1","left","out","Male","Right-handed","2","1","no","left","d","574.694805642","545.603645814","19","red","2"
"100","81","19","656.965994166","1","1","1","59","3","left","out","Male","Right-handed","2","1","no","left","s","1283.19887624","561.263207183","19","red","0"
"100","82","19","657.449442853","1","1","1","60","2","left","out","Male","Right-handed","2","1","no","left","d","806.756689581","544.884296341","19","red","3"
"100","80","19","671.685315874","1","0","1","61","3","right","out","Male","Right-handed","2","1","no","right","d","669.522577085","1784.24615029","19","red","3"
"100","80","19","668.754452521","1","1","1","62","2","left","out","Male","Right-handed","2","1","no","left","s","461.957381029","641.082455795","19","green","2"
"100","80","19","671.84485124","1","1","1","63","2","left","out","Male","Right-handed","2","1","no","left","s","1172.50436565","424.59803181","19","green","0"
"100","81","19","671.155949908","1","1","1","64","1","left","out","Male","Right-handed","2","1","no","left","s","795.226893344","489.217294533","19","red","3"
"100","81","19","665.309325668","1","1","1","65","0","left","in","Male","Right-handed","2","1","no","left","s","506.869418667","320.939548026","19","green","2"
"100","82","19","664.256626776","1","1","1","66","1","right","out","Male","Right-handed","2","1","no","right","d","771.471683833","464.404067228","19","green","2"
"100","82","19","660.492070235","1","1","1","67","1","right","out","Male","Right-handed","2","1","no","right","s","573.021027263","409.153024524","19","red","3"
"100","82","19","656.772910956","1","1","1","68","3","left","out","Male","Right-handed","2","1","no","left","d","466.676608634","504.706559614","19","green","1"
"100","83","19","653.881693657","1","1","1","69","3","left","out","Male","Right-handed","2","1","no","left","s","611.468861596","424.520099612","19","green","0"
"100","81","19","651.730401454","1","0","1","70","1","left","in","Male","Right-handed","2","1","no","left","s","671.960924861","424.975826587","19","red","3"
"100","82","19","651.087471677","1","1","1","71","1","right","in","Male","Right-handed","2","1","no","right","d","686.47780135","552.690023876","19","green","0"
"100","82","19","649.511574894","1","1","1","72","1","right","in","Male","Right-handed","2","1","no","right","d","564.267284992","577.166186406","19","green","3"
"100","82","19","646.334509964","1","1","1","73","3","left","in","Male","Right-handed","2","1","no","left","s","551.76830725","416.840089863","19","green","2"
"100","83","19","645.178576772","1","1","1","74","2","right","out","Male","Right-handed","2","1","no","right","s","713.569663529","456.57043804","19","green","1"
"100","83","19","645.407541392","1","1","1","75","2","right","out","Male","Right-handed","2","1","no","right","s","586.036345911","729.048986641","19","green","3"
"100","83","19","647.649280031","1","1","1","76","3","right","out","Male","Right-handed","2","1","no","right","d","928.6724747","608.733858335","19","red","1"
"100","83","19","649.38294799","1","1","1","77","1","left","out","Male","Right-handed","2","1","no","left","d","992.233719628","497.235651897","19","green","0"
"100","84","19","647.986789505","1","1","1","78","1","left","in","Male","Right-handed","2","1","no","left","d","634.837617199","504.766211421","19","red","0"
"100","84","19","645.19149651","1","1","1","79","2","right","in","Male","Right-handed","2","1","no","right","s","619.391327076","352.328264533","19","red","2"
"100","84","19","643.488080415","1","1","1","80","3","left","in","Male","Right-handed","2","1","no","left","d","640.17228468","449.207609134","19","green","2"
"100","85","19","639.676012116","1","1","1","81","2","left","in","Male","Right-handed","2","1","no","left","s","532.617832361","296.910132629","19","red","2"
"100","83","19","640.238479469","1","0","1","82","0","right","out","Male","Right-handed","2","1","no","right","d","659.456174362","688.516866869","19","green","0"
"100","83","19","637.59611237","1","1","1","83","0","right","in","Male","Right-handed","2","1","no","right","s","607.963195476","344.860243193","19","red","2"
"100","82","19","634.3924787","1","0","1","84","2","right","out","Male","Right-handed","2","1","no","right","s","494.705260744","376.829121627","19","green","0"
"100","82","19","632.33530058","1","1","1","85","3","right","in","Male","Right-handed","2","1","no","right","s","445.21767297","560.248485051","19","red","2"
"100","100","19","451.000370418","1","1","2","86","3","left","out","Male","Right-handed","2","1","no","left","s","589.016370572","312.984370264","19","green","3"
"100","100","19","490.858200279","1","1","2","87","0","left","out","Male","Right-handed","2","1","no","left","d","540.757096882","520.6749634","19","red","3"
"100","100","19","535.021169443","1","1","2","88","0","right","in","Male","Right-handed","2","1","no","right","s","789.346379761","457.347835778","19","red","1"
"100","100","19","537.491360911","1","1","2","89","3","right","in","Male","Right-handed","2","1","no","right","s","768.821989066","320.981881565","19","green","2"
"100","100","19","560.929798483","1","1","2","90","2","right","in","Male","Right-handed","2","1","no","right","d","811.657117567","497.709979973","19","red","2"
"100","100","19","561.400924817","1","1","2","91","1","left","out","Male","Right-handed","2","1","no","left","s","630.355393276","497.157719697","19","green","1"
"100","100","19","555.746789535","1","1","2","92","3","left","out","Male","Right-handed","2","1","no","left","s","594.760582984","448.883372701","19","red","1"
"100","100","19","552.397978573","1","1","2","93","1","right","out","Male","Right-handed","2","1","no","right","s","632.62408618","425.288517508","19","red","1"
"100","100","19","546.973445859","1","1","2","94","2","left","out","Male","Right-handed","2","1","no","left","s","566.073195332","441.081172961","19","red","3"
"100","100","19","545.548644284","1","1","2","95","3","left","out","Male","Right-handed","2","1","no","left","d","520.705430719","544.745429501","19","red","2"
"100","100","19","542.663243248","1","1","2","96","3","right","out","Male","Right-handed","2","1","no","right","d","426.383737507","601.234728256","19","green","3"
"100","100","19","548.770242728","1","1","2","97","1","left","out","Male","Right-handed","2","1","no","left","d","798.956734801","432.937739228","19","red","0"
"100","100","19","547.797773961","1","1","2","98","2","left","out","Male","Right-handed","2","1","no","left","d","502.584430558","569.671866957","19","red","2"
"100","100","19","543.79677335","1","1","2","99","2","right","out","Male","Right-handed","2","1","no","right","d","550.335060349","433.232470466","19","green","0"
"100","100","19","539.702756544","1","1","2","100","1","right","in","Male","Right-handed","2","1","no","right","d","579.906641717","384.8664008","19","green","2"
"100","100","19","537.840672751","1","1","2","101","1","right","in","Male","Right-handed","2","1","no","right","s","602.425519428","417.393312264","19","green","0"
"100","100","19","542.269747469","1","1","2","102","0","left","out","Male","Right-handed","2","1","no","left","d","577.207878529","649.062007411","19","green","2"
"100","100","19","540.016803351","1","1","2","103","1","right","out","Male","Right-handed","2","1","no","right","d","562.592865195","440.840641482","19","green","2"
"100","100","19","537.004611706","1","1","2","104","1","right","in","Male","Right-handed","2","1","no","right","s","452.294750479","513.275573707","19","green","2"
"100","100","19","547.726592679","1","1","2","105","1","left","in","Male","Right-handed","2","1","no","left","d","837.9452839","664.943178446","19","red","0"
"100","95","19","552.291955734","1","0","2","106","1","right","out","Male","Right-handed","2","1","no","right","d","534.595001116","752.603432546","19","red","3"
"100","95","19","553.990730646","1","1","2","107","3","left","in","Male","Right-handed","2","1","no","left","s","610.131506577","569.198501007","19","red","0"
"100","95","19","555.764887661","1","1","2","108","2","left","in","Male","Right-handed","2","1","no","left","s","484.714865968","704.877818027","19","green","2"
"100","95","19","564.604055788","1","1","2","109","1","left","in","Male","Right-handed","2","1","no","left","d","838.442702996","697.367142438","19","red","3"
"100","96","19","564.219903499","1","1","2","110","1","right","out","Male","Right-handed","2","1","no","right","d","588.959605144","521.040891954","19","green","2"
"100","96","19","562.567819084","1","1","2","111","3","left","in","Male","Right-handed","2","1","no","left","s","529.693611003","512.837806416","19","green","0"
"100","96","19","563.46431965","1","1","2","112","1","left","out","Male","Right-handed","2","1","no","left","d","708.348206196","465.198462521","19","red","3"
"100","96","19","558.731378568","1","1","2","113","3","right","in","Male","Right-handed","2","1","no","right","s","420.859531221","441.024407532","19","red","3"
"100","93","19","560.691521918","1","0","2","114","0","right","out","Male","Right-handed","2","1","no","right","d","598.525381683","632.625689723","19","green","2"
"100","93","19","558.390352657","1","1","2","115","2","left","in","Male","Right-handed","2","1","no","left","d","582.116965647","401.19592251","19","green","0"
"100","93","19","555.658947882","1","1","2","116","0","right","in","Male","Right-handed","2","1","no","right","s","474.711963554","472.721645749","19","green","0"
"100","90","19","554.933751618","1","0","2","117","2","right","out","Male","Right-handed","2","1","no","right","d","608.387813714","456.517521114","19","red","3"
"100","90","19","552.420584888","1","1","2","118","0","left","in","Male","Right-handed","2","1","no","left","d","479.003045128","464.995453955","19","red","3"
"100","91","19","558.001855016","1","1","2","119","1","right","out","Male","Right-handed","2","1","no","right","s","787.703710117","696.663828394","19","green","2"
"100","91","19","556.568417575","1","1","2","120","3","left","in","Male","Right-handed","2","1","no","left","d","614.238180686","401.424908478","19","red","2"
"100","91","19","552.508213259","1","1","2","121","2","left","out","Male","Right-handed","2","1","no","left","d","443.940290466","376.861833907","19","red","2"
"100","89","19","557.660145317","1","0","2","122","2","right","in","Male","Right-handed","2","1","no","right","s","917.662226457","568.597172312","19","red","0"
"97","89","19","557.591705158","0","1","2","123","0","left","in","Male","Right-handed","2","1","no","right","s","603.099969694","507.018868892","19","red","3"
"97","89","19","555.250191593","1","1","2","124","0","left","in","Male","Right-handed","2","1","no","left","s","555.74958428","376.795767928","19","green","2"
"97","90","19","554.015300207","1","1","2","125","2","right","in","Male","Right-handed","2","1","no","right","s","571.357832266","440.3512401","19","red","3"
"97","90","19","553.344320342","1","1","2","126","3","right","out","Male","Right-handed","2","1","no","right","d","484.029832318","568.980419133","19","green","2"
"97","90","19","556.08964234","1","1","2","127","0","left","out","Male","Right-handed","2","1","no","left","d","832.649101454","504.6465871","19","green","0"
"97","90","19","554.524481014","1","1","2","128","3","right","out","Male","Right-handed","2","1","no","right","s","489.183940836","488.391469791","19","red","3"
"97","90","19","552.873235975","1","1","2","129","0","left","in","Male","Right-handed","2","1","no","left","d","554.851279388","408.888119187","19","green","2"
"97","88","19","561.220791683","1","0","2","130","3","right","out","Male","Right-handed","2","1","no","right","s","456.4761497","1400.55033602","19","red","0"
"97","89","19","562.347282556","1","1","2","131","3","right","out","Male","Right-handed","2","1","no","right","d","841.0529506","385.025792994","19","red","1"
"97","89","19","563.076756529","1","1","2","132","2","left","in","Male","Right-handed","2","1","no","left","s","816.625856492","376.639262113","19","red","0"
"97","89","19","561.508191834","1","1","2","133","2","left","out","Male","Right-handed","2","1","no","left","d","519.299123343","456.272179006","19","green","2"
"97","89","19","560.117635928","1","1","2","134","0","right","out","Male","Right-handed","2","1","no","right","d","593.905573756","392.836331159","19","green","0"
"98","90","19","560.087967172","1","1","2","135","0","left","in","Male","Right-handed","2","1","no","left","s","724.713647276","392.554748973","19","green","3"
"98","90","19","557.764486606","1","1","2","136","2","left","in","Male","Right-handed","2","1","no","left","d","507.039394244","376.141522307","19","red","1"
"98","90","19","557.352177679","1","1","2","137","1","right","in","Male","Right-handed","2","1","no","right","s","727.821955394","344.826889495","19","green","2"
"98","90","19","564.494413271","1","1","2","138","2","left","in","Male","Right-handed","2","1","no","left","s","727.449933372","1144.33139465","19","green","1"
"98","90","19","562.91902291","1","1","2","139","0","right","in","Male","Right-handed","2","1","no","right","s","527.013448916","431.833218679","19","green","0"
"98","89","19","565.284733146","1","0","2","140","1","left","out","Male","Right-handed","2","1","no","left","d","889.484765538","496.581406276","19","green","3"
"98","89","19","568.148981991","1","1","2","141","0","right","out","Male","Right-handed","2","1","no","right","d","859.145086984","592.220249864","19","red","2"
"98","89","19","568.774791446","1","1","2","142","2","left","in","Male","Right-handed","2","1","no","left","d","774.830786104","432.809455775","19","green","3"
"98","89","19","568.121843405","1","1","2","143","3","right","in","Male","Right-handed","2","1","no","right","s","581.420707196","480.386902902","19","red","2"
"98","89","19","568.451671152","1","1","2","144","0","right","in","Male","Right-handed","2","1","no","right","d","655.032319413","520.131041551","19","green","2"
"98","88","19","567.431423139","1","0","2","145","1","right","in","Male","Right-handed","2","1","no","right","s","621.649757304","392.82382352","19","red","0"
"98","88","19","565.96153878","1","1","2","146","0","right","out","Male","Right-handed","2","1","no","right","s","571.226341724","384.31061273","19","red","1"
"98","88","19","564.186986275","1","1","2","147","3","left","out","Male","Right-handed","2","1","no","left","s","534.944894238","376.933672643","19","green","2"
"98","88","19","563.731612482","1","1","2","148","2","left","out","Male","Right-handed","2","1","no","left","d","486.452786075","584.544088619","19","green","2"
"98","89","19","561.855014841","1","1","2","149","3","right","in","Male","Right-handed","2","1","no","right","s","543.072613245","344.186113638","19","red","0"
"100","100","19","618.798336804","1","1","3","150","3","right","in","Male","Right-handed","2","1","no","right","d","748.342176874","489.254496735","19","red","2"
"100","100","19","594.860483725","1","1","3","151","1","left","in","Male","Right-handed","2","1","no","left","d","700.82758864","441.017672649","19","green","3"
"100","100","19","548.769253877","1","1","3","152","1","right","out","Male","Right-handed","2","1","no","right","d","552.51299271","360.660595652","19","green","2"
"100","100","19","544.350316459","1","1","3","153","2","left","in","Male","Right-handed","2","1","no","left","s","748.995781078","313.191227335","19","red","0"
"100","100","19","516.237285907","1","1","3","154","2","right","out","Male","Right-handed","2","1","no","right","s","414.715395138","392.854932259","19","green","2"
"100","100","19","508.195335079","1","1","3","155","3","right","out","Male","Right-handed","2","1","no","right","d","431.479156345","504.492005535","19","red","2"
"100","100","19","503.605039982","1","1","3","156","2","left","out","Male","Right-handed","2","1","no","left","s","591.046776959","361.079761842","19","red","2"
"100","100","19","500.427544703","1","1","3","157","3","left","out","Male","Right-handed","2","1","no","left","d","507.710958134","448.659197364","19","red","3"
"88","100","19","504.027726331","0","1","3","158","3","right","out","Male","Right-handed","2","1","no","left","d","414.342090282","651.316268428","19","red","2"
"90","100","19","497.819582149","1","1","3","159","3","left","out","Male","Right-handed","2","1","no","left","d","490.860926302","393.031642718","19","red","3"
"90","100","19","514.655845374","1","1","3","160","2","left","in","Male","Right-handed","2","1","no","left","d","845.543192238","520.493763019","19","green","0"
"91","100","19","521.32168573","1","1","3","161","0","right","in","Male","Right-handed","2","1","no","right","s","548.076630123","641.21522917","19","green","2"
"92","100","19","519.50928618","1","1","3","162","2","right","out","Male","Right-handed","2","1","no","right","d","506.76743332","488.753549844","19","green","3"
"92","100","19","516.651593361","1","1","3","163","2","right","in","Male","Right-handed","2","1","no","right","s","630.38746414","328.615709272","19","red","2"
"93","93","19","510.284912209","1","0","3","164","1","right","out","Male","Right-handed","2","1","no","right","s","457.118208393","385.184543768","19","red","3"
"93","93","19","520.087344998","1","1","3","165","1","right","out","Male","Right-handed","2","1","no","right","d","789.669333359","544.578340301","19","red","1"
"94","94","19","539.304890439","1","1","3","166","1","left","in","Male","Right-handed","2","1","no","left","d","1157.30085196","536.270383038","19","red","0"
"94","94","19","545.162876336","1","1","3","167","3","left","in","Male","Right-handed","2","1","no","left","d","736.838678744","552.65859443","19","green","3"
"94","94","19","547.892990668","1","1","3","168","0","right","in","Male","Right-handed","2","1","no","right","s","865.440597543","328.629499742","19","green","2"
"95","95","19","548.927614457","1","1","3","169","3","right","in","Male","Right-handed","2","1","no","right","s","721.060455182","416.110477712","19","green","1"
"95","95","19","551.230570497","1","1","3","170","2","right","in","Male","Right-handed","2","1","no","right","s","697.858788779","496.720593825","19","red","1"
"95","95","19","549.104340952","1","1","3","171","2","left","in","Male","Right-handed","2","1","no","left","s","640.434624347","368.472416651","19","green","1"
"95","95","19","555.422775208","1","1","3","172","0","left","in","Male","Right-handed","2","1","no","left","d","748.059311854","640.797345815","19","green","3"
"95","95","19","550.807651253","1","1","3","173","3","right","in","Male","Right-handed","2","1","no","right","s","488.674334811","400.645265779","19","red","3"
"96","96","19","564.429448109","1","1","3","174","0","left","out","Male","Right-handed","2","1","no","left","s","1398.26272131","384.44242398","19","green","0"
"96","96","19","559.943349286","1","1","3","175","1","left","in","Male","Right-handed","2","1","no","left","s","486.714805032","408.866952419","19","red","1"
"96","96","19","556.095492303","1","1","3","176","0","right","in","Male","Right-handed","2","1","no","right","s","591.604809988","320.497611523","19","red","2"
"96","96","19","552.383363423","1","1","3","177","0","right","in","Male","Right-handed","2","1","no","right","s","512.079651196","392.232116085","19","green","2"
"96","96","19","548.020976114","1","1","3","178","3","left","out","Male","Right-handed","2","1","no","left","s","490.990492593","360.75777037","19","red","2"
"96","96","19","546.000870189","1","1","3","179","0","right","out","Male","Right-handed","2","1","no","right","d","526.445153211","448.390443524","19","green","3"
"96","96","19","548.88782124","1","1","3","180","3","left","out","Male","Right-handed","2","1","no","left","d","781.976495264","489.016210218","19","green","0"
"96","96","19","544.673580744","1","1","3","181","2","left","out","Male","Right-handed","2","1","no","left","d","467.464910465","360.599340302","19","red","2"
"96","96","19","539.997347837","1","1","3","182","0","left","out","Male","Right-handed","2","1","no","left","s","460.428242244","320.287547365","19","red","2"
"97","97","19","536.333789023","1","1","3","183","0","left","out","Male","Right-handed","2","1","no","left","s","405.923809249","424.948887061","19","red","2"
"97","97","19","537.282993073","1","1","3","184","3","right","in","Male","Right-handed","2","1","no","right","d","690.549197509","448.562664063","19","green","0"
"97","97","19","534.362197823","1","1","3","185","3","left","in","Male","Right-handed","2","1","no","left","s","512.114287729","352.154440452","19","green","2"
"97","97","19","532.13012987","1","1","3","186","2","right","in","Male","Right-handed","2","1","no","right","d","454.798843524","448.752523576","19","green","3"
"97","97","19","533.558597393","1","1","3","187","1","left","in","Male","Right-handed","2","1","no","left","s","588.342882433","584.480909018","19","red","3"
"97","94","19","550.532357836","1","0","3","188","3","right","out","Male","Right-handed","2","1","no","right","s","823.130469084","1567.94004031","19","red","0"
"97","95","19","549.522051926","1","1","3","189","1","right","out","Male","Right-handed","2","1","no","right","d","651.622224466","368.618018374","19","green","2"
"97","95","19","550.697766174","1","1","3","190","3","left","in","Male","Right-handed","2","1","no","left","d","723.260195729","472.192476496","19","red","0"
"97","95","19","551.890023816","1","1","3","191","1","left","out","Male","Right-handed","2","1","no","left","s","833.84598609","367.699188126","19","green","3"
"97","95","19","549.020438351","1","1","3","192","0","right","in","Male","Right-handed","2","1","no","right","s","560.47041543","296.525282263","19","red","3"
"97","95","19","548.941635984","1","1","3","193","1","right","out","Male","Right-handed","2","1","no","right","s","787.113606224","303.992662186","19","green","0"
"97","93","19","546.39228261","1","0","3","194","2","right","out","Male","Right-handed","2","1","no","right","s","539.791763882","328.649704386","19","green","0"
"97","93","19","544.802822403","1","1","3","195","0","left","out","Male","Right-handed","2","1","no","left","s","546.217482148","400.336744069","19","green","1"
"97","93","19","542.912136103","1","1","3","196","2","right","out","Male","Right-handed","2","1","no","right","s","487.940232739","423.940899813","19","red","2"
"97","93","19","540.605351585","1","1","3","197","2","right","in","Male","Right-handed","2","1","no","right","s","503.65752166","360.715436829","19","green","3"
"97","93","19","539.87868574","1","1","3","198","0","left","out","Male","Right-handed","2","1","no","left","d","449.747361772","560.250088596","19","green","3"
"98","92","19","542.178833551","1","0","3","199","1","left","in","Male","Right-handed","2","1","no","left","d","445.892443944","863.879708604","19","green","2"
"98","92","19","540.779030837","1","1","3","200","3","left","in","Male","Right-handed","2","1","no","left","d","517.264227035","424.31356325","19","red","2"
"96","92","19","541.793994163","0","1","3","201","0","left","in","Male","Right-handed","2","1","no","right","d","598.967318187","588.146929455","19","red","0"
"96","92","19","544.894607426","1","1","3","202","2","right","in","Male","Right-handed","2","1","no","right","s","979.591385125","432.661609091","19","red","3"
"96","92","19","544.336525988","1","1","3","203","0","right","out","Male","Right-handed","2","1","no","right","s","677.160253295","352.356166186","19","red","1"
"96","92","19","546.418414857","1","1","3","204","0","left","out","Male","Right-handed","2","1","no","left","d","853.846659578","463.834167977","19","green","0"
"96","92","19","547.054614734","1","1","3","205","1","right","in","Male","Right-handed","2","1","no","right","d","707.54932098","456.54189497","19","red","2"
"96","92","19","547.907017451","1","1","3","206","1","right","out","Male","Right-handed","2","1","no","right","s","551.108930293","640.174208933","19","red","0"
"96","93","19","549.352920558","1","1","3","207","0","left","out","Male","Right-handed","2","1","no","left","d","567.756594972","695.78220035","19","green","0"
"96","91","19","551.091005941","1","0","3","208","2","left","out","Male","Right-handed","2","1","no","left","s","679.458130684","624.341785609","19","red","0"
"96","91","19","547.755346881","1","1","3","209","2","left","out","Male","Right-handed","2","1","no","left","s","389.940973575","311.961951127","19","green","2"
"96","91","19","547.531512187","1","1","3","210","3","left","in","Male","Right-handed","2","1","no","left","s","723.524138937","344.678722104","19","green","1"
"96","91","19","547.076632139","1","1","3","211","1","right","in","Male","Right-handed","2","1","no","right","s","582.354610747","456.303287743","19","green","2"
"96","92","19","548.748234734","1","1","3","212","1","right","out","Male","Right-handed","2","1","no","right","d","856.837267627","447.937923636","19","green","0"
"96","90","19","546.66522899","1","0","3","213","1","left","in","Male","Right-handed","2","1","no","left","s","542.418367624","288.453366558","19","red","2"
"100","100","19","530.827636746","1","1","4","214","0","right","in","Male","Right-handed","2","1","no","right","s","533.323391364","528.331882127","19","red","3"
"100","100","19","570.94732521","1","1","4","215","1","left","in","Male","Right-handed","2","1","no","left","d","549.036831784","673.097195564","19","red","3"
"100","100","19","513.393220326","1","1","4","216","2","right","out","Male","Right-handed","2","1","no","right","s","499.818639266","296.751381853","19","green","0"
"100","100","19","552.494030811","1","1","4","217","2","left","out","Male","Right-handed","2","1","no","left","d","803.217028346","536.375896181","19","green","0"
"100","100","19","549.571677579","1","1","4","218","0","left","out","Male","Right-handed","2","1","no","left","d","674.933252514","400.831276789","19","green","0"
"100","100","19","531.319817603","1","1","4","219","0","right","out","Male","Right-handed","2","1","no","right","s","503.64373119","376.477304251","19","red","3"
"100","100","19","558.652363978","1","1","4","220","2","right","out","Male","Right-handed","2","1","no","right","d","773.144179378","672.151105082","19","green","2"
"100","87","19","551.051202738","1","0","4","221","0","left","in","Male","Right-handed","2","1","no","left","s","650.841940351","344.844207761","19","red","0"
"100","88","19","556.927440205","1","1","4","222","1","right","in","Male","Right-handed","2","1","no","right","s","823.428086702","384.446593192","19","green","2"
"100","90","19","566.183791706","1","1","4","223","0","left","in","Male","Right-handed","2","1","no","left","s","723.013250079","575.968660352","19","red","2"
"100","90","19","561.405805905","1","1","4","224","3","right","in","Male","Right-handed","2","1","no","right","d","586.573853587","440.678042203","19","green","2"
"100","91","19","565.185487186","1","1","4","225","2","left","out","Male","Right-handed","2","1","no","left","s","877.177250854","336.346711694","19","green","0"
"100","92","19","565.087040941","1","1","4","226","2","right","out","Male","Right-handed","2","1","no","right","s","806.881124534","320.930247474","19","green","2"
"100","92","19","554.939416993","1","1","4","227","0","right","in","Male","Right-handed","2","1","no","right","s","557.5436284","288.496982934","19","red","3"
"100","93","19","547.120811478","1","1","4","228","0","right","out","Male","Right-handed","2","1","no","right","s","579.139827361","296.180841185","19","red","0"
"100","93","19","540.757888631","1","1","4","229","0","left","out","Male","Right-handed","2","1","no","left","s","537.684066714","352.944025117","19","red","1"
"100","88","19","538.006520384","1","0","4","230","3","right","out","Male","Right-handed","2","1","no","right","s","627.43534113","360.53391574","19","green","2"
"100","88","19","540.176213361","1","1","4","231","3","right","out","Male","Right-handed","2","1","no","right","d","538.007982437","616.114005507","19","red","0"
"94","89","19","534.117212762","0","1","4","232","1","left","out","Male","Right-handed","2","1","no","right","s","503.635392764","346.475011185","19","green","3"
"95","90","19","531.448400386","1","1","4","233","1","left","out","Male","Right-handed","2","1","no","left","d","545.296086233","416.185844242","19","green","2"
"95","90","19","529.565579533","1","1","4","234","3","right","in","Male","Right-handed","2","1","no","right","s","648.033815518","335.784509453","19","red","2"
"95","90","19","545.678538572","1","1","4","235","1","right","in","Male","Right-handed","2","1","no","right","d","423.432576623","1344.66878014","19","red","2"
"95","91","19","541.506969452","1","1","4","236","2","right","out","Male","Right-handed","2","1","no","right","d","499.196785216","400.26811242","19","green","2"
"91","91","19","541.783237575","0","1","4","237","2","left","in","Male","Right-handed","2","1","no","right","s","573.661803121","522.613005698","19","green","3"
"92","92","19","540.643373598","1","1","4","238","1","left","in","Male","Right-handed","2","1","no","left","d","586.286177939","440.287098372","19","red","3"
"92","92","19","554.829335515","1","1","4","239","2","left","out","Male","Right-handed","2","1","no","left","d","682.96058972","1135.99617715","19","red","1"
"92","92","19","550.912092396","1","1","4","240","3","left","in","Male","Right-handed","2","1","no","left","s","521.497260346","376.630282271","19","green","2"
"92","92","19","549.944511679","1","1","4","241","3","right","in","Male","Right-handed","2","1","no","right","s","703.340982234","344.298682368","19","green","0"
"93","93","19","545.127454313","1","1","4","242","3","right","out","Male","Right-handed","2","1","no","right","s","484.737956989","335.761739138","19","red","3"
"93","93","19","543.459013703","1","1","4","243","3","left","in","Male","Right-handed","2","1","no","left","s","605.547618017","384.600854048","19","green","3"
"93","93","19","542.239148397","1","1","4","244","1","left","out","Male","Right-handed","2","1","no","left","s","643.028515809","368.257862572","19","green","0"
"93","93","19","543.58417359","1","1","4","245","0","left","out","Male","Right-handed","2","1","no","left","d","562.684267155","607.875642019","19","red","3"
"93","90","19","540.365074305","1","0","4","246","3","left","in","Male","Right-handed","2","1","no","left","s","562.386649541","312.3211448","19","red","1"
"94","91","19","538.150410087","1","1","4","247","1","right","in","Male","Right-handed","2","1","no","right","d","530.046711214","400.086270623","19","green","1"
"94","91","19","540.135636846","1","1","4","248","1","left","in","Male","Right-handed","2","1","no","left","d","798.615180101","416.651513184","19","green","0"
"94","88","19","540.248301536","1","0","4","249","3","left","out","Male","Right-handed","2","1","no","left","d","488.299747121","600.083384246","19","green","2"
"94","89","19","536.833408722","1","1","4","250","3","right","out","Male","Right-handed","2","1","no","right","s","452.004509163","375.790025641","19","red","3"
"94","89","19","535.139467325","1","1","4","251","0","right","in","Male","Right-handed","2","1","no","right","s","632.55385099","312.373420309","19","green","2"
"94","89","19","534.178227905","1","1","4","252","2","right","out","Male","Right-handed","2","1","no","right","d","443.083677694","552.218582179","19","green","0"
"95","90","19","533.442286075","1","1","4","253","1","left","in","Male","Right-handed","2","1","no","left","d","601.737278692","407.743830769","19","green","3"
"95","90","19","533.722071313","1","1","4","254","0","right","out","Male","Right-handed","2","1","no","right","d","489.369951845","600.457009808","19","red","2"
"95","90","19","532.348406563","1","1","4","255","3","left","out","Male","Right-handed","2","1","no","left","s","432.001911424","520.054392184","19","red","1"
"95","88","19","531.552505393","1","0","4","256","0","right","in","Male","Right-handed","2","1","no","right","s","596.745128034","399.504184446","19","green","2"
"95","88","19","532.623962271","1","1","4","257","2","left","in","Male","Right-handed","2","1","no","left","d","701.148938695","456.244277357","19","red","3"
"95","88","19","533.207547842","1","1","4","258","3","right","in","Male","Right-handed","2","1","no","right","s","541.830187984","575.940437991","19","red","3"
"95","89","19","534.713074183","1","1","4","259","1","right","in","Male","Right-handed","2","1","no","right","s","749.43322766","455.490291348","19","red","2"
"95","89","19","534.44494359","1","1","4","260","1","right","in","Male","Right-handed","2","1","no","right","d","612.164478631","432.057394017","19","red","1"
"95","89","19","535.765383859","1","1","4","261","1","right","out","Male","Right-handed","2","1","no","right","s","859.881434017","335.770718981","19","green","2"
"95","89","19","535.184761392","1","1","4","262","2","left","out","Male","Right-handed","2","1","no","left","d","614.200657772","400.429108158","19","red","3"
"96","90","19","533.361972615","1","1","4","263","3","right","out","Male","Right-handed","2","1","no","right","s","560.000577274","328.090067815","19","green","2"
"96","90","19","532.827019288","1","1","4","264","0","left","in","Male","Right-handed","2","1","no","left","d","532.605966142","479.552739732","19","green","2"
"96","88","19","531.276684346","1","0","4","265","2","left","out","Male","Right-handed","2","1","no","left","s","512.248664649","392.170540025","19","red","2"
"96","88","19","529.211970165","1","1","4","266","2","left","in","Male","Right-handed","2","1","no","left","s","491.868272133","351.825393389","19","green","2"
"96","88","19","526.114152201","1","1","4","267","0","left","in","Male","Right-handed","2","1","no","left","s","380.324525069","343.535075102","19","red","2"
"96","89","19","524.642954345","1","1","4","268","0","right","in","Male","Right-handed","2","1","no","right","d","490.119447932","400.277092264","19","green","0"
"96","89","19","527.661938963","1","1","4","269","2","right","out","Male","Right-handed","2","1","no","right","d","835.684608712","551.727577255","19","red","1"
"96","89","19","528.876175323","1","1","4","270","0","left","in","Male","Right-handed","2","1","no","left","s","586.375976358","607.370846623","19","green","1"
"96","89","19","532.30059899","1","1","4","271","3","right","out","Male","Right-handed","2","1","no","right","d","543.038297423","911.947198529","19","red","0"
"96","89","19","532.815339962","1","1","4","272","1","right","in","Male","Right-handed","2","1","no","right","s","493.545899019","631.794733643","19","green","0"
"96","90","19","533.016900811","1","1","4","273","3","left","out","Male","Right-handed","2","1","no","left","d","482.45226653","607.365715284","19","red","0"
"96","90","19","532.424884057","1","1","4","274","1","right","in","Male","Right-handed","2","1","no","right","d","601.817135141","391.99062248","19","red","2"
"96","90","19","530.740352269","1","1","4","275","2","left","out","Male","Right-handed","2","1","no","left","s","504.398037905","351.569788605","19","red","2"
"96","90","19","529.396825702","1","1","4","276","2","left","in","Male","Right-handed","2","1","no","left","s","555.922125528","336.274231542","19","red","3"
"96","89","19","531.223035419","1","0","4","277","1","left","out","Male","Right-handed","2","1","no","left","s","940.735930111","351.812565043","19","green","0"
"100","100","19","533.568893828","1","1","5","278","1","right","in","Male","Right-handed","2","1","no","right","d","683.178992302","383.958795355","19","red","2"
"100","100","19","521.680224625","1","1","5","279","3","right","out","Male","Right-handed","2","1","no","right","d","634.819336807","384.763774035","19","green","1"
"100","100","19","562.570255236","1","1","5","280","2","left","in","Male","Right-handed","2","1","no","left","d","664.381296914","624.319336006","19","red","1"
"100","100","19","541.948128585","1","1","5","281","0","left","in","Male","Right-handed","2","1","no","left","s","536.017343922","424.14615334","19","red","3"
"100","80","19","534.804904918","1","0","5","282","1","right","out","Male","Right-handed","2","1","no","right","d","483.69950242","528.76451808","19","red","3"
"100","83","19","527.888769692","1","1","5","283","1","left","out","Male","Right-handed","2","1","no","left","s","522.392678864","464.223508263","19","green","2"
"100","85","19","517.311760638","1","1","5","284","0","right","out","Male","Right-handed","2","1","no","right","s","483.905076657","423.794335966","19","green","3"
"100","87","19","520.906615257","1","1","5","285","1","right","out","Male","Right-handed","2","1","no","right","s","619.615181705","472.526013478","19","red","0"
"100","88","19","526.7120897","1","1","5","286","1","right","out","Male","Right-handed","2","1","no","right","d","586.089904253","560.221866235","19","green","0"
"100","90","19","539.466020118","1","1","5","287","0","right","in","Male","Right-handed","2","1","no","right","d","772.74361429","535.75917347","19","green","2"
"100","90","19","539.678991062","1","1","5","288","3","left","out","Male","Right-handed","2","1","no","left","d","683.320424811","400.296976199","19","red","0"
"100","91","19","540.963446164","1","1","5","289","1","left","in","Male","Right-handed","2","1","no","left","d","694.125098818","416.059805748","19","green","3"
"100","84","19","542.590057761","1","0","5","290","3","left","in","Male","Right-handed","2","1","no","left","s","692.522838462","431.695955381","19","red","2"
"100","85","19","537.288128993","1","1","5","291","0","left","out","Male","Right-handed","2","1","no","left","s","488.398525382","448.327584632","19","red","2"
"100","86","19","534.389683445","1","1","5","292","3","left","in","Male","Right-handed","2","1","no","left","s","507.701336874","479.921554668","19","red","2"
"100","87","19","535.213918675","1","1","5","293","3","right","in","Male","Right-handed","2","1","no","right","d","495.565722018","599.589172234","19","red","2"
"100","88","19","550.442742991","1","1","5","294","3","left","in","Male","Right-handed","2","1","no","left","d","572.156076065","1016.05178803","19","green","1"
"100","88","19","547.903082206","1","1","5","295","1","right","out","Male","Right-handed","2","1","no","right","d","633.734700194","375.722997535","19","green","1"
"100","89","19","547.112352085","1","1","5","296","1","left","in","Male","Right-handed","2","1","no","left","d","593.508215752","472.250204051","19","green","3"
"100","90","19","565.335517359","1","1","5","297","3","right","in","Male","Right-handed","2","1","no","right","s","535.102041471","1288.04927367","19","green","2"
"100","90","19","560.12835676","1","1","5","298","2","right","in","Male","Right-handed","2","1","no","right","s","488.525846711","423.44444284","19","red","2"
"100","90","19","562.265859006","1","1","5","299","2","left","out","Male","Right-handed","2","1","no","left","d","686.102572243","528.204240089","19","green","0"
"100","91","19","557.248973854","1","1","5","300","2","right","in","Male","Right-handed","2","1","no","right","s","469.870866667","423.884134385","19","green","0"
"100","91","19","552.485966324","1","1","5","301","0","left","in","Male","Right-handed","2","1","no","left","s","446.400446426","439.47313985","19","red","2"
"96","92","19","549.770529762","0","1","5","302","2","left","in","Male","Right-handed","2","1","no","right","d","406.111744511","563.08836004","19","green","3"
"96","88","19","550.000918954","1","0","5","303","2","left","out","Male","Right-handed","2","1","no","left","d","511.674916896","599.846380563","19","red","3"
"92","85","19","548.7501242","0","0","5","304","0","left","out","Male","Right-handed","2","1","no","right","s","550.341474522","482.11744671","19","green","0"
"92","85","19","547.342848759","1","1","5","305","1","left","out","Male","Right-handed","2","1","no","left","d","554.830112616","463.862711045","19","green","0"
"93","82","19","555.625928984","1","0","5","306","1","left","out","Male","Right-handed","2","1","no","left","d","527.625360999","1047.47898958","19","red","2"
"93","83","19","551.977735337","1","1","5","307","3","right","out","Male","Right-handed","2","1","no","right","d","468.159244667","424.200994518","19","red","3"
"93","83","19","554.808309602","1","1","5","308","1","left","out","Male","Right-handed","2","1","no","left","d","455.768025028","823.683050066","19","green","2"
"93","81","19","551.092318587","1","0","5","309","2","left","out","Male","Right-handed","2","1","no","left","s","504.367570584","367.425623659","19","green","3"
"93","81","19","549.937551711","1","1","5","310","1","right","out","Male","Right-handed","2","1","no","right","s","634.005057575","391.964965789","19","green","1"
"94","82","19","546.397564765","1","1","5","311","3","right","in","Male","Right-handed","2","1","no","right","s","443.641069305","415.514921771","19","green","0"
"94","82","19","543.820579094","1","1","5","312","2","right","out","Male","Right-handed","2","1","no","right","s","560.207113638","352.199018953","19","green","2"
"94","83","19","543.434225598","1","1","5","313","0","left","in","Male","Right-handed","2","1","no","left","s","539.920688754","519.903017708","19","green","2"
"94","81","19","541.274235226","1","0","5","314","0","left","in","Male","Right-handed","2","1","no","left","d","479.51585824","447.513305398","19","red","2"
"94","81","19","543.664324903","1","1","5","315","1","left","out","Male","Right-handed","2","1","no","left","s","776.040499088","488.154786817","19","green","3"
"94","82","19","549.601287209","1","1","5","316","0","left","in","Male","Right-handed","2","1","no","left","d","1150.70932733","399.702382385","19","green","0"
"95","82","19","551.106669296","1","1","5","317","3","left","out","Male","Right-handed","2","1","no","left","s","548.357891597","671.275249791","19","red","3"
"95","82","19","551.550616486","1","1","5","318","0","left","out","Male","Right-handed","2","1","no","left","d","730.884402175","407.732605967","19","red","1"
"95","83","19","548.372239491","1","1","5","319","2","right","in","Male","Right-handed","2","1","no","right","s","452.449652752","383.66791262","19","red","0"
"95","83","19","548.345219877","1","1","5","320","0","right","out","Male","Right-handed","2","1","no","right","d","646.22758447","448.193207712","19","red","2"
"95","84","19","548.187340201","1","1","5","321","0","right","out","Male","Right-handed","2","1","no","right","d","714.931071696","367.865956618","19","green","1"
"95","84","19","546.592771833","1","1","5","322","3","left","in","Male","Right-handed","2","1","no","left","s","497.366180312","455.497346937","19","red","3"
"95","84","19","545.234482286","1","1","5","323","1","right","in","Male","Right-handed","2","1","no","right","s","608.128360425","360.094544907","19","red","2"
"95","85","19","544.105680593","1","1","5","324","3","right","out","Male","Right-handed","2","1","no","right","s","632.694642081","351.666963323","19","green","0"
"95","85","19","544.29812781","1","1","5","325","0","right","in","Male","Right-handed","2","1","no","right","s","755.252485893","351.433808142","19","red","3"
"95","85","19","542.689235522","1","1","5","326","3","right","in","Male","Right-handed","2","1","no","right","s","578.938101629","351.986709833","19","green","2"
"96","86","19","540.928826735","1","1","5","327","0","right","in","Male","Right-handed","2","1","no","right","d","509.579406658","399.758185687","19","red","0"
"96","86","19","538.355278451","1","1","5","328","2","right","in","Male","Right-handed","2","1","no","right","d","452.177691828","367.17803659","19","green","0"
"96","86","19","536.365426893","1","1","5","329","3","right","out","Male","Right-handed","2","1","no","right","d","437.864465323","431.901529621","19","red","2"
"96","86","19","533.3975507","1","1","5","330","2","left","in","Male","Right-handed","2","1","no","left","d","430.508050589","327.627926666","19","green","2"
"96","87","19","537.789591734","1","1","5","331","3","left","out","Male","Right-handed","2","1","no","left","s","1141.97771396","399.157819118","19","red","0"
"96","85","19","537.416062167","1","0","5","332","2","right","in","Male","Right-handed","2","1","no","right","s","482.898692952","551.592238209","19","red","2"
"96","85","19","537.210654949","1","1","5","333","0","right","out","Male","Right-handed","2","1","no","right","s","508.39919887","543.427317","19","red","3"
"96","84","19","539.953322264","1","0","5","334","3","right","out","Male","Right-handed","2","1","no","right","s","459.963535428","927.121848437","19","red","3"
"96","84","19","540.922745657","1","1","5","335","2","left","in","Male","Right-handed","2","1","no","left","s","760.66636841","431.693389713","19","red","1"
"96","84","19","540.309477313","1","1","5","336","2","right","out","Male","Right-handed","2","1","no","right","d","490.266332489","519.213494136","19","red","2"
"96","85","19","540.942827271","1","1","5","337","1","left","out","Male","Right-handed","2","1","no","left","d","620.783843982","535.837105668","19","red","0"
"96","85","19","539.739186066","1","1","5","338","2","left","in","Male","Right-handed","2","1","no","left","s","535.456745225","399.584682315","19","green","2"
"96","85","19","544.566805135","1","1","5","339","2","right","in","Male","Right-handed","2","1","no","right","s","639.015809333","1039.08732736","19","green","3"
"96","85","19","547.037417051","1","1","5","340","1","right","in","Male","Right-handed","2","1","no","right","d","656.672744095","743.757967604","19","green","2"
"96","85","19","548.150756411","1","1","5","341","0","left","out","Male","Right-handed","2","1","no","left","s","789.218737724","447.363534465","19","green","0"
"100","100","19","481.039063916","1","1","6","342","0","right","in","Male","Right-handed","2","1","no","right","d","586.456474226","375.621653606","19","red","2"
"100","50","19","608.171816446","1","0","6","343","2","right","out","Male","Right-handed","2","1","no","right","d","478.367400608","992.241737342","19","red","0"
"100","66","19","569.259275295","1","1","6","344","1","left","in","Male","Right-handed","2","1","no","left","d","518.844679202","464.023706784","19","red","2"
"100","75","19","546.084307887","1","1","6","345","0","left","out","Male","Right-handed","2","1","no","left","d","529.654805259","423.464006068","19","green","3"
"100","80","19","548.508175665","1","1","6","346","3","right","out","Male","Right-handed","2","1","no","right","d","604.231750474","512.175543079","19","green","1"
"83","83","19","533.138583013","0","1","6","347","1","left","in","Male","Right-handed","2","1","no","right","d","517.790509912","394.790729597","19","red","3"
"85","85","19","520.970038254","1","1","6","348","0","left","out","Male","Right-handed","2","1","no","left","d","408.420525994","487.497013401","19","green","2"
"87","87","19","506.799544273","1","1","6","349","3","left","in","Male","Right-handed","2","1","no","left","s","423.105133101","392.107039714","19","red","2"
"88","88","19","503.854490215","1","1","6","350","3","right","out","Male","Right-handed","2","1","no","right","s","520.727559615","439.860555885","19","green","0"
"90","90","19","525.156064841","1","1","6","351","3","left","out","Male","Right-handed","2","1","no","left","d","866.397592121","567.34288083","19","red","0"
"90","90","19","542.457392035","1","1","6","352","1","right","in","Male","Right-handed","2","1","no","right","s","1086.92647274","344.014855223","19","green","2"
"91","91","19","533.392477351","1","1","6","353","2","right","out","Male","Right-handed","2","1","no","right","s","499.71152258","367.645309074","19","green","0"
"92","92","19","531.800050006","1","1","6","354","1","right","out","Male","Right-handed","2","1","no","right","d","642.1593954","383.222448322","19","red","2"
"92","92","19","537.795318249","1","1","6","355","0","left","out","Male","Right-handed","2","1","no","left","d","759.736954777","471.730656058","19","green","0"
"93","93","19","528.478178717","1","1","6","356","2","left","out","Male","Right-handed","2","1","no","left","s","436.527751719","359.548698805","19","green","2"
"93","87","19","525.897633411","1","0","6","357","2","left","in","Male","Right-handed","2","1","no","left","s","614.225352338","360.153555295","19","green","1"
"94","82","19","534.651077963","1","0","6","358","3","right","in","Male","Right-handed","2","1","no","right","d","557.730280829","791.68210077","19","red","2"
"94","83","19","536.347887626","1","1","6","359","1","left","in","Male","Right-handed","2","1","no","left","s","747.128936096","383.25836769","19","green","3"
"94","84","19","536.561881871","1","1","6","360","1","left","out","Male","Right-handed","2","1","no","left","d","616.866708681","463.96084789","19","red","0"
"95","85","19","546.715871389","1","1","6","361","0","left","out","Male","Right-handed","2","1","no","left","d","727.629850918","751.653493558","19","red","0"
"95","85","19","543.712709508","1","1","6","362","2","right","in","Male","Right-handed","2","1","no","right","s","632.127949917","335.170993829","19","green","1"
"95","86","19","542.31056579","1","1","6","363","0","left","out","Male","Right-handed","2","1","no","left","s","561.752287854","463.978807575","19","red","3"
"95","86","19","539.377756918","1","1","6","364","3","left","in","Male","Right-handed","2","1","no","left","s","542.385655343","407.326268123","19","red","2"
"95","87","19","534.891536339","1","1","6","365","2","right","out","Male","Right-handed","2","1","no","right","d","432.225445344","431.191480695","19","red","3"
"96","88","19","536.523999429","1","1","6","366","0","right","out","Male","Right-handed","2","1","no","right","d","591.743356121","559.662871081","19","red","2"
"96","88","19","536.648116139","1","1","6","367","0","left","out","Male","Right-handed","2","1","no","left","d","680.275617003","399.226450765","19","red","3"
"96","88","19","533.875033979","1","1","6","368","2","left","in","Male","Right-handed","2","1","no","left","s","619.669060757","303.880734871","19","red","0"
"96","85","19","530.473912299","1","0","6","369","2","left","in","Male","Right-handed","2","1","no","left","d","445.666023646","431.621230271","19","red","2"
"96","86","19","529.569585231","1","1","6","370","3","right","out","Male","Right-handed","2","1","no","right","d","649.201515669","359.29533898","19","red","0"
"96","86","19","529.746094971","1","1","6","371","0","left","in","Male","Right-handed","2","1","no","left","d","493.854420729","575.875334138","19","red","2"
"96","87","19","525.560157724","1","1","6","372","1","right","in","Male","Right-handed","2","1","no","right","d","464.4290825","335.534998132","19","green","0"
"96","87","19","523.312155539","1","1","6","373","0","right","in","Male","Right-handed","2","1","no","right","s","540.074949609","367.173225959","19","red","2"
"96","84","19","522.22023966","1","0","6","374","1","left","out","Male","Right-handed","2","1","no","left","s","494.811094594","479.746768458","19","green","1"
"97","82","19","518.962539627","1","0","6","375","3","right","out","Male","Right-handed","2","1","no","right","d","431.469855792","391.447021339","19","red","2"
"97","82","19","522.533140083","1","1","6","376","2","left","in","Male","Right-handed","2","1","no","left","d","888.912942037","398.954169131","19","green","3"
"97","83","19","521.452160694","1","1","6","377","1","right","in","Male","Right-handed","2","1","no","right","d","543.669131313","423.566632831","19","red","2"
"97","83","19","518.959891614","1","1","6","378","3","right","out","Male","Right-handed","2","1","no","right","d","475.152617223","383.323792252","19","green","3"
"97","84","19","521.945277654","1","1","6","379","0","right","in","Male","Right-handed","2","1","no","right","s","705.979452197","558.829670039","19","green","1"
"97","84","19","520.165604073","1","1","6","380","3","right","out","Male","Right-handed","2","1","no","right","s","569.525944528","335.550071439","19","red","3"
"97","85","19","519.013800894","1","1","6","381","0","right","in","Male","Right-handed","2","1","no","right","s","565.168796975","383.018156919","19","green","3"
"97","85","19","515.437333747","1","1","6","382","1","left","in","Male","Right-handed","2","1","no","left","s","424.916495489","319.840800233","19","green","2"
"97","85","19","512.592746838","1","1","6","383","1","right","in","Male","Right-handed","2","1","no","right","s","496.381925503","295.547441626","19","green","3"
"97","83","19","510.267311768","1","0","6","384","0","left","out","Male","Right-handed","2","1","no","left","s","466.131083242","359.06699443","19","red","2"
"97","84","19","509.572762886","1","1","6","385","1","left","out","Male","Right-handed","2","1","no","left","s","615.635828929","343.778492959","19","green","1"
"97","84","19","508.833698496","1","1","6","386","1","right","out","Male","Right-handed","2","1","no","right","s","649.250263383","303.379467272","19","green","0"
"97","84","19","506.750711154","1","1","6","387","2","right","in","Male","Right-handed","2","1","no","right","s","474.995149281","351.037412265","19","green","2"
"97","85","19","505.566529591","1","1","6","388","3","right","in","Male","Right-handed","2","1","no","right","d","486.633986456","415.554368934","19","red","3"
"97","85","19","508.172885474","1","1","6","389","3","left","out","Male","Right-handed","2","1","no","left","d","454.150049949","807.193174036","19","red","2"
"97","85","19","506.144329163","1","1","6","390","1","right","out","Male","Right-handed","2","1","no","right","s","482.851228075","334.696024336","19","red","3"
"98","86","19","505.100258331","1","1","6","391","2","left","in","Male","Right-handed","2","1","no","left","d","500.459415125","407.422160004","19","red","2"
"98","86","19","502.591363524","1","1","6","392","2","left","in","Male","Right-handed","2","1","no","left","s","403.157697249","351.13554911","19","green","2"
"98","86","19","502.172027003","1","1","6","393","1","left","out","Male","Right-handed","2","1","no","left","d","514.828124224","446.743604669","19","green","0"
"98","84","19","501.949424429","1","0","6","394","3","left","out","Male","Right-handed","2","1","no","left","d","557.345430463","423.402750719","19","green","0"
"98","83","19","502.819328848","1","0","6","395","0","right","out","Male","Right-handed","2","1","no","right","s","570.898898206","526.949627898","19","green","1"
"98","83","19","502.305653117","1","1","6","396","1","right","in","Male","Right-handed","2","1","no","right","d","589.550671164","359.583656047","19","red","2"
"98","83","19","501.348273431","1","1","6","397","3","right","out","Male","Right-handed","2","1","no","right","d","426.229155945","471.15562547","19","green","1"
"98","84","19","500.874687798","1","1","6","398","0","right","in","Male","Right-handed","2","1","no","right","s","461.763673011","486.94411171","19","red","0"
"98","84","19","498.997213208","1","1","6","399","2","left","in","Male","Right-handed","2","1","no","left","s","384.461666499","399.500656651","19","green","2"
"98","83","19","506.413308474","1","0","6","400","2","left","in","Male","Right-handed","2","1","no","left","d","1034.07817914","839.015488624","19","green","3"
"98","83","19","504.66741178","1","1","6","401","3","left","out","Male","Right-handed","2","1","no","left","s","468.589314951","334.729698741","19","red","3"
"98","83","19","502.851946251","1","1","6","402","0","right","out","Male","Right-handed","2","1","no","right","s","436.523261798","351.324767205","19","green","0"
"98","82","19","501.927383909","1","0","6","403","2","right","in","Male","Right-handed","2","1","no","right","d","444.100003367","446.958158747","19","red","0"
"98","82","19","501.613599696","1","1","6","404","3","left","in","Male","Right-handed","2","1","no","left","d","572.615330835","391.702626122","19","green","2"
"98","82","19","500.969998308","1","1","6","405","2","right","in","Male","Right-handed","2","1","no","right","d","489.457826012","431.388395798","19","green","3"
"100","0","19","540.664091376","1","0","7","406","3","left","in","Male","Right-handed","2","1","no","left","s","745.530844955","335.797337797","19","green","0"
"100","50","19","461.699130399","1","1","7","407","1","left","in","Male","Right-handed","2","1","no","left","d","398.237385327","367.230953516","19","green","2"
"100","66","19","449.74249769","1","1","7","408","2","left","in","Male","Right-handed","2","1","no","left","d","467.848157289","383.810307256","19","red","2"
"100","75","19","444.092987866","1","1","7","409","2","left","out","Male","Right-handed","2","1","no","left","d","486.556054256","367.732862533","19","red","0"
"100","80","19","438.903721664","1","1","7","410","0","right","in","Male","Right-handed","2","1","no","right","s","525.248909991","311.044403716","19","red","0"
"100","66","19","442.404951314","1","0","7","411","0","right","out","Male","Right-handed","2","1","no","right","s","535.930752591","383.891446542","19","green","2"
"100","71","19","440.848178135","1","1","7","412","2","right","in","Male","Right-handed","2","1","no","right","d","471.484672533","391.530405583","19","green","3"
"100","75","19","430.577123212","1","1","7","413","0","right","out","Male","Right-handed","2","1","no","right","s","398.133475728","319.226001773","19","green","3"
"100","77","19","433.429759731","1","1","7","414","1","right","in","Male","Right-handed","2","1","no","right","d","568.800501589","343.701202175","19","green","2"
"90","80","19","462.677804878","0","1","7","415","2","right","out","Male","Right-handed","2","1","no","left","s","545.576385582","906.244036824","19","green","1"
"90","81","19","457.978873756","1","1","7","416","1","right","in","Male","Right-handed","2","1","no","right","d","453.99450626","367.984618813","19","red","0"
"91","83","19","471.246212297","1","1","7","417","3","right","in","Male","Right-handed","2","1","no","right","s","450.770422325","783.603450183","19","green","0"
"92","84","19","469.707736985","1","1","7","418","2","left","out","Male","Right-handed","2","1","no","left","s","463.239894873","439.2521716","19","red","2"
"92","85","19","465.799275794","1","1","7","419","2","right","out","Male","Right-handed","2","1","no","right","d","430.022818419","399.955742206","19","green","2"
"93","80","19","459.845985022","1","0","7","420","1","left","in","Male","Right-handed","2","1","no","left","d","449.47187305","303.527955371","19","red","2"
"93","81","19","456.085135716","1","1","7","421","3","right","in","Male","Right-handed","2","1","no","right","s","416.190334161","383.154458092","19","green","2"
"94","82","19","458.068232272","1","1","7","422","0","left","out","Male","Right-handed","2","1","no","left","s","587.791584283","391.803970053","19","green","1"
"94","77","19","465.202569375","1","0","7","423","1","left","in","Male","Right-handed","2","1","no","left","s","797.491096326","375.481503932","19","green","3"
"94","78","19","467.295854815","1","1","7","424","0","left","out","Male","Right-handed","2","1","no","left","d","386.86730199","623.082683496","19","green","2"
"95","80","19","466.018105606","1","1","7","425","1","right","in","Male","Right-handed","2","1","no","right","d","475.698142614","407.783598639","19","red","0"
"95","80","19","464.084053458","1","1","7","426","2","left","in","Male","Right-handed","2","1","no","left","s","475.328044848","375.477976135","19","red","0"
"95","81","19","464.036928725","1","1","7","427","0","left","out","Male","Right-handed","2","1","no","left","s","543.028676164","383.065942507","19","red","2"
"95","82","19","463.887816955","1","1","7","428","1","left","in","Male","Right-handed","2","1","no","left","d","497.644876117","423.569839919","19","red","1"
"95","83","19","463.695321182","1","1","7","429","3","right","in","Male","Right-handed","2","1","no","right","s","543.259907092","375.275929695","19","red","3"
"96","84","19","469.900089638","1","1","7","430","1","right","out","Male","Right-handed","2","1","no","right","s","702.822717074","534.806348107","19","red","2"
"96","84","19","467.366052028","1","1","7","431","1","left","out","Male","Right-handed","2","1","no","left","s","456.488336627","351.541886954","19","red","2"
"96","85","19","468.635793946","1","1","7","432","3","right","out","Male","Right-handed","2","1","no","right","d","444.091664942","559.206502688","19","green","3"
"96","82","19","465.997198839","1","0","7","433","3","left","out","Male","Right-handed","2","1","no","left","s","502.704696297","286.805565578","19","green","2"
"96","82","19","467.045263214","1","1","7","434","3","right","out","Male","Right-handed","2","1","no","right","d","609.39644238","383.385689018","19","green","0"
"96","83","19","468.313008423","1","1","7","435","3","right","out","Male","Right-handed","2","1","no","right","d","515.067693576","495.087545441","19","red","2"
"96","83","19","467.935002084","1","1","7","436","1","right","in","Male","Right-handed","2","1","no","right","d","545.530524247","367.659099545","19","green","0"
"96","84","19","465.49188086","1","1","7","437","3","left","in","Male","Right-handed","2","1","no","left","s","452.261717492","327.248528349","19","red","2"
"96","84","19","464.139919931","1","1","7","438","1","left","out","Male","Right-handed","2","1","no","left","d","450.748934847","391.005405545","19","green","3"
"97","85","19","465.137310932","1","1","7","439","0","left","out","Male","Right-handed","2","1","no","left","s","661.611977826","334.490450099","19","red","0"
"97","85","19","463.16821191","1","1","7","440","2","left","out","Male","Right-handed","2","1","no","left","s","465.140734968","327.296955353","19","green","3"
"97","86","19","464.173629162","1","1","7","441","0","right","out","Male","Right-handed","2","1","no","right","s","527.85306413","470.87340187","19","green","1"
"97","86","19","466.968713529","1","1","7","442","0","left","out","Male","Right-handed","2","1","no","left","s","503.506147183","631.677354282","19","red","2"
"97","86","19","475.064097419","1","1","7","443","1","right","out","Male","Right-handed","2","1","no","right","d","454.087511767","1095.09909095","19","red","0"
"97","84","19","473.157369549","1","0","7","444","2","right","out","Male","Right-handed","2","1","no","right","s","490.672349624","310.731071375","19","green","0"
"97","85","19","476.08847309","1","1","7","445","3","right","out","Male","Right-handed","2","1","no","right","s","653.382273471","527.420748888","19","red","2"
"97","85","19","473.317678841","1","1","7","446","0","left","in","Male","Right-handed","2","1","no","left","d","397.900641257","327.071176471","19","green","2"
"97","85","19","471.695225389","1","1","7","447","2","left","out","Male","Right-handed","2","1","no","left","s","427.561379624","382.787888117","19","red","2"
"95","86","19","471.416324301","0","1","7","448","0","left","out","Male","Right-handed","2","1","no","right","s","557.192773153","362.212184042","19","green","3"
"95","86","19","469.356573922","1","1","7","449","1","right","out","Male","Right-handed","2","1","no","right","d","442.782532284","318.792082986","19","red","2"
"95","86","19","467.781157691","1","1","7","450","0","right","in","Male","Right-handed","2","1","no","right","d","438.365412216","358.560274784","19","red","3"
"95","86","19","467.016852611","1","1","7","451","2","left","in","Male","Right-handed","2","1","no","left","s","402.18242228","463.06382583","19","green","2"
"95","87","19","467.478833998","1","1","7","452","3","left","in","Male","Right-handed","2","1","no","left","d","634.660265321","342.799690195","19","green","1"
"95","87","19","467.583168436","1","1","7","453","3","left","in","Male","Right-handed","2","1","no","left","d","514.484965981","430.488808069","19","red","1"
"95","87","19","467.125119664","1","1","7","454","3","left","out","Male","Right-handed","2","1","no","left","s","515.126703965","375.150853326","19","red","3"
"96","88","19","466.456025233","1","1","7","455","1","right","in","Male","Right-handed","2","1","no","right","s","460.68384703","406.656949195","19","green","3"
"96","86","19","467.098736663","1","0","7","456","2","left","in","Male","Right-handed","2","1","no","left","s","623.166067742","375.302548511","19","green","1"
"96","84","19","465.556283934","1","0","7","457","3","right","in","Male","Right-handed","2","1","no","right","s","422.850169735","350.932219833","19","green","0"
"96","84","19","466.818973014","1","1","7","458","0","right","out","Male","Right-handed","2","1","no","right","s","594.455589069","470.502021266","19","red","3"
"96","85","19","467.890565067","1","1","7","459","1","right","in","Male","Right-handed","2","1","no","right","d","626.063028869","423.306858836","19","red","1"
"96","85","19","471.360374611","1","1","7","460","0","left","in","Male","Right-handed","2","1","no","left","s","814.702566793","502.757613223","19","red","0"
"96","85","19","470.191718478","1","1","7","461","3","left","in","Male","Right-handed","2","1","no","left","s","509.291410301","302.539852057","19","red","2"
"96","85","19","468.942837146","1","1","7","462","2","right","out","Male","Right-handed","2","1","no","right","s","462.970499615","335.040465414","19","red","0"
"96","86","19","468.586984283","1","1","7","463","2","right","in","Male","Right-handed","2","1","no","right","s","505.763935993","390.842806264","19","red","3"
"96","86","19","468.168901258","1","1","7","464","2","right","out","Male","Right-handed","2","1","no","right","s","529.363601814","358.476569829","19","red","2"
"96","86","19","468.025388899","1","1","7","465","0","right","in","Male","Right-handed","2","1","no","right","d","440.044321933","479.071997485","19","red","0"
"96","86","19","466.363476081","1","1","7","466","0","left","in","Male","Right-handed","2","1","no","left","d","382.626892382","350.670521586","19","green","2"
"96","87","19","466.869597644","1","1","7","467","2","left","out","Male","Right-handed","2","1","no","left","s","613.190746273","382.295279651","19","green","3"
"96","87","19","466.442020447","1","1","7","468","1","right","in","Male","Right-handed","2","1","no","right","s","480.916713572","398.947754959","19","green","3"
"96","87","19","465.154803554","1","1","7","469","3","left","out","Male","Right-handed","2","1","no","left","d","425.591587171","342.528691397","19","green","3"
"100","100","19","473.534321437","1","1","8","470","3","right","in","Male","Right-handed","2","1","no","right","d","531.993412644","415.07523023","19","red","2"
"100","100","19","464.110699001","1","1","8","471","1","left","out","Male","Right-handed","2","1","no","left","d","413.660905137","495.713247992","19","red","2"
"100","66","19","639.490297762","1","0","8","472","1","left","in","Male","Right-handed","2","1","no","left","s","989.258505595","991.240484975","19","green","0"
"100","75","19","581.065602555","1","1","8","473","2","right","out","Male","Right-handed","2","1","no","right","s","404.775993033","406.807040838","19","red","0"
"100","80","19","542.332866702","1","1","8","474","3","left","in","Male","Right-handed","2","1","no","left","d","423.363624264","351.440222315","19","green","2"
"100","66","19","567.440456432","1","0","8","475","0","right","in","Male","Right-handed","2","1","no","right","s","986.92118104","399.035629125","19","green","0"
"100","71","19","560.25904553","1","1","8","476","1","right","out","Male","Right-handed","2","1","no","right","s","594.666294645","439.674865582","19","green","2"
"100","75","19","559.2554308","1","1","8","477","3","right","in","Male","Right-handed","2","1","no","right","s","777.154320185","327.305935194","19","red","2"
"100","66","19","550.390489492","1","0","8","478","1","left","out","Male","Right-handed","2","1","no","left","s","519.98992975","438.951988313","19","red","1"
"100","70","19","557.859414161","1","1","8","479","1","left","in","Male","Right-handed","2","1","no","left","d","514.583744241","735.575728128","19","red","1"
"100","72","19","549.516509862","1","1","8","480","2","left","out","Male","Right-handed","2","1","no","left","d","485.086567278","447.088366454","19","red","2"
"100","75","19","559.667040292","1","1","8","481","0","right","in","Male","Right-handed","2","1","no","right","s","783.839491742","558.806258308","19","green","0"
"100","76","19","549.297296537","1","1","8","482","2","left","out","Male","Right-handed","2","1","no","left","d","474.354373424","375.36636953","19","red","1"
"100","78","19","547.917970977","1","1","8","483","3","left","out","Male","Right-handed","2","1","no","left","d","724.973100563","335.000376834","19","red","3"
"100","80","19","541.937229836","1","1","8","484","2","right","out","Male","Right-handed","2","1","no","right","d","404.737507997","511.67619973","19","green","0"
"100","81","19","544.360669335","1","1","8","485","0","left","in","Male","Right-handed","2","1","no","left","s","546.21684073","615.207682895","19","red","2"
"100","82","19","550.101829709","1","1","8","486","1","left","in","Male","Right-handed","2","1","no","left","s","836.991496412","446.929294969","19","green","3"
"100","83","19","548.816148606","1","1","8","487","2","right","out","Male","Right-handed","2","1","no","right","d","624.397268202","429.521871527","19","red","1"
"100","84","19","554.602308207","1","1","8","488","0","right","out","Male","Right-handed","2","1","no","right","d","694.234781173","623.271580886","19","green","1"
"100","80","19","558.510597015","1","0","8","489","3","left","out","Male","Right-handed","2","1","no","left","d","562.768292819","702.767875899","19","green","2"
"100","80","19","560.28593924","1","1","8","490","1","right","out","Male","Right-handed","2","1","no","right","d","568.171912657","623.413654812","19","red","3"
"100","81","19","556.108581157","1","1","8","491","1","right","in","Male","Right-handed","2","1","no","right","s","529.940235947","406.827886898","19","red","0"
"100","82","19","553.129331963","1","1","8","492","2","left","in","Male","Right-handed","2","1","no","left","s","568.720003719","406.451695666","19","green","0"
"100","83","19","549.843066573","1","1","8","493","1","left","in","Male","Right-handed","2","1","no","left","d","589.242149454","359.275775754","19","red","3"
"100","84","19","547.243236655","1","1","8","494","2","left","in","Male","Right-handed","2","1","no","left","s","618.804430269","350.890207002","19","green","0"
"100","84","19","541.795236909","1","1","8","495","0","right","out","Male","Right-handed","2","1","no","right","d","451.576363133","359.614123366","19","green","2"
"100","85","19","537.588234221","1","1","8","496","0","right","in","Male","Right-handed","2","1","no","right","d","481.137040404","375.275288277","19","red","2"
"100","82","19","534.989140576","1","0","8","497","1","left","out","Male","Right-handed","2","1","no","left","s","450.809228071","478.817996243","19","green","2"
"100","82","19","540.071294636","1","1","8","498","3","left","out","Male","Right-handed","2","1","no","left","d","949.36716168","415.376054931","19","green","0"
"100","83","19","538.3023021","1","1","8","499","3","right","in","Male","Right-handed","2","1","no","right","d","599.035949836","374.967087277","19","red","3"
"100","83","19","539.876643043","1","1","8","500","2","right","in","Male","Right-handed","2","1","no","right","d","607.655956601","566.557786083","19","green","2"
"100","84","19","537.513144043","1","1","8","501","0","right","in","Male","Right-handed","2","1","no","right","s","665.164146698","263.325203368","19","red","0"
"100","84","19","537.267062878","1","1","8","502","2","right","in","Male","Right-handed","2","1","no","right","s","587.914736401","470.870194782","19","red","2"
"100","85","19","536.33455778","1","1","8","503","0","right","out","Male","Right-handed","2","1","no","right","d","580.618935601","430.504843502","19","red","1"
"100","82","19","535.601013714","1","0","8","504","3","right","out","Male","Right-handed","2","1","no","right","d","614.089371875","407.231659074","19","green","1"
"100","83","19","537.396199531","1","1","8","505","3","right","in","Male","Right-handed","2","1","no","right","s","529.68687612","670.768530144","19","green","2"
"100","81","19","537.408339629","1","0","8","506","0","right","in","Male","Right-handed","2","1","no","right","s","541.320581959","534.370184359","19","green","2"
"100","81","19","535.900192433","1","1","8","507","3","left","in","Male","Right-handed","2","1","no","left","s","593.128176017","367.069316361","19","green","0"
"100","82","19","535.211123524","1","1","8","508","1","left","out","Male","Right-handed","2","1","no","left","s","579.433275765","438.619734164","19","green","3"
"100","82","19","532.873549394","1","1","8","509","2","right","out","Male","Right-handed","2","1","no","right","s","549.200713896","334.215602796","19","red","2"
"100","82","19","529.360848413","1","1","8","510","1","right","out","Male","Right-handed","2","1","no","right","s","450.950339871","326.755278464","19","green","2"
"100","83","19","528.747066184","1","1","8","511","2","right","out","Male","Right-handed","2","1","no","right","s","448.592169256","558.571820294","19","green","3"
"100","83","19","530.359111259","1","1","8","512","0","left","in","Male","Right-handed","2","1","no","left","s","478.105060944","718.024947924","19","red","3"
"100","84","19","528.26726298","1","1","8","513","3","right","out","Male","Right-handed","2","1","no","right","d","445.811304659","430.824269306","19","red","0"
"100","84","19","528.514144409","1","1","8","514","2","right","out","Male","Right-handed","2","1","no","right","s","584.363850365","494.390004152","19","red","2"
"100","84","19","528.256424962","1","1","8","515","3","left","out","Male","Right-handed","2","1","no","left","s","522.060104006","511.257995666","19","green","2"
"100","85","19","525.532355015","1","1","8","516","2","left","in","Male","Right-handed","2","1","no","left","s","457.720178507","342.730096421","19","red","2"
"100","85","19","523.663887726","1","1","8","517","1","right","out","Male","Right-handed","2","1","no","right","s","457.371568216","414.320282096","19","green","2"
"100","85","19","525.702156382","1","1","8","518","1","right","in","Male","Right-handed","2","1","no","right","d","615.969686619","631.108417159","19","green","0"
"100","86","19","527.041017031","1","1","8","519","3","left","out","Male","Right-handed","2","1","no","left","d","562.669193851","622.621183767","19","green","0"
"100","86","19","524.985828294","1","1","8","520","2","right","in","Male","Right-handed","2","1","no","right","s","454.240169078","390.212613791","19","red","3"
"100","86","19","523.598712947","1","1","8","521","1","left","out","Male","Right-handed","2","1","no","left","s","570.817438211","334.894222273","19","red","0"
"100","86","19","522.11665462","1","1","8","522","1","left","in","Male","Right-handed","2","1","no","left","s","507.692036323","382.407206964","19","red","2"
"100","87","19","522.126069021","1","1","8","523","0","left","out","Male","Right-handed","2","1","no","left","s","711.106621191","334.143443352","19","red","0"
"100","87","19","521.627220233","1","1","8","524","0","left","in","Male","Right-handed","2","1","no","left","d","510.633896658","478.744874675","19","green","3"
"100","85","19","519.943235144","1","0","8","525","0","left","out","Male","Right-handed","2","1","no","left","s","504.282903505","350.365206962","19","red","3"
"100","85","19","518.285830335","1","1","8","526","0","right","in","Male","Right-handed","2","1","no","right","s","477.007916692","373.934405463","19","green","2"
"100","86","19","515.678267527","1","1","8","527","0","left","in","Male","Right-handed","2","1","no","left","s","455.506647488","278.587727444","19","red","2"
"100","84","19","514.179963912","1","0","8","528","3","left","out","Male","Right-handed","2","1","no","left","s","504.287072716","350.269635786","19","green","3"
"100","85","19","515.032768405","1","1","8","529","0","right","out","Male","Right-handed","2","1","no","right","d","509.026184256","621.670282657","19","red","3"
"100","85","19","514.778779782","1","1","8","530","3","left","in","Male","Right-handed","2","1","no","left","s","528.485822273","470.59310252","19","green","3"
"100","85","19","517.428753153","1","1","8","531","3","left","out","Male","Right-handed","2","1","no","left","d","704.015111791","654.139145856","19","green","1"
"100","85","19","516.226446973","1","1","8","532","2","right","in","Male","Right-handed","2","1","no","right","d","468.678471951","414.688455612","19","green","3"
"100","85","19","514.262073477","1","1","8","533","2","left","in","Male","Right-handed","2","1","no","left","s","438.493054253","342.520032263","19","red","3"
dis_reply=No
dis_loc=2
tar_loc=1
