"acc_1","acc_2","age","avg_rt","correct_1","correct_2","count_block_loop","count_trial_sequence","cue_position","detection","dis_shape","gender","hand","high_loc","low_loc","practice","response_keyboard_response_1","response_keyboard_response_2","response_time_keyboard_response_1","response_time_keyboard_response_2","subject_nr","tar_color","tar_position"
"100","100","20","1035.40727109","1","1","0","0","0","right","in","Female","Right-handed","2","3","yes","right","d","853.955329716","1216.85921247","8","green","0"
"100","50","20","1678.88094018","1","0","0","1","1","right","out","Female","Right-handed","2","3","yes","right","None","1644.50235821","3000.20686032","8","red","2"
"100","66","20","1358.90506426","1","1","0","2","0","right","in","Female","Right-handed","2","3","yes","right","s","723.988677524","713.91794733","8","green","0"
"100","75","20","1233.95573702","1","1","0","3","2","left","out","Female","Right-handed","2","3","yes","left","s","812.639390182","905.576120429","8","green","0"
"100","60","20","1184.60657732","1","0","0","4","1","left","in","Female","Right-handed","2","3","yes","left","s","917.240797602","1057.17907946","8","red","2"
"100","66","20","1076.17246506","1","1","0","5","3","left","in","Female","Right-handed","2","3","yes","left","s","634.263574046","433.740233466","8","red","0"
"100","71","20","1054.76962633","1","1","0","6","2","right","in","Female","Right-handed","2","3","yes","right","s","1195.29923548","657.405952317","8","red","2"
"100","75","20","1014.3583714","1","1","0","7","0","left","out","Female","Right-handed","2","3","yes","left","s","1021.09077287","441.868400915","8","green","1"
"100","66","20","982.430520767","1","0","0","8","2","left","out","Female","Right-handed","2","3","yes","left","s","980.583993951","473.43143751","8","green","3"
"100","70","20","977.250736519","1","1","0","9","2","right","in","Female","Right-handed","2","3","yes","right","s","1332.13781965","529.127536925","8","red","1"
"100","72","20","1021.14733511","1","1","0","10","3","left","in","Female","Right-handed","2","3","yes","left","s","1622.68003743","1297.54660451","8","red","3"
"100","75","20","1034.77565223","1","1","0","11","2","left","in","Female","Right-handed","2","3","yes","left","d","1416.11348902","953.260792176","8","red","2"
"100","76","20","1019.62395186","1","1","0","12","3","left","in","Female","Right-handed","2","3","yes","left","s","713.807621825","961.799473132","8","green","0"
"100","78","20","1025.64205504","1","1","0","13","0","left","out","Female","Right-handed","2","3","yes","left","d","1310.41010941","897.344683176","8","red","2"
"100","80","20","1031.35372816","1","1","0","14","2","right","in","Female","Right-handed","2","3","yes","right","s","1124.81727338","1097.81703028","8","green","1"
"100","81","20","1038.07753317","1","1","0","15","1","right","out","Female","Right-handed","2","3","yes","right","d","908.445545704","1369.42367111","8","green","3"
"100","82","20","1019.33706332","1","1","0","16","1","left","out","Female","Right-handed","2","3","yes","left","d","581.008747145","857.970344247","8","red","0"
"100","77","20","1018.59823072","1","0","0","17","3","left","in","Female","Right-handed","2","3","yes","left","d","1018.52281846","993.553334364","8","red","1"
"100","78","20","1011.07745043","1","1","0","18","0","right","in","Female","Right-handed","2","3","yes","right","s","598.286875819","1153.11993473","8","green","3"
"100","80","20","1010.23402156","1","1","0","19","0","left","in","Female","Right-handed","2","3","yes","left","d","786.716103611","1201.70164263","8","green","1"
"100","80","20","998.521494674","1","1","0","20","1","left","out","Female","Right-handed","2","3","yes","left","d","647.308282174","881.233631576","8","green","3"
"100","81","20","1015.17179786","1","1","0","21","3","right","out","Female","Right-handed","2","3","yes","right","s","1231.83044766","1497.82588198","8","green","2"
"100","0","20","934.062871427","1","0","1","22","1","right","out","Female","Right-handed","2","3","no","right","s","714.559374685","1153.56636817","8","red","1"
"100","50","20","936.063643705","1","1","1","23","3","left","in","Female","Right-handed","2","3","no","left","s","834.990567811","1041.13826416","8","red","1"
"100","66","20","992.764485621","1","1","1","24","1","left","in","Female","Right-handed","2","3","no","left","d","1274.7198085","937.612530412","8","red","2"
"100","75","20","951.394960177","1","1","1","25","0","left","in","Female","Right-handed","2","3","no","left","d","541.269436051","1113.30333164","8","red","2"
"100","80","20","1000.86589486","1","1","1","26","3","left","in","Female","Right-handed","2","3","no","left","s","539.694731892","1857.80453528","8","green","3"
"100","83","20","969.869377595","1","1","1","27","1","right","out","Female","Right-handed","2","3","no","right","d","428.42280069","1201.35078187","8","green","3"
"100","85","20","989.316729589","1","1","1","28","2","right","in","Female","Right-handed","2","3","no","right","d","1099.02676227","1112.97492083","8","green","2"
"100","87","20","968.545965967","1","1","1","29","1","right","in","Female","Right-handed","2","3","no","right","d","556.593456286","1089.70778494","8","red","0"
"100","77","20","963.886695564","1","0","1","30","1","left","out","Female","Right-handed","2","3","no","left","d","1020.15172323","833.073341445","8","green","1"
"100","80","20","998.510188753","1","1","1","31","2","right","out","Female","Right-handed","2","3","no","right","d","874.673112584","1745.57014233","8","red","2"
"100","72","20","988.387453378","1","0","1","32","3","right","in","Female","Right-handed","2","3","no","right","d","565.238934897","1209.08126436","8","green","0"
"100","75","20","965.418005379","1","1","1","33","0","right","in","Female","Right-handed","2","3","no","right","s","847.819756347","577.688398439","8","green","1"
"100","76","20","955.073169839","1","1","1","34","3","left","in","Female","Right-handed","2","3","no","left","s","684.441473924","977.428812789","8","green","0"
"100","78","20","944.348937947","1","1","1","35","0","left","in","Female","Right-handed","2","3","no","left","s","671.92305694","937.944789782","8","red","2"
"100","80","20","939.168911128","1","1","1","36","3","right","out","Female","Right-handed","2","3","no","right","d","499.691152728","1233.60591858","8","green","0"
"100","81","20","955.66454119","1","1","1","37","3","right","in","Female","Right-handed","2","3","no","right","s","917.058952947","1489.1390313","8","red","2"
"100","82","20","966.141615614","1","1","1","38","2","right","out","Female","Right-handed","2","3","no","right","s","593.789187203","1673.7604256","8","green","2"
"100","83","20","973.174171687","1","1","1","39","2","left","in","Female","Right-handed","2","3","no","left","s","984.266749112","1201.18850075","8","red","1"
"100","78","20","958.521686507","1","0","1","40","0","left","out","Female","Right-handed","2","3","no","left","s","547.83059647","841.723310048","8","red","2"
"100","80","20","951.014954558","1","1","1","41","0","right","in","Female","Right-handed","2","3","no","right","s","615.386366974","1001.38772808","8","green","0"
"100","76","20","955.851669985","1","0","1","42","1","right","out","Female","Right-handed","2","3","no","right","s","752.174278378","1352.99767867","8","red","2"
"100","77","20","963.97326315","1","1","1","43","0","left","in","Female","Right-handed","2","3","no","left","d","1235.57317628","1033.48026296","8","green","3"
"100","73","20","958.023850444","1","0","1","44","1","right","out","Female","Right-handed","2","3","no","right","d","533.106631526","1121.1669103","8","red","2"
"100","75","20","956.550906936","1","1","1","45","0","right","in","Female","Right-handed","2","3","no","right","s","651.701097419","1193.64531505","8","red","2"
"100","76","20","957.096290433","1","1","1","46","1","right","out","Female","Right-handed","2","3","no","right","s","595.213797359","1345.15719139","8","red","0"
"100","76","20","958.722077372","1","1","1","47","2","left","in","Female","Right-handed","2","3","no","left","s","709.879199986","1288.8543017","8","red","0"
"100","77","20","958.075381541","1","1","1","48","0","right","in","Female","Right-handed","2","3","no","right","s","513.215969232","1369.30661061","8","red","0"
"100","75","20","996.415022421","1","0","1","49","2","right","out","Female","Right-handed","2","3","no","right","None","1063.04300835","3000.12764404","8","green","1"
"100","75","20","987.825083955","1","1","1","50","3","right","in","Female","Right-handed","2","3","no","right","s","565.342525415","929.271088368","8","green","0"
"100","76","20","984.578514878","1","1","1","51","2","left","out","Female","Right-handed","2","3","no","left","d","803.890962481","976.96506081","8","green","3"
"100","77","20","994.108272482","1","1","1","52","2","right","out","Female","Right-handed","2","3","no","right","s","1542.4195153","1017.58248595","8","green","1"
"100","78","20","989.794309481","1","1","1","53","1","right","in","Female","Right-handed","2","3","no","right","d","567.098112088","1145.02480079","8","red","0"
"100","78","20","983.517387026","1","1","1","54","2","right","out","Female","Right-handed","2","3","no","right","s","523.631145917","1041.68059099","8","green","2"
"100","79","20","976.392563314","1","1","1","55","0","right","in","Female","Right-handed","2","3","no","right","d","425.256715263","1057.29004639","8","green","3"
"100","80","20","992.533011288","1","1","1","56","0","left","out","Female","Right-handed","2","3","no","left","s","849.856608915","2232.7598759","8","green","1"
"100","80","20","990.444135526","1","1","1","57","2","right","out","Female","Right-handed","2","3","no","right","d","873.313928018","961.353039693","8","green","1"
"100","81","20","985.470166512","1","1","1","58","0","left","out","Female","Right-handed","2","3","no","left","d","723.944098323","888.87046567","8","red","0"
"100","78","20","994.811785296","1","0","1","59","3","right","out","Female","Right-handed","2","3","no","right","s","975.558731334","1705.3446293","8","red","2"
"100","79","20","992.839483281","1","1","1","60","1","left","out","Female","Right-handed","2","3","no","left","s","683.076195797","1152.70781765","8","green","1"
"100","80","20","989.719615266","1","1","1","61","1","left","out","Female","Right-handed","2","3","no","left","s","695.554202856","1040.53532244","8","green","2"
"100","80","20","987.265887424","1","1","1","62","1","right","in","Female","Right-handed","2","3","no","right","d","617.210907087","1161.02264046","8","red","2"
"100","78","20","985.419829324","1","0","1","63","2","right","in","Female","Right-handed","2","3","no","right","s","562.710107548","1256.75278684","8","red","0"
"97","76","20","1004.36827319","0","0","1","64","2","left","out","Female","Right-handed","2","3","no","right","None","600.268565634","3000.13726545","8","red","3"
"97","77","20","1000.93564207","1","1","1","65","0","left","out","Female","Right-handed","2","3","no","left","d","601.860267617","1104.80473989","8","red","2"
"97","75","20","1022.07620128","1","0","1","66","0","left","out","Female","Right-handed","2","3","no","left","None","904.397818377","3000.12379548","8","green","1"
"97","76","20","1018.37410492","1","1","1","67","2","right","out","Female","Right-handed","2","3","no","right","d","686.784608052","1016.77492891","8","red","2"
"97","74","20","1020.56467962","1","0","1","68","1","right","in","Female","Right-handed","2","3","no","right","d","633.332221526","1609.33000988","8","green","2"
"97","72","20","1016.92466545","1","0","1","69","2","left","in","Female","Right-handed","2","3","no","left","d","730.800956753","960.887042718","8","green","0"
"97","73","20","1014.53732595","1","1","1","70","1","left","in","Female","Right-handed","2","3","no","left","d","662.54506829","1137.34499106","8","green","0"
"98","74","20","1009.52784853","1","1","1","71","2","left","in","Female","Right-handed","2","3","no","left","s","447.036701831","1081.09020842","8","green","0"
"98","74","20","1006.4316141","1","1","1","72","1","left","out","Female","Right-handed","2","3","no","left","s","654.590406941","1048.64937849","8","red","3"
"98","73","20","1003.87023389","1","0","1","73","0","right","out","Female","Right-handed","2","3","no","right","s","769.298464487","977.18122183","8","green","1"
"98","73","20","1009.72600232","1","1","1","74","1","right","out","Female","Right-handed","2","3","no","right","d","667.80958331","1960.64233818","8","red","1"
"98","74","20","1005.04037476","1","1","1","75","0","left","in","Female","Right-handed","2","3","no","left","s","569.201993812","944.202234348","8","green","0"
"98","74","20","1002.2372024","1","1","1","76","3","left","out","Female","Right-handed","2","3","no","left","d","548.832826713","1152.898963","8","green","1"
"98","75","20","998.286023064","1","1","1","77","3","left","out","Female","Right-handed","2","3","no","left","d","545.526268694","1016.41605031","8","red","2"
"98","75","20","992.98368498","1","1","1","78","3","left","out","Female","Right-handed","2","3","no","left","d","471.064570567","921.04093397","8","red","2"
"98","75","20","986.512165101","1","1","1","79","3","left","in","Female","Right-handed","2","3","no","left","s","778.58857759","456.682486403","8","green","1"
"98","74","20","982.558704165","1","0","1","80","3","left","out","Female","Right-handed","2","3","no","left","s","577.160503726","929.355436065","8","green","1"
"98","75","20","981.988519413","1","1","1","81","3","right","in","Female","Right-handed","2","3","no","right","s","631.828074378","1264.8671636","8","red","3"
"98","73","20","980.567566575","1","0","1","82","3","right","in","Female","Right-handed","2","3","no","right","d","646.372439664","1144.24835298","8","green","2"
"98","74","20","976.421867537","1","1","1","83","0","left","in","Female","Right-handed","2","3","no","left","s","693.967953008","753.10049948","8","red","2"
"98","74","20","972.353437387","1","1","1","84","2","left","out","Female","Right-handed","2","3","no","left","d","487.717307569","952.504228609","8","red","2"
"98","75","20","971.203043709","1","1","1","85","3","left","in","Female","Right-handed","2","3","no","left","s","517.230021622","1280.22646234","8","red","2"
"100","0","20","752.581103679","1","0","2","86","2","left","in","Female","Right-handed","2","3","no","left","s","727.625249916","777.536957441","8","green","0"
"100","0","20","761.621380826","1","0","2","87","0","right","in","Female","Right-handed","2","3","no","right","d","740.222562463","801.100753484","8","red","2"
"100","33","20","754.66119914","1","1","2","88","3","right","out","Female","Right-handed","2","3","no","right","s","567.812982874","913.668688659","8","red","3"
"100","50","20","756.825508668","1","1","2","89","0","left","in","Female","Right-handed","2","3","no","left","d","501.350204584","1025.28666992","8","green","0"
"100","40","20","826.932604586","1","0","2","90","2","right","in","Female","Right-handed","2","3","no","right","d","853.881244857","1360.84073166","8","green","1"
"100","50","20","857.173477663","1","1","2","91","3","right","in","Female","Right-handed","2","3","no","right","s","815.38950997","1201.36617612","8","red","1"
"100","57","20","852.799340173","1","1","2","92","1","right","out","Female","Right-handed","2","3","no","right","s","660.022655215","993.086375251","8","green","2"
"100","62","20","834.585466347","1","1","2","93","2","left","out","Female","Right-handed","2","3","no","left","d","548.54739154","865.629307586","8","red","2"
"100","66","20","837.097478499","1","1","2","94","0","left","out","Female","Right-handed","2","3","no","left","s","657.069844383","1057.31730706","8","green","0"
"100","70","20","819.113011803","1","1","2","95","2","left","in","Female","Right-handed","2","3","no","left","s","521.72354096","792.782082111","8","green","2"
"100","72","20","803.189211798","1","1","2","96","1","right","in","Female","Right-handed","2","3","no","right","s","510.50016581","777.402257696","8","red","0"
"100","66","20","823.393200421","1","0","2","97","2","right","in","Female","Right-handed","2","3","no","right","s","866.173558696","1225.10059185","8","green","1"
"100","69","20","824.600616491","1","1","2","98","1","right","in","Female","Right-handed","2","3","no","right","d","740.649432368","937.529786282","8","green","1"
"100","71","20","821.100424066","1","1","2","99","1","left","in","Female","Right-handed","2","3","no","left","d","534.113993186","1017.0818519","8","red","1"
"100","66","20","821.645233372","1","0","2","100","3","left","out","Female","Right-handed","2","3","no","left","d","697.735376578","960.809750722","8","green","0"
"100","68","20","829.526879575","1","1","2","101","0","left","out","Female","Right-handed","2","3","no","left","d","614.270924803","1281.23222044","8","red","1"
"100","64","20","856.691064551","1","0","2","102","3","right","out","Female","Right-handed","2","3","no","right","d","549.917159658","2032.71888869","8","green","2"
"100","66","20","859.784781879","1","1","2","103","3","right","in","Female","Right-handed","2","3","no","right","d","759.283859186","1065.47209374","8","green","1"
"100","68","20","854.920441571","1","1","2","104","3","right","out","Female","Right-handed","2","3","no","right","s","533.673974021","1001.05065801","8","red","2"
"100","70","20","849.905750268","1","1","2","105","0","right","out","Female","Right-handed","2","3","no","right","d","515.653072469","993.600158561","8","red","2"
"100","71","20","848.38993945","1","1","2","106","0","right","out","Female","Right-handed","2","3","no","right","s","819.126145026","817.02130116","8","red","1"
"100","72","20","845.31847393","1","1","2","107","1","right","in","Female","Right-handed","2","3","no","right","d","744.748794597","816.886601417","8","green","1"
"100","73","20","850.73083954","1","1","2","108","3","left","out","Female","Right-handed","2","3","no","left","s","818.280743773","1121.32502215","8","red","3"
"100","75","20","845.779616465","1","1","2","109","1","left","in","Female","Right-handed","2","3","no","left","s","486.965233995","976.83773748","8","red","2"
"100","76","20","846.188670725","1","1","2","110","2","left","in","Female","Right-handed","2","3","no","left","d","871.548399222","840.463546721","8","green","0"
"100","76","20","842.148323514","1","1","2","111","1","left","out","Female","Right-handed","2","3","no","left","s","553.115957879","929.163328572","8","green","0"
"100","77","20","838.152151367","1","1","2","112","1","right","out","Female","Right-handed","2","3","no","right","d","635.654829979","832.848521157","8","red","1"
"100","75","20","841.549128158","1","0","2","113","1","left","out","Female","Right-handed","2","3","no","left","s","593.226013983","1273.30898903","8","red","3"
"100","75","20","847.505910366","1","1","2","114","3","left","out","Female","Right-handed","2","3","no","left","d","739.851496739","1288.74012763","8","green","2"
"100","73","20","843.304166562","1","0","2","115","3","right","in","Female","Right-handed","2","3","no","right","s","554.470011026","888.437181491","8","red","0"
"100","74","20","844.987001061","1","1","2","116","3","right","in","Female","Right-handed","2","3","no","right","s","765.922953029","1025.021119","8","green","1"
"100","75","20","841.959691061","1","1","2","117","3","left","in","Female","Right-handed","2","3","no","left","d","511.579688049","984.646474106","8","green","2"
"100","75","20","839.511284641","1","1","2","118","3","right","out","Female","Right-handed","2","3","no","right","s","689.15885141","833.165706985","8","green","1"
"100","76","20","837.490299826","1","1","2","119","0","left","in","Female","Right-handed","2","3","no","left","d","636.752312184","904.843289676","8","red","3"
"100","77","20","838.498199559","1","1","2","120","1","left","in","Female","Right-handed","2","3","no","left","s","593.25776464","1152.27581633","8","red","2"
"100","77","20","834.957400671","1","1","2","121","0","right","in","Female","Right-handed","2","3","no","right","d","597.099914497","824.958964686","8","red","2"
"100","78","20","832.177848181","1","1","2","122","2","left","in","Female","Right-handed","2","3","no","left","d","607.576026779","856.651890319","8","red","3"
"100","78","20","829.506258424","1","1","2","123","0","left","in","Female","Right-handed","2","3","no","left","d","588.156172167","873.158702598","8","red","0"
"100","76","20","828.526336933","1","0","2","124","0","right","in","Female","Right-handed","2","3","no","right","d","693.862758921","888.715881678","8","green","2"
"100","75","20","824.022753353","1","0","2","125","2","left","out","Female","Right-handed","2","3","no","left","s","432.373031059","864.392956357","8","green","3"
"100","75","20","824.594422745","1","1","2","126","0","right","in","Female","Right-handed","2","3","no","right","d","605.916333499","1089.00606341","8","red","1"
"100","76","20","821.056257211","1","1","2","127","1","right","in","Female","Right-handed","2","3","no","right","s","543.521166783","808.461773815","8","red","2"
"100","76","20","816.755619713","1","1","2","128","2","left","out","Female","Right-handed","2","3","no","left","s","543.169664592","729.088025","8","green","0"
"100","77","20","812.390753259","1","1","2","129","1","left","out","Female","Right-handed","2","3","no","left","s","528.7564712","720.646520289","8","red","0"
"100","77","20","810.991320989","1","1","2","130","1","left","out","Female","Right-handed","2","3","no","left","d","538.494300598","960.338301616","8","green","2"
"100","78","20","812.979336223","1","1","2","131","3","left","out","Female","Right-handed","2","3","no","left","d","659.878013346","1145.00203012","8","red","0"
"100","78","20","818.87414255","1","1","2","132","0","right","out","Female","Right-handed","2","3","no","right","s","779.516722974","1400.55374424","8","green","1"
"100","77","20","819.420827446","1","0","2","133","3","left","in","Female","Right-handed","2","3","no","left","d","449.072912972","1241.15712212","8","red","2"
"100","77","20","811.558918892","1","1","2","134","2","left","in","Female","Right-handed","2","3","no","left","s","523.688232952","344.686383716","8","green","0"
"100","78","20","809.712547538","1","1","2","135","2","right","out","Female","Right-handed","2","3","no","right","d","558.282334514","880.198367824","8","red","2"
"100","78","20","808.21629265","1","1","2","136","1","left","in","Female","Right-handed","2","3","no","left","s","601.906450385","864.900646111","8","green","3"
"100","78","20","813.337657869","1","1","2","137","3","right","out","Female","Right-handed","2","3","no","right","d","524.459870059","1624.59469809","8","green","2"
"100","79","20","811.340163946","1","1","2","138","2","left","out","Female","Right-handed","2","3","no","left","d","526.979717424","887.961242393","8","green","1"
"100","79","20","811.428517874","1","1","2","139","0","right","out","Female","Right-handed","2","3","no","right","s","623.668797702","1008.5537545","8","green","2"
"100","80","20","810.542281346","1","1","2","140","2","right","in","Female","Right-handed","2","3","no","right","s","541.146923426","984.224094191","8","green","2"
"100","80","20","810.199947453","1","1","2","141","3","right","out","Female","Right-handed","2","3","no","right","d","549.808437721","1032.93472899","8","red","0"
"100","80","20","807.574812007","1","1","2","142","1","left","out","Female","Right-handed","2","3","no","left","s","592.528782448","728.605671628","8","red","2"
"100","81","20","806.970670867","1","1","2","143","2","right","out","Female","Right-handed","2","3","no","right","d","513.142525801","1031.9267259","8","green","2"
"100","81","20","811.387506084","1","1","2","144","0","left","out","Female","Right-handed","2","3","no","left","s","1094.63971988","1040.48817753","8","red","3"
"100","81","20","813.726812668","1","1","2","145","2","right","out","Female","Right-handed","2","3","no","right","d","535.282994542","1368.20880769","8","green","2"
"100","81","20","813.51448374","1","1","2","146","1","right","in","Female","Right-handed","2","3","no","right","d","736.810489645","864.739006416","8","red","0"
"100","82","20","812.594327324","1","1","2","147","0","left","in","Female","Right-handed","2","3","no","left","s","704.514622299","808.414949619","8","green","2"
"100","80","20","823.449159231","1","0","2","148","2","right","out","Female","Right-handed","2","3","no","right","s","736.91985301","2255.97762188","8","red","1"
"98","79","20","837.921793108","0","0","2","149","0","left","in","Female","Right-handed","2","3","no","right","None","499.310144878","3000.08530984","8","red","0"
"100","100","20","787.576738765","1","1","3","150","1","right","out","Female","Right-handed","2","3","no","right","d","694.193094008","880.960383522","8","green","2"
"100","100","20","772.420932853","1","1","3","151","0","right","out","Female","Right-handed","2","3","no","right","s","585.686676848","928.843577036","8","red","1"
"100","66","20","723.894066989","1","0","3","152","0","right","out","Female","Right-handed","2","3","no","right","d","428.284252381","825.396418142","8","red","2"
"100","50","20","752.15744091","1","0","3","153","3","right","in","Female","Right-handed","2","3","no","right","s","712.990764088","960.904361256","8","green","1"
"100","60","20","735.627120318","1","1","3","154","2","left","in","Female","Right-handed","2","3","no","left","s","586.490706039","752.520969863","8","green","1"
"100","66","20","717.391196281","1","1","3","155","0","right","in","Female","Right-handed","2","3","no","right","s","491.252855152","761.170297037","8","green","2"
"100","71","20","723.091984989","1","1","3","156","0","right","in","Female","Right-handed","2","3","no","right","s","481.814572331","1032.77886215","8","green","2"
"100","75","20","733.371557058","1","1","3","157","0","left","in","Female","Right-handed","2","3","no","left","d","801.414732174","809.242390907","8","red","3"
"100","66","20","730.812448993","1","0","3","158","0","right","out","Female","Right-handed","2","3","no","right","d","523.774504929","896.904664012","8","red","2"
"100","60","20","740.733074496","1","0","3","159","0","right","out","Female","Right-handed","2","3","no","right","s","571.60862925","1088.42877879","8","red","1"
"90","54","20","833.401169135","0","0","3","160","1","left","in","Female","Right-handed","2","3","no","right","None","520.06994124","3000.09428982","8","green","2"
"91","58","20","846.987851793","1","1","3","161","0","left","in","Female","Right-handed","2","3","no","left","d","568.42041458","1424.46230748","8","red","2"
"92","53","20","827.536836556","1","0","3","162","1","right","in","Female","Right-handed","2","3","no","right","d","467.154108695","721.095198723","8","red","3"
"92","57","20","819.791809174","1","1","3","163","3","right","in","Female","Right-handed","2","3","no","right","d","525.64234139","912.570565028","8","red","2"
"93","60","20","833.584815618","1","1","3","164","1","left","out","Female","Right-handed","2","3","no","left","s","669.160750034","1384.21306164","8","red","0"
"93","62","20","829.225990011","1","1","3","165","3","right","in","Female","Right-handed","2","3","no","right","d","566.863991102","960.823220697","8","red","3"
"94","64","20","821.875981832","1","1","3","166","2","right","out","Female","Right-handed","2","3","no","right","s","488.247126566","920.304575366","8","green","2"
"94","66","20","819.882370063","1","1","3","167","3","right","in","Female","Right-handed","2","3","no","right","s","547.001872326","1024.98006764","8","red","1"
"94","63","20","818.632634197","1","0","3","168","3","right","in","Female","Right-handed","2","3","no","right","d","799.588909209","792.685868008","8","red","1"
"95","60","20","811.458329993","1","0","3","169","3","left","out","Female","Right-handed","2","3","no","left","s","525.134972351","825.158127878","8","green","0"
"95","61","20","829.162833756","1","1","3","170","1","right","out","Female","Right-handed","2","3","no","right","s","829.698792128","1536.80702594","8","green","1"
"95","59","20","826.625101397","1","0","3","171","1","right","out","Female","Right-handed","2","3","no","right","d","570.351431634","976.314012045","8","green","3"
"95","60","20","826.460845922","1","1","3","172","2","left","in","Female","Right-handed","2","3","no","left","s","732.871163542","912.823287404","8","red","2"
"95","62","20","832.292049519","1","1","3","173","2","left","out","Female","Right-handed","2","3","no","left","s","892.389656856","1040.42980764","8","red","0"
"96","64","20","828.420812265","1","1","3","174","3","left","in","Female","Right-handed","2","3","no","left","d","606.018320448","865.003915915","8","red","0"
"96","65","20","830.448059458","1","1","3","175","0","left","in","Female","Right-handed","2","3","no","left","d","489.699959526","1272.55851902","8","red","3"
"96","66","20","828.471296161","1","1","3","176","3","right","out","Female","Right-handed","2","3","no","right","s","578.090252677","976.06064824","8","red","2"
"96","67","20","831.001599811","1","1","3","177","2","right","in","Female","Right-handed","2","3","no","right","s","573.771201578","1224.86839514","8","red","2"
"96","68","20","829.962628894","1","1","3","178","0","right","out","Female","Right-handed","2","3","no","right","s","657.346941001","944.395945409","8","red","1"
"96","70","20","824.39693","1","1","3","179","3","left","in","Female","Right-handed","2","3","no","left","d","428.962241096","897.021083076","8","red","3"
"96","70","20","828.38855778","1","1","3","180","3","right","in","Female","Right-handed","2","3","no","right","s","791.704163439","1104.57061891","8","green","1"
"96","71","20","824.053885631","1","1","3","181","2","right","in","Female","Right-handed","2","3","no","right","d","619.173354082","760.184743907","8","red","0"
"96","69","20","818.954728426","1","0","3","182","3","right","out","Female","Right-handed","2","3","no","right","s","510.861930838","800.701464956","8","green","0"
"97","70","20","817.801673001","1","1","3","183","2","left","out","Female","Right-handed","2","3","no","left","s","559.372761018","1000.1289269","8","green","0"
"97","68","20","818.218236678","1","0","3","184","1","left","out","Female","Right-handed","2","3","no","left","s","623.872130174","1040.8906732","8","green","2"
"97","69","20","815.712000935","1","1","3","185","2","right","out","Female","Right-handed","2","3","no","right","s","511.433121898","944.554377966","8","red","3"
"97","67","20","809.23845133","1","0","3","186","1","right","out","Female","Right-handed","2","3","no","right","s","520.224845944","632.156485182","8","green","1"
"97","68","20","804.500525245","1","1","3","187","2","left","in","Female","Right-handed","2","3","no","left","s","529.700972982","728.693547177","8","green","2"
"97","66","20","808.072415076","1","0","3","188","0","right","in","Female","Right-handed","2","3","no","right","s","695.281596231","1192.32686112","8","red","1"
"97","67","20","805.528141663","1","1","3","189","1","right","out","Female","Right-handed","2","3","no","right","d","387.867593999","1024.73536311","8","green","0"
"97","68","20","800.419197808","1","1","3","190","2","right","in","Female","Right-handed","2","3","no","right","d","455.556781395","736.566105825","8","green","0"
"97","69","20","799.650868036","1","1","3","191","2","left","in","Female","Right-handed","2","3","no","left","s","536.152770035","1000.14592472","8","green","2"
"97","69","20","802.514008139","1","1","3","192","0","left","out","Female","Right-handed","2","3","no","left","d","620.774677474","1224.75710749","8","red","0"
"97","70","20","804.406936121","1","1","3","193","2","right","out","Female","Right-handed","2","3","no","right","d","755.329138827","1016.27653986","8","green","1"
"97","71","20","802.782633026","1","1","3","194","0","right","in","Female","Right-handed","2","3","no","right","d","485.73337276","976.893220948","8","green","0"
"97","71","20","801.949236379","1","1","3","195","2","left","in","Female","Right-handed","2","3","no","left","d","616.454022809","912.438751706","8","red","1"
"97","72","20","800.035700891","1","1","3","196","1","left","in","Female","Right-handed","2","3","no","left","d","672.028892453","751.997244428","8","red","0"
"97","70","20","803.601434868","1","0","3","197","0","right","in","Female","Right-handed","2","3","no","right","d","725.668255054","1216.71360846","8","green","2"
"97","71","20","803.511708739","1","1","3","198","3","left","in","Female","Right-handed","2","3","no","left","d","710.207610791","888.202098366","8","green","0"
"98","72","20","799.585843185","1","1","3","199","3","left","out","Female","Right-handed","2","3","no","left","s","461.682733352","752.754128709","8","green","2"
"98","72","20","798.365678943","1","1","3","200","1","left","out","Female","Right-handed","2","3","no","left","d","514.289397912","960.425535735","8","green","2"
"98","73","20","801.686845396","1","1","3","201","2","right","out","Female","Right-handed","2","3","no","right","d","734.078971253","1208.05369773","8","red","3"
"98","71","20","799.732588935","1","0","3","202","2","left","out","Female","Right-handed","2","3","no","left","d","571.64615275","824.576353267","8","red","1"
"98","70","20","799.055886045","1","0","3","203","3","left","out","Female","Right-handed","2","3","no","left","d","542.136004407","984.245261296","8","red","2"
"98","70","20","797.949826153","1","1","3","204","3","right","in","Female","Right-handed","2","3","no","right","d","579.685803225","896.759380716","8","green","2"
"98","69","20","797.625419894","1","0","3","205","0","left","out","Female","Right-handed","2","3","no","left","d","751.284297923","808.281853444","8","green","0"
"98","70","20","797.498362419","1","1","3","206","1","left","out","Female","Right-handed","2","3","no","left","s","476.876223122","1103.89006448","8","green","2"
"98","70","20","795.136690049","1","1","3","207","3","left","out","Female","Right-handed","2","3","no","left","s","504.508592881","816.534137086","8","red","2"
"98","71","20","795.721469173","1","1","3","208","1","left","out","Female","Right-handed","2","3","no","left","s","667.076111129","992.201205499","8","green","0"
"98","71","20","794.187591096","1","1","3","209","2","left","in","Female","Right-handed","2","3","no","left","d","574.686518416","832.691050742","8","green","2"
"98","72","20","792.812173993","1","1","3","210","1","left","in","Female","Right-handed","2","3","no","left","s","628.314656038","792.259639531","8","green","1"
"98","72","20","801.030734447","1","1","3","211","0","left","out","Female","Right-handed","2","3","no","left","d","588.885795783","2015.84004854","8","red","0"
"98","73","20","800.861849794","1","1","3","212","1","left","in","Female","Right-handed","2","3","no","left","d","540.473103989","1040.30889859","8","green","1"
"98","73","20","800.411168966","1","1","3","213","1","left","out","Female","Right-handed","2","3","no","left","d","720.074367087","823.962186574","8","red","2"
"100","100","20","645.260685698","1","1","4","214","0","right","in","Female","Right-handed","2","3","no","right","d","529.83791772","760.683453676","8","green","0"
"100","100","20","631.280776486","1","1","4","215","1","left","out","Female","Right-handed","2","3","no","left","d","482.294359994","752.307374554","8","green","1"
"100","100","20","667.829948628","1","1","4","216","3","right","in","Female","Right-handed","2","3","no","right","d","648.882986332","832.97359949","8","green","2"
"100","100","20","658.768263842","1","1","4","217","0","left","out","Female","Right-handed","2","3","no","left","d","510.642883395","752.523535573","8","red","1"
"100","100","20","681.540458351","1","1","4","218","3","right","out","Female","Right-handed","2","3","no","right","d","673.138882492","872.119590282","8","green","3"
"100","100","20","687.811987593","1","1","4","219","2","left","in","Female","Right-handed","2","3","no","left","d","733.694114841","704.645152764","8","green","2"
"100","100","20","711.037388709","1","1","4","220","2","right","in","Female","Right-handed","2","3","no","right","s","540.372720608","1160.4068702","8","red","1"
"100","100","20","701.902329215","1","1","4","221","3","right","out","Female","Right-handed","2","3","no","right","s","498.947096996","776.966728521","8","green","2"
"100","100","20","694.365049992","1","1","4","222","1","right","in","Female","Right-handed","2","3","no","right","s","531.640649304","736.492983106","8","red","2"
"100","100","20","688.395200071","1","1","4","223","3","right","in","Female","Right-handed","2","3","no","right","s","493.199587177","776.133514386","8","green","0"
"90","90","20","785.308243455","0","0","4","224","2","left","in","Female","Right-handed","2","3","no","right","None","508.787554771","3000.08979983","8","red","0"
"91","91","20","813.056772307","1","1","4","225","3","right","out","Female","Right-handed","2","3","no","right","d","460.34215018","1776.23902919","8","green","0"
"92","92","20","806.958502462","1","1","4","226","2","left","out","Female","Right-handed","2","3","no","left","s","474.774907105","992.783621537","8","red","0"
"92","92","20","788.667050729","1","1","4","227","2","left","in","Female","Right-handed","2","3","no","left","d","493.360264731","608.396091655","8","red","2"
"93","93","20","782.389195028","1","1","4","228","1","right","out","Female","Right-handed","2","3","no","right","s","460.000910827","928.997519601","8","green","0"
"87","87","20","846.011712945","0","0","4","229","3","left","in","Female","Right-handed","2","3","no","right","None","600.646366347","3000.05259704","8","red","2"
"88","88","20","841.279263095","1","1","4","230","1","right","in","Female","Right-handed","2","3","no","right","s","595.111810409","936.008320596","8","green","0"
"88","88","20","834.574611079","1","1","4","231","0","left","out","Female","Right-handed","2","3","no","left","d","600.534757985","840.656295642","8","red","3"
"89","89","20","838.108284551","1","1","4","232","0","left","in","Female","Right-handed","2","3","no","left","s","499.180576553","1304.24823752","8","red","2"
"90","90","20","829.975335515","1","1","4","233","3","right","out","Female","Right-handed","2","3","no","right","d","469.925395584","880.97321207","8","red","3"
"90","85","20","824.093564642","1","0","4","234","0","right","in","Female","Right-handed","2","3","no","right","d","468.442415538","944.473878833","8","red","3"
"90","86","20","830.292593502","1","1","4","235","1","left","in","Female","Right-handed","2","3","no","left","s","912.966325704","1007.97807345","8","red","1"
"91","86","20","834.02346966","1","1","4","236","3","right","out","Female","Right-handed","2","3","no","right","s","663.651851192","1168.55363904","8","red","0"
"91","87","20","833.11149301","1","1","4","237","1","left","out","Female","Right-handed","2","3","no","left","d","672.121257992","952.150802137","8","green","2"
"92","88","20","830.314286576","1","1","4","238","0","left","in","Female","Right-handed","2","3","no","left","s","1037.53280099","488.829863318","8","green","0"
"92","88","20","824.162398255","1","1","4","239","0","left","in","Female","Right-handed","2","3","no","left","d","548.33219266","792.398187839","8","red","1"
"92","88","20","819.673039057","1","1","4","240","2","left","out","Female","Right-handed","2","3","no","left","s","526.028159944","879.871239873","8","red","1"
"92","89","20","819.025979274","1","1","4","241","2","left","in","Female","Right-handed","2","3","no","left","s","458.568282829","1144.54244742","8","green","2"
"93","86","20","817.288571775","1","0","4","242","0","right","in","Female","Right-handed","2","3","no","right","d","569.227330192","968.054993414","8","red","2"
"93","86","20","813.637451147","1","1","4","243","2","left","out","Female","Right-handed","2","3","no","left","d","599.716617395","815.79328849","8","green","0"
"93","87","20","821.64201451","1","1","4","244","2","right","out","Female","Right-handed","2","3","no","right","s","867.301187987","1256.25664278","8","green","1"
"93","87","20","819.039817926","1","1","4","245","2","right","in","Female","Right-handed","2","3","no","right","s","540.885221065","935.858226594","8","red","3"
"93","87","20","824.217377476","1","1","4","246","0","left","out","Female","Right-handed","2","3","no","left","d","859.422215066","1120.37635109","8","red","2"
"94","88","20","818.802842059","1","1","4","247","3","left","in","Female","Right-handed","2","3","no","left","d","488.087090441","792.15925615","8","green","2"
"94","88","20","817.685632055","1","1","4","248","3","left","in","Female","Right-handed","2","3","no","left","s","582.663309009","976.737674813","8","green","0"
"94","88","20","813.297227387","1","1","4","249","1","left","in","Female","Right-handed","2","3","no","left","s","543.226751626","776.179376444","8","green","2"
"94","86","20","812.702644454","1","0","4","250","2","left","in","Female","Right-handed","2","3","no","left","d","638.849458924","943.745858785","8","green","0"
"94","86","20","821.523762504","1","1","4","251","1","right","in","Female","Right-handed","2","3","no","right","d","527.422623014","1768.38763764","8","green","2"
"94","87","20","826.27956904","1","1","4","252","3","right","out","Female","Right-handed","2","3","no","right","s","646.025427463","1367.97500742","8","green","1"
"95","85","20","821.436422041","1","0","4","253","0","right","out","Female","Right-handed","2","3","no","right","d","512.6078961","752.499482049","8","green","0"
"95","85","20","821.466017265","1","1","4","254","1","left","out","Female","Right-handed","2","3","no","left","d","605.171315627","1040.12833678","8","red","3"
"95","85","20","816.711041222","1","1","4","255","0","left","out","Female","Right-handed","2","3","no","left","d","499.736694071","743.777352867","8","green","2"
"95","86","20","816.434745678","1","1","4","256","3","left","out","Female","Right-handed","2","3","no","left","s","617.390186033","992.270479652","8","green","2"
"95","86","20","813.992575945","1","1","4","257","1","right","in","Female","Right-handed","2","3","no","right","s","529.991860287","887.966694527","8","green","3"
"95","86","20","812.883535251","1","1","4","258","2","right","out","Female","Right-handed","2","3","no","right","d","512.602443965","1015.56904549","8","red","3"
"95","86","20","814.228083731","1","1","4","259","0","right","in","Female","Right-handed","2","3","no","right","d","669.191217832","1080.27431282","8","green","0"
"95","85","20","813.142108872","1","0","4","260","2","left","in","Female","Right-handed","2","3","no","left","d","590.724126585","935.650404132","8","red","2"
"95","85","20","812.238865569","1","1","4","261","3","left","out","Female","Right-handed","2","3","no","left","d","707.278532775","832.294327922","8","red","1"
"95","83","20","820.182228988","1","0","4","262","0","right","in","Female","Right-handed","2","3","no","right","d","578.963876734","1823.96346943","8","red","1"
"96","84","20","817.946486357","1","1","4","263","1","right","out","Female","Right-handed","2","3","no","right","s","512.403601486","904.386593398","8","red","2"
"96","82","20","816.967402398","1","0","4","264","0","right","out","Female","Right-handed","2","3","no","right","s","536.101776561","999.924632286","8","red","2"
"96","82","20","814.866018901","1","1","4","265","3","left","out","Female","Right-handed","2","3","no","left","d","495.707888851","919.683032258","8","red","2"
"96","83","20","817.701120364","1","1","4","266","1","right","out","Female","Right-handed","2","3","no","right","s","818.097295551","1112.15549739","8","red","1"
"96","83","20","815.259600142","1","1","4","267","2","left","in","Female","Right-handed","2","3","no","left","s","547.792431542","823.925625216","8","green","2"
"96","83","20","811.725012162","1","1","4","268","0","right","out","Female","Right-handed","2","3","no","right","d","529.331510825","712.383011667","8","red","2"
"96","83","20","814.496399691","1","1","4","269","2","left","out","Female","Right-handed","2","3","no","left","d","981.94253709","951.902890465","8","green","2"
"96","84","20","815.639669451","1","1","4","270","1","right","in","Female","Right-handed","2","3","no","right","s","799.694424008","959.631127957","8","green","1"
"96","84","20","813.450986556","1","1","4","271","3","left","in","Female","Right-handed","2","3","no","left","d","569.192372403","808.19975074","8","red","1"
"96","83","20","815.328976621","1","0","4","272","3","right","out","Female","Right-handed","2","3","no","right","d","784.780596565","1063.7242042","8","green","1"
"96","81","20","814.661468539","1","0","4","273","2","left","out","Female","Right-handed","2","3","no","left","d","582.248626224","968.30835722","8","green","1"
"96","81","20","811.673978921","1","1","4","274","0","left","out","Female","Right-handed","2","3","no","left","d","584.883930513","679.965273122","8","green","1"
"96","82","20","810.242821016","1","1","4","275","1","right","in","Female","Right-handed","2","3","no","right","d","558.414147836","887.470229753","8","red","0"
"96","82","20","808.517768897","1","1","4","276","1","right","in","Female","Right-handed","2","3","no","right","d","619.041220047","784.087855021","8","red","0"
"96","82","20","808.325232473","1","1","4","277","1","right","out","Female","Right-handed","2","3","no","right","d","640.764440293","951.626435273","8","red","2"
"100","0","20","691.352051895","1","0","5","278","2","left","in","Female","Right-handed","2","3","no","left","s","613.776384313","768.927719477","8","red","3"
"100","50","20","696.137661215","1","1","5","279","1","left","out","Female","Right-handed","2","3","no","left","d","569.355294951","832.491246121","8","green","1"
"100","66","20","688.084086423","1","1","5","280","1","left","out","Female","Right-handed","2","3","no","left","s","439.944118849","904.009754828","8","green","0"
"100","75","20","675.850276103","1","1","5","281","3","right","in","Female","Right-handed","2","3","no","right","d","461.659962681","816.637727603","8","red","2"
"100","60","20","676.221838934","1","0","5","282","0","left","in","Female","Right-handed","2","3","no","left","d","483.192358291","872.223822227","8","red","1"
"100","66","20","666.24701282","1","1","5","283","3","right","out","Female","Right-handed","2","3","no","right","s","440.892148481","791.853616014","8","red","0"
"100","57","20","710.355459798","1","0","5","284","2","left","out","Female","Right-handed","2","3","no","left","d","597.508183009","1352.50410033","8","green","2"
"100","62","20","715.125394237","1","1","5","285","1","right","in","Female","Right-handed","2","3","no","right","d","465.012703468","1032.01716716","8","red","1"
"100","66","20","741.176846012","1","1","5","286","2","left","in","Female","Right-handed","2","3","no","left","s","674.613203268","1224.56371715","8","red","3"
"100","70","20","734.584752759","1","1","5","287","1","left","out","Female","Right-handed","2","3","no","left","d","542.25466847","808.257158489","8","red","3"
"100","72","20","731.558190902","1","1","5","288","1","right","out","Female","Right-handed","2","3","no","right","s","562.879444371","839.705700302","8","green","1"
"100","75","20","749.040023784","1","1","5","289","0","left","in","Female","Right-handed","2","3","no","left","d","714.373360754","1168.30701022","8","green","3"
"100","69","20","743.945468511","1","0","5","290","2","right","in","Female","Right-handed","2","3","no","right","d","613.853355595","751.768254863","8","green","1"
"100","71","20","744.769881522","1","1","5","291","0","left","out","Female","Right-handed","2","3","no","left","s","615.6285058","895.345995537","8","red","0"
"100","73","20","725.125297489","1","1","5","292","3","right","out","Female","Right-handed","2","3","no","right","s","491.997231598","408.205010446","8","red","2"
"100","68","20","729.667344148","1","0","5","293","0","left","in","Female","Right-handed","2","3","no","left","s","451.781660695","1143.81442737","8","green","3"
"100","70","20","730.593124857","1","1","5","294","2","left","out","Female","Right-handed","2","3","no","left","s","426.383061698","1064.42817072","8","red","2"
"100","72","20","728.723729897","1","1","5","295","0","right","in","Female","Right-handed","2","3","no","right","s","505.932882324","887.955148834","8","red","2"
"100","73","20","741.954914274","1","1","5","296","0","left","out","Female","Right-handed","2","3","no","left","d","736.647887812","1223.58457829","8","green","1"
"100","75","20","740.561620964","1","1","5","297","3","left","out","Female","Right-handed","2","3","no","left","d","500.173826813","928.004269341","8","red","0"
"100","76","20","742.644508162","1","1","5","298","0","left","in","Female","Right-handed","2","3","no","left","d","672.864672297","895.739831932","8","green","2"
"100","72","20","798.736014916","1","0","5","299","0","left","out","Female","Right-handed","2","3","no","left","None","953.234493652","3000.08081985","8","red","0"
"100","73","20","794.300361578","1","1","5","300","3","right","out","Female","Right-handed","2","3","no","right","s","481.668326894","911.763649414","8","green","3"
"100","75","20","804.028261343","1","1","5","301","0","right","out","Female","Right-handed","2","3","no","right","d","623.27528202","1432.26462984","8","red","1"
"100","76","20","800.604474726","1","1","5","302","1","left","out","Female","Right-handed","2","3","no","left","d","652.946749344","783.920442482","8","red","2"
"100","76","20","797.604012256","1","1","5","303","0","left","in","Female","Right-handed","2","3","no","left","d","516.560692176","928.624208878","8","green","2"
"100","77","20","794.399892563","1","1","5","304","3","left","in","Female","Right-handed","2","3","no","left","s","494.009709928","928.175851159","8","green","1"
"100","75","20","789.681502454","1","0","5","305","3","right","out","Female","Right-handed","2","3","no","right","s","580.742234079","743.827704915","8","red","1"
"100","75","20","796.582998145","1","1","5","306","3","right","in","Female","Right-handed","2","3","no","right","s","875.371626973","1104.27812803","8","green","1"
"100","76","20","790.844330071","1","1","5","307","1","right","out","Female","Right-handed","2","3","no","right","d","624.863456151","623.982455679","8","red","2"
"100","77","20","789.963334771","1","1","5","308","2","left","out","Female","Right-handed","2","3","no","left","s","599.463895016","927.60305653","8","green","1"
"100","78","20","790.421173429","1","1","5","309","2","left","in","Female","Right-handed","2","3","no","left","s","721.097764434","888.130579215","8","red","1"
"100","78","20","789.52381094","1","1","5","310","2","right","out","Female","Right-handed","2","3","no","right","s","585.844467978","935.771954615","8","green","0"
"100","79","20","783.959017735","1","1","5","311","1","right","in","Female","Right-handed","2","3","no","right","d","512.273071019","688.368612905","8","green","0"
"100","77","20","779.617926465","1","0","5","312","1","left","out","Female","Right-handed","2","3","no","left","d","607.99455813","656.047088465","8","red","2"
"100","77","20","778.363231688","1","1","5","313","3","left","in","Female","Right-handed","2","3","no","left","d","589.455703988","879.442124972","8","green","2"
"100","78","20","776.489541241","1","1","5","314","2","right","in","Female","Right-handed","2","3","no","right","s","642.018430773","776.054939537","8","red","2"
"100","78","20","774.245603783","1","1","5","315","3","right","in","Female","Right-handed","2","3","no","right","d","534.636435769","847.803399949","8","green","2"
"100","79","20","772.116740042","1","1","5","316","2","right","out","Female","Right-handed","2","3","no","right","s","630.224185274","752.215650444","8","green","0"
"100","80","20","767.751598277","1","1","5","317","1","right","out","Female","Right-handed","2","3","no","right","d","522.962457899","672.059680967","8","red","2"
"100","80","20","765.307577793","1","1","5","318","0","right","out","Female","Right-handed","2","3","no","right","s","455.583721343","879.509795559","8","green","0"
"100","80","20","763.030619634","1","1","5","319","2","left","in","Female","Right-handed","2","3","no","left","s","547.182754841","792.167915419","8","red","2"
"100","81","20","760.825339644","1","1","5","320","1","right","in","Female","Right-handed","2","3","no","right","d","568.759088224","767.648071902","8","green","2"
"100","81","20","760.654727935","1","1","5","321","3","left","in","Female","Right-handed","2","3","no","left","d","659.274430203","847.362418644","8","green","0"
"100","82","20","758.138954118","1","1","5","322","3","right","in","Female","Right-handed","2","3","no","right","d","478.877476469","816.01233593","8","red","0"
"100","82","20","757.714683853","1","1","5","323","2","left","in","Female","Right-handed","2","3","no","left","s","533.664994036","943.580049812","8","red","0"
"100","82","20","756.809174447","1","1","5","324","0","right","out","Female","Right-handed","2","3","no","right","s","734.141189707","696.170293831","8","red","2"
"100","83","20","753.362181796","1","1","5","325","2","left","out","Female","Right-handed","2","3","no","left","s","534.761514104","647.945540251","8","green","2"
"100","83","20","749.272755555","1","1","5","326","3","right","out","Female","Right-handed","2","3","no","right","s","474.541427548","631.419164438","8","green","2"
"100","82","20","745.178329633","1","0","5","327","0","right","in","Female","Right-handed","2","3","no","right","s","449.068743694","640.034175251","8","red","2"
"98","80","20","765.006586013","0","0","5","328","1","left","in","Female","Right-handed","2","3","no","right","None","512.703468776","3000.13534117","8","red","0"
"98","80","20","763.594910945","1","1","5","329","0","left","in","Female","Right-handed","2","3","no","left","d","671.130894156","712.068070835","8","red","2"
"98","81","20","760.558544775","1","1","5","330","2","right","in","Female","Right-handed","2","3","no","right","s","573.677553186","631.6574547","8","green","2"
"98","81","20","757.73981288","1","1","5","331","0","right","in","Female","Right-handed","2","3","no","right","s","505.221539388","711.472505536","8","green","0"
"98","81","20","758.487967377","1","1","5","332","1","right","out","Female","Right-handed","2","3","no","right","d","669.95034711","927.82627325","8","red","2"
"98","82","20","757.300780567","1","1","5","333","1","right","in","Female","Right-handed","2","3","no","right","d","520.448704094","863.562307931","8","green","0"
"98","82","20","758.184126359","1","1","5","334","0","right","in","Female","Right-handed","2","3","no","right","d","752.206991174","863.095990246","8","red","1"
"98","81","20","762.701668908","1","0","5","335","2","right","in","Female","Right-handed","2","3","no","right","s","496.747001167","1543.65618724","8","red","0"
"98","79","20","760.474878351","1","0","5","336","3","left","in","Female","Right-handed","2","3","no","left","s","471.330442206","791.311609899","8","green","2"
"98","80","20","758.832203459","1","1","5","337","3","right","out","Female","Right-handed","2","3","no","right","d","435.866565149","887.962204535","8","green","3"
"98","80","20","756.538991743","1","1","5","338","3","left","out","Female","Right-handed","2","3","no","left","d","534.432461869","703.460115727","8","green","1"
"98","80","20","756.22370497","1","1","5","339","2","right","out","Female","Right-handed","2","3","no","right","d","555.006565009","918.975858598","8","green","1"
"98","80","20","757.301841022","1","1","5","340","1","left","out","Female","Right-handed","2","3","no","left","s","528.571419409","1119.72113304","8","red","1"
"98","79","20","762.917788196","1","0","5","341","1","left","out","Female","Right-handed","2","3","no","left","d","610.144622625","1623.30029769","8","green","3"
"100","100","20","683.206245194","1","1","6","342","2","right","out","Female","Right-handed","2","3","no","right","s","614.718641098","751.69384929","8","red","3"
"100","100","20","688.478216807","1","1","6","343","3","left","in","Female","Right-handed","2","3","no","left","s","499.33548126","888.164895579","8","red","1"
"100","100","20","677.094832255","1","1","6","344","1","left","in","Female","Right-handed","2","3","no","left","s","596.75129873","711.904827575","8","red","1"
"100","100","20","664.934024386","1","1","6","345","3","right","out","Female","Right-handed","2","3","no","right","d","520.493604008","736.409597548","8","green","1"
"100","100","20","653.463194578","1","1","6","346","1","right","in","Female","Right-handed","2","3","no","right","d","495.125472813","720.034277878","8","green","0"
"100","100","20","634.001925137","1","1","6","347","2","left","out","Female","Right-handed","2","3","no","left","d","505.711269172","567.679886699","8","red","0"
"100","100","20","668.553868123","1","1","6","348","1","left","in","Female","Right-handed","2","3","no","left","s","519.433966015","1232.29708606","8","red","0"
"100","100","20","676.965758363","1","1","6","349","2","right","in","Female","Right-handed","2","3","no","right","s","591.922312886","879.775667196","8","green","1"
"100","100","20","661.635631204","1","1","6","350","3","right","out","Female","Right-handed","2","3","no","right","s","357.472275906","720.516951964","8","green","0"
"100","100","20","670.191475687","1","1","6","351","0","right","out","Female","Right-handed","2","3","no","right","d","662.139365488","832.248786581","8","green","2"
"100","100","20","669.237692161","1","1","6","352","3","right","in","Female","Right-handed","2","3","no","right","d","431.662650262","887.737063533","8","red","3"
"100","91","20","671.455910743","1","0","6","353","1","right","out","Female","Right-handed","2","3","no","right","d","567.353079461","824.359550821","8","green","2"
"100","92","20","667.51400865","1","1","6","354","3","right","out","Female","Right-handed","2","3","no","right","s","512.577428301","727.844938785","8","red","2"
"100","92","20","670.299695936","1","1","6","355","0","left","in","Female","Right-handed","2","3","no","left","d","494.547546764","918.479714539","8","red","2"
"100","86","20","678.356124316","1","0","6","356","1","left","in","Female","Right-handed","2","3","no","left","s","622.191269789","960.100973494","8","red","3"
"100","87","20","705.501378107","1","1","6","357","2","right","in","Female","Right-handed","2","3","no","right","s","713.621287179","1511.73908275","8","green","1"
"100","88","20","699.549012427","1","1","6","358","1","left","in","Female","Right-handed","2","3","no","left","d","505.326092047","703.296231037","8","red","2"
"100","88","20","696.84583265","1","1","6","359","3","right","in","Female","Right-handed","2","3","no","right","s","485.905275291","815.878277614","8","red","2"
"100","89","20","692.564628111","1","1","6","360","1","right","out","Female","Right-handed","2","3","no","right","d","431.548796907","799.457095885","8","red","3"
"100","90","20","693.270496972","1","1","6","361","1","right","in","Female","Right-handed","2","3","no","right","d","589.111257499","824.252753166","8","green","1"
"100","85","20","693.841194744","1","0","6","362","3","right","out","Female","Right-handed","2","3","no","right","d","450.734851251","959.775449112","8","red","0"
"100","81","20","704.019695494","1","0","6","363","2","left","out","Female","Right-handed","2","3","no","left","s","779.289336977","1056.24708551","8","red","0"
"100","82","20","714.988677831","1","1","6","364","2","left","out","Female","Right-handed","2","3","no","left","s","496.849629544","1415.76294897","8","green","0"
"100","83","20","712.261761854","1","1","6","365","3","right","in","Female","Right-handed","2","3","no","right","d","556.527709983","742.557678752","8","red","2"
"100","84","20","712.29376988","1","1","6","366","2","left","out","Female","Right-handed","2","3","no","left","s","498.050381553","928.073543495","8","red","0"
"100","84","20","713.17081398","1","1","6","367","0","right","out","Female","Right-handed","2","3","no","right","s","662.592533914","807.601299019","8","green","2"
"100","81","20","707.152462603","1","0","6","368","0","right","in","Female","Right-handed","2","3","no","right","s","454.105552004","647.24510158","8","red","3"
"100","82","20","708.01482838","1","1","6","369","1","left","in","Female","Right-handed","2","3","no","left","s","518.825892883","943.77151588","8","green","2"
"100","82","20","708.492002739","1","1","6","370","1","left","out","Female","Right-handed","2","3","no","left","d","580.36379194","863.341977636","8","green","1"
"100","83","20","709.027026328","1","1","6","371","2","right","in","Female","Right-handed","2","3","no","right","s","473.071596764","976.013824041","8","red","1"
"100","83","20","703.644784731","1","1","6","372","1","right","in","Female","Right-handed","2","3","no","right","d","420.666019681","663.689053979","8","red","1"
"100","84","20","702.836984084","1","1","6","373","3","left","out","Female","Right-handed","2","3","no","left","s","548.285047751","807.305280296","8","green","2"
"100","81","20","701.961639379","1","0","6","374","0","left","out","Female","Right-handed","2","3","no","left","s","491.921222458","855.979995164","8","green","1"
"100","82","20","701.311310504","1","1","6","375","3","right","in","Female","Right-handed","2","3","no","right","d","536.352253943","823.34866131","8","green","2"
"100","82","20","701.944060937","1","1","6","376","0","right","out","Female","Right-handed","2","3","no","right","s","528.03614828","918.879003068","8","red","0"
"100","83","20","705.880461674","1","1","6","377","2","left","in","Female","Right-handed","2","3","no","left","s","527.659630423","1159.64934449","8","green","2"
"100","81","20","704.106930205","1","0","6","378","2","left","out","Female","Right-handed","2","3","no","left","s","537.32337496","743.196219685","8","green","2"
"100","81","20","701.548624228","1","1","6","379","1","left","out","Female","Right-handed","2","3","no","left","d","557.934680886","655.847925271","8","red","2"
"100","82","20","698.700149109","1","1","6","380","1","left","out","Female","Right-handed","2","3","no","left","s","461.42520027","719.490988908","8","red","2"
"100","82","20","696.011324079","1","1","6","381","2","left","out","Female","Right-handed","2","3","no","left","s","439.143938223","743.150357628","8","green","2"
"100","82","20","699.9177784","1","1","6","382","0","right","in","Female","Right-handed","2","3","no","right","d","536.625181285","1175.72672116","8","green","0"
"100","83","20","698.140300505","1","1","6","383","0","right","in","Female","Right-handed","2","3","no","right","s","491.271456547","759.255957097","8","green","2"
"100","81","20","702.514398217","1","0","6","384","2","left","in","Female","Right-handed","2","3","no","left","d","844.698250121","927.7547541","8","green","3"
"100","79","20","713.216459049","1","0","6","385","3","left","in","Female","Right-handed","2","3","no","left","s","667.407087643","1679.40306205","8","green","1"
"100","80","20","720.054465022","1","1","6","386","0","right","out","Female","Right-handed","2","3","no","right","s","562.948077097","1478.90537856","8","red","2"
"100","80","20","723.271338636","1","1","6","387","0","left","in","Female","Right-handed","2","3","no","left","d","912.558377908","823.502924588","8","green","2"
"100","80","20","722.489426377","1","1","6","388","3","right","in","Female","Right-handed","2","3","no","right","d","621.948489536","751.094435425","8","red","2"
"100","81","20","721.108257784","1","1","6","389","0","right","out","Female","Right-handed","2","3","no","right","d","600.713395505","711.673272301","8","green","1"
"100","81","20","724.213592718","1","1","6","390","2","left","out","Female","Right-handed","2","3","no","left","d","675.247895637","1071.29144342","8","green","1"
"100","82","20","726.2282051","1","1","6","391","3","right","out","Female","Right-handed","2","3","no","right","s","577.894938048","1071.99348566","8","red","0"
"100","82","20","727.136840716","1","1","6","392","3","left","in","Female","Right-handed","2","3","no","left","s","513.588959238","1031.54828377","8","green","0"
"100","82","20","724.644743609","1","1","6","393","2","right","out","Female","Right-handed","2","3","no","right","s","516.03857031","679.057011988","8","green","2"
"100","83","20","729.512323145","1","1","6","394","0","left","out","Female","Right-handed","2","3","no","left","s","677.693016716","1287.5599013","8","red","1"
"100","83","20","731.128399479","1","1","6","395","3","left","out","Female","Right-handed","2","3","no","left","d","650.195667415","983.365222963","8","green","1"
"100","83","20","732.286318827","1","1","6","396","0","left","in","Female","Right-handed","2","3","no","left","d","837.896875158","751.731052075","8","green","3"
"100","83","20","733.41608758","1","1","6","397","2","left","in","Female","Right-handed","2","3","no","left","d","647.544968868","943.561769134","8","red","2"
"100","84","20","732.945465025","1","1","6","398","1","right","out","Female","Right-handed","2","3","no","right","s","494.062306971","919.1188969","8","red","0"
"100","84","20","732.681942473","1","1","6","399","3","left","out","Female","Right-handed","2","3","no","left","s","667.59246015","767.729853889","8","red","3"
"100","84","20","731.446384876","1","1","6","400","0","left","in","Female","Right-handed","2","3","no","left","d","480.280919524","839.287168952","8","red","1"
"100","85","20","730.39524326","1","1","6","401","2","right","out","Female","Right-handed","2","3","no","right","s","593.872572757","742.883203134","8","green","2"
"100","85","20","726.757432879","1","1","6","402","0","right","in","Female","Right-handed","2","3","no","right","d","321.463827024","695.513792933","8","green","0"
"100","85","20","728.17592306","1","1","6","403","1","right","in","Female","Right-handed","2","3","no","right","s","598.148648225","1031.25900003","8","red","0"
"100","85","20","728.103701271","1","1","6","404","1","left","in","Female","Right-handed","2","3","no","left","d","568.671854103","878.580046607","8","green","2"
"100","85","20","728.089555627","1","1","6","405","0","left","out","Female","Right-handed","2","3","no","left","d","687.265999282","767.13076074","8","red","0"
"100","100","20","794.024366542","1","1","7","406","2","left","in","Female","Right-handed","2","3","no","left","s","628.590469802","959.458263283","8","red","2"
"100","100","20","720.298225235","1","1","7","407","2","right","in","Female","Right-handed","2","3","no","right","s","637.082967987","656.061199867","8","green","0"
"100","100","20","680.135411729","1","1","7","408","2","left","out","Female","Right-handed","2","3","no","left","s","543.826486204","655.793083233","8","red","1"
"100","100","20","692.694479171","1","1","7","409","3","left","out","Female","Right-handed","2","3","no","left","d","781.326830971","679.416532021","8","red","2"
"100","100","20","673.2558147","1","1","7","410","2","left","in","Female","Right-handed","2","3","no","left","s","502.964997951","688.037315678","8","red","0"
"100","83","20","688.383258832","1","0","7","411","3","right","in","Female","Right-handed","2","3","no","right","d","504.520780001","1023.52017898","8","red","0"
"100","85","20","679.489586015","1","1","7","412","0","left","out","Female","Right-handed","2","3","no","left","s","532.133265513","720.121832712","8","red","0"
"100","75","20","674.594561787","1","0","7","413","3","left","in","Female","Right-handed","2","3","no","left","d","480.796947834","799.861836547","8","green","0"
"100","77","20","668.177228089","1","1","7","414","3","right","out","Female","Right-handed","2","3","no","right","d","618.271827932","615.405289081","8","red","3"
"100","80","20","680.149587274","1","1","7","415","1","right","out","Female","Right-handed","2","3","no","right","s","551.87864451","1023.92299536","8","red","1"
"100","72","20","675.820865201","1","0","7","416","3","right","out","Female","Right-handed","2","3","no","right","s","409.538217204","855.529071732","8","green","0"
"100","75","20","680.269563588","1","1","7","417","3","right","in","Female","Right-handed","2","3","no","right","d","667.299648563","791.110843138","8","red","1"
"100","76","20","686.039528504","1","1","7","418","0","right","in","Female","Right-handed","2","3","no","right","d","494.767235634","1015.79097935","8","green","0"
"100","71","20","689.773739708","1","0","7","419","2","right","in","Female","Right-handed","2","3","no","right","d","501.219674117","975.417296602","8","red","1"
"100","73","20","690.854133219","1","1","7","420","2","right","in","Female","Right-handed","2","3","no","right","s","652.042016058","759.9172687","8","green","2"
"100","75","20","693.022930066","1","1","7","421","3","left","in","Female","Right-handed","2","3","no","left","d","515.671032436","935.438733104","8","red","1"
"100","76","20","699.791339908","1","1","7","422","3","right","out","Female","Right-handed","2","3","no","right","d","537.108817509","1079.06297726","8","red","2"
"100","77","20","697.655002168","1","1","7","423","1","left","out","Female","Right-handed","2","3","no","left","s","594.781796035","727.892725124","8","red","0"
"100","78","20","696.907192585","1","1","7","424","1","right","out","Female","Right-handed","2","3","no","right","d","439.447012648","927.446227541","8","red","1"
"100","80","20","702.087477222","1","1","7","425","1","left","out","Female","Right-handed","2","3","no","left","d","553.969056262","1047.05671437","8","red","2"
"100","76","20","702.372751274","1","0","7","426","3","right","out","Female","Right-handed","2","3","no","right","s","416.538434647","999.618030009","8","green","1"
"100","77","20","701.410565813","1","1","7","427","3","left","in","Female","Right-handed","2","3","no","left","d","627.194082446","735.215259814","8","green","2"
"100","78","20","696.838103373","1","1","7","428","0","left","in","Female","Right-handed","2","3","no","left","d","568.639782736","623.848076648","8","green","2"
"100","79","20","691.400840462","1","1","7","429","2","left","in","Female","Right-handed","2","3","no","left","s","437.290213165","695.397373869","8","green","2"
"100","76","20","700.284460204","1","0","7","430","2","right","in","Female","Right-handed","2","3","no","right","d","507.944398511","1319.03826948","8","green","2"
"100","76","20","695.759743319","1","1","7","431","0","right","out","Female","Right-handed","2","3","no","right","s","453.653345716","711.630296668","8","green","2"
"100","77","20","697.239238459","1","1","7","432","3","left","in","Female","Right-handed","2","3","no","left","d","632.125055243","839.287168952","8","green","2"
"100","78","20","701.669050104","1","1","7","433","0","left","out","Female","Right-handed","2","3","no","left","d","482.756829116","1159.79109994","8","red","1"
"100","79","20","700.796168387","1","1","7","434","1","left","out","Female","Right-handed","2","3","no","left","d","545.444486707","807.266473938","8","red","2"
"100","76","20","703.552956991","1","0","7","435","0","right","in","Female","Right-handed","2","3","no","right","d","431.956103279","1135.04354971","8","red","0"
"100","77","20","706.602240738","1","1","7","436","1","right","out","Female","Right-handed","2","3","no","right","d","548.596460733","1047.56504554","8","green","1"
"100","75","20","704.16508949","1","0","7","437","2","right","out","Female","Right-handed","2","3","no","right","s","562.109090117","695.117711541","8","red","0"
"100","75","20","698.622154757","1","1","7","438","3","right","out","Female","Right-handed","2","3","no","right","s","394.754278801","647.742207779","8","red","0"
"100","76","20","698.278321253","1","1","7","439","0","left","in","Female","Right-handed","2","3","no","left","d","558.373737911","815.48989335","8","green","1"
"100","77","20","700.515345646","1","1","7","440","1","left","out","Female","Right-handed","2","3","no","left","d","754.101126155","799.047223807","8","green","2"
"100","77","20","708.115724649","1","1","7","441","2","left","out","Female","Right-handed","2","3","no","left","d","836.625245427","1111.63273409","8","green","1"
"100","78","20","707.588645564","1","1","7","442","3","right","out","Female","Right-handed","2","3","no","right","s","594.063076684","783.164520344","8","green","2"
"100","76","20","705.515265853","1","0","7","443","0","right","in","Female","Right-handed","2","3","no","right","d","426.717886778","830.882546312","8","red","2"
"100","76","20","710.626397068","1","1","7","444","0","left","in","Female","Right-handed","2","3","no","left","s","570.437382899","1239.26138357","8","red","2"
"100","77","20","707.344884424","1","1","7","445","3","right","out","Female","Right-handed","2","3","no","right","d","495.834570752","662.897211907","8","red","2"
"100","75","20","715.850192482","1","0","7","446","2","left","out","Female","Right-handed","2","3","no","left","s","592.590359474","1519.53467011","8","green","3"
"97","73","20","740.974628402","0","0","7","447","1","left","out","Female","Right-handed","2","3","no","right","None","542.061919548","3000.09108268","8","green","1"
"97","72","20","741.519200404","1","0","7","448","3","right","out","Female","Right-handed","2","3","no","right","s","473.424061094","1055.35838791","8","green","1"
"97","72","20","738.270010216","1","1","7","449","0","right","in","Female","Right-handed","2","3","no","right","s","526.097754811","671.011909382","8","red","2"
"97","73","20","739.359657369","1","1","7","450","1","left","out","Female","Right-handed","2","3","no","left","s","615.724399191","958.883865087","8","green","2"
"97","71","20","741.695481861","1","0","7","451","0","left","in","Female","Right-handed","2","3","no","left","s","694.284818121","999.33034984","8","red","1"
"97","72","20","741.060563421","1","1","7","452","1","left","in","Female","Right-handed","2","3","no","left","s","656.755865693","766.952764647","8","green","2"
"97","72","20","743.714726841","1","1","7","453","1","right","out","Female","Right-handed","2","3","no","right","d","553.540262074","1183.38055308","8","green","3"
"97","73","20","746.414915244","1","1","7","454","2","left","in","Female","Right-handed","2","3","no","left","s","697.064764278","1054.98315291","8","red","0"
"98","74","20","755.718312045","1","1","7","455","0","left","in","Female","Right-handed","2","3","no","left","s","544.639174663","1878.53033599","8","green","2"
"98","74","20","757.140064329","1","1","7","456","1","right","in","Female","Right-handed","2","3","no","right","d","561.279403831","1095.17595315","8","red","0"
"98","73","20","758.355612038","1","0","7","457","0","right","in","Female","Right-handed","2","3","no","right","d","489.825358574","1150.87173185","8","green","3"
"98","73","20","758.411814492","1","1","7","458","2","right","in","Female","Right-handed","2","3","no","right","d","643.328866861","879.339817309","8","green","2"
"98","74","20","758.486306631","1","1","7","459","1","left","out","Female","Right-handed","2","3","no","left","d","550.004073064","974.864706936","8","red","3"
"98","72","20","757.314006622","1","0","7","460","1","right","in","Female","Right-handed","2","3","no","right","d","525.655811365","862.363800918","8","green","2"
"98","73","20","755.738827641","1","1","7","461","1","right","out","Female","Right-handed","2","3","no","right","d","419.050264172","919.157703252","8","green","0"
"98","71","20","756.590145621","1","0","7","462","0","left","out","Female","Right-handed","2","3","no","left","d","577.774670419","1030.75323456","8","green","3"
"98","72","20","755.430205106","1","1","7","463","2","right","in","Female","Right-handed","2","3","no","right","d","651.282886782","727.344304734","8","green","1"
"98","72","20","755.193256789","1","1","7","464","0","left","out","Female","Right-handed","2","3","no","left","d","499.936498692","982.964010153","8","green","0"
"98","71","20","755.190173589","1","0","7","465","2","left","out","Female","Right-handed","2","3","no","left","d","743.432906378","766.583623204","8","green","3"
"96","70","20","771.279079122","0","0","7","466","3","left","in","Female","Right-handed","2","3","no","right","None","473.09051887","3000.13630331","8","red","3"
"96","69","20","771.9680929","1","0","7","467","1","right","in","Female","Right-handed","2","3","no","right","d","533.529332153","1094.46653449","8","red","0"
"96","68","20","771.475542747","1","0","7","468","0","left","in","Female","Right-handed","2","3","no","left","d","554.892390939","926.982475563","8","red","1"
"96","68","20","770.237200938","1","1","7","469","2","right","out","Female","Right-handed","2","3","no","right","s","593.796563616","790.646770445","8","red","2"
"100","100","20","1293.56301992","1","1","8","470","3","right","out","Female","Right-handed","2","3","no","right","d","556.008153826","2031.11788601","8","red","3"
"100","100","20","1048.16229459","1","1","8","471","0","right","out","Female","Right-handed","2","3","no","right","d","781.809505055","823.713633476","8","red","1"
"100","100","20","1000.1945663","1","1","8","472","0","left","in","Female","Right-handed","2","3","no","left","s","585.275842626","1223.2423768","8","green","3"
"100","75","20","926.249885345","1","0","8","473","3","right","out","Female","Right-handed","2","3","no","right","d","481.896675033","926.935009939","8","red","0"
"100","80","20","859.477474034","1","1","8","474","0","right","in","Female","Right-handed","2","3","no","right","d","465.398842736","719.376814839","8","green","0"
"100","83","20","814.068944675","1","1","8","475","2","left","out","Female","Right-handed","2","3","no","left","d","502.960507958","671.092087801","8","red","2"
"100","85","20","777.937162294","1","1","8","476","0","right","in","Female","Right-handed","2","3","no","right","d","442.767682067","679.525253958","8","green","3"
"100","75","20","774.786276405","1","0","8","477","0","right","out","Female","Right-handed","2","3","no","right","s","698.29534266","807.164807702","8","green","2"
"100","77","20","768.016607552","1","1","8","478","2","right","in","Female","Right-handed","2","3","no","right","s","452.893575015","974.824938439","8","red","0"
"100","80","20","793.365219756","1","1","8","479","2","right","in","Female","Right-handed","2","3","no","right","s","563.495856059","1479.50960313","8","green","0"
"100","81","20","780.519769578","1","1","8","480","0","right","out","Female","Right-handed","2","3","no","right","d","601.144755401","702.985780197","8","red","2"
"100","83","20","780.701813465","1","1","8","481","2","left","out","Female","Right-handed","2","3","no","left","s","621.636114414","943.772478018","8","green","1"
"100","84","20","770.165390563","1","1","8","482","2","right","in","Female","Right-handed","2","3","no","right","s","512.18070548","775.275926013","8","red","0"
"100","78","20","768.249524588","1","0","8","483","2","left","out","Female","Right-handed","2","3","no","left","s","599.79390939","886.892624418","8","green","3"
"100","80","20","765.128865963","1","1","8","484","0","right","in","Female","Right-handed","2","3","no","right","d","483.361695113","959.517595315","8","red","0"
"100","81","20","770.445366666","1","1","8","485","1","left","in","Female","Right-handed","2","3","no","left","s","733.163654417","967.222099995","8","green","2"
"100","82","20","763.902522889","1","1","8","486","3","right","out","Female","Right-handed","2","3","no","right","s","542.761075367","775.672969547","8","green","2"
"100","83","20","764.227803068","1","1","8","487","3","left","out","Female","Right-handed","2","3","no","left","s","692.276188356","847.238943876","8","green","1"
"100","84","20","787.788063759","1","1","8","488","3","left","out","Female","Right-handed","2","3","no","left","d","632.76584117","1790.97967124","8","green","0"
"100","85","20","786.820712395","1","1","8","489","2","left","in","Female","Right-handed","2","3","no","left","d","705.383756366","831.498316574","8","red","3"
"100","85","20","796.130027466","1","1","8","490","1","right","out","Female","Right-handed","2","3","no","right","s","629.898981606","1334.73367615","8","green","1"
"100","86","20","790.969401116","1","1","8","491","3","left","out","Female","Right-handed","2","3","no","left","s","493.592461433","871.600034125","8","red","1"
"100","86","20","787.783947689","1","1","8","492","1","left","in","Female","Right-handed","2","3","no","left","d","516.249920623","919.158023967","8","red","1"
"100","87","20","784.512827371","1","1","8","493","0","right","out","Female","Right-handed","2","3","no","right","d","595.787554128","822.766565983","8","green","0"
"100","88","20","787.525758119","1","1","8","494","3","left","out","Female","Right-handed","2","3","no","left","d","632.378739763","1087.29345237","8","green","2"
"100","88","20","785.426261043","1","1","8","495","0","left","in","Female","Right-handed","2","3","no","left","d","714.973736758","750.903931501","8","red","2"
"100","85","20","784.820085922","1","0","8","496","2","right","in","Female","Right-handed","2","3","no","right","d","491.544063172","1046.57500242","8","red","2"
"100","85","20","776.565160635","1","1","8","497","3","left","in","Female","Right-handed","2","3","no","left","s","604.206288168","503.158067584","8","red","2"
"100","86","20","772.795327365","1","1","8","498","1","right","in","Female","Right-handed","2","3","no","right","s","503.726372222","830.753619413","8","red","2"
"100","86","20","769.764894424","1","1","8","499","2","left","out","Female","Right-handed","2","3","no","left","s","596.398834399","767.365843865","8","red","1"
"100","87","20","771.770504824","1","1","8","500","1","right","in","Female","Right-handed","2","3","no","right","s","713.028608303","950.849025319","8","green","3"
"100","87","20","767.322768009","1","1","8","501","0","left","out","Female","Right-handed","2","3","no","left","s","676.454099779","582.431753734","8","green","2"
"100","87","20","757.941035877","1","1","8","502","1","left","in","Female","Right-handed","2","3","no","left","s","492.210506194","423.240709086","8","green","2"
"100","88","20","758.599286408","1","1","8","503","1","right","in","Female","Right-handed","2","3","no","right","s","529.865499098","1030.7776088","8","green","3"
"100","85","20","754.792580262","1","0","8","504","3","left","out","Female","Right-handed","2","3","no","left","s","507.417786652","743.311355894","8","red","2"
"100","86","20","752.323303334","1","1","8","505","0","right","out","Female","Right-handed","2","3","no","right","s","644.968355182","686.828866539","8","green","1"
"100","86","20","750.155866847","1","1","8","506","1","left","out","Female","Right-handed","2","3","no","left","s","601.641861602","742.614445073","8","red","0"
"100","86","20","749.84124673","1","1","8","507","3","left","out","Female","Right-handed","2","3","no","left","d","605.214611971","871.185992766","8","red","0"
"100","87","20","749.200279886","1","1","8","508","2","right","out","Female","Right-handed","2","3","no","right","d","570.918453415","878.768626249","8","green","2"
"100","85","20","747.443322677","1","0","8","509","2","right","out","Female","Right-handed","2","3","no","right","d","583.408006167","774.435976889","8","green","1"
"100","82","20","744.46779466","1","0","8","510","3","left","in","Female","Right-handed","2","3","no","left","d","467.936970783","782.956377166","8","green","1"
"100","83","20","744.026745932","1","1","8","511","3","right","out","Female","Right-handed","2","3","no","right","d","709.490495008","742.397001199","8","red","2"
"100","83","20","742.972965672","1","1","8","512","0","right","out","Female","Right-handed","2","3","no","right","d","550.22344122","847.204948228","8","red","1"
"100","84","20","749.206794897","1","1","8","513","0","right","in","Female","Right-handed","2","3","no","right","s","547.747210913","1486.77569221","8","green","2"
"100","84","20","745.05399286","1","1","8","514","3","left","in","Female","Right-handed","2","3","no","left","s","430.301541413","694.35986512","8","red","0"
"100","84","20","740.956317012","1","1","8","515","1","right","in","Female","Right-handed","2","3","no","right","s","554.062704654","559.059103041","8","red","1"
"100","85","20","737.577210283","1","1","8","516","0","right","in","Female","Right-handed","2","3","no","right","s","453.669060688","710.607540748","8","red","0"
"100","83","20","737.058919138","1","0","8","517","1","left","out","Female","Right-handed","2","3","no","left","s","603.220735039","822.177735672","8","red","2"
"100","83","20","735.705941923","1","1","8","518","2","left","in","Female","Right-handed","2","3","no","left","d","462.809721217","878.716349918","8","red","0"
"100","82","20","745.069168319","1","0","8","519","0","right","out","Female","Right-handed","2","3","no","right","s","641.379569128","1766.35495435","8","green","1"
"100","82","20","744.360036168","1","1","8","520","1","right","in","Female","Right-handed","2","3","no","right","d","650.94068529","766.866171955","8","red","0"
"100","82","20","746.795006454","1","1","8","521","3","right","in","Female","Right-handed","2","3","no","right","d","519.471489517","1222.48549252","8","green","3"
"100","83","20","745.603318038","1","1","8","522","0","right","out","Female","Right-handed","2","3","no","right","d","576.137747806","791.133293094","8","red","2"
"100","81","20","745.902348244","1","0","8","523","1","left","in","Female","Right-handed","2","3","no","left","d","748.758998423","774.742899879","8","green","1"
"100","81","20","746.627366218","1","1","8","524","1","left","out","Female","Right-handed","2","3","no","left","d","629.264930665","942.291742971","8","red","0"
"100","82","20","744.91893034","1","1","8","525","2","left","in","Female","Right-handed","2","3","no","left","d","478.909868552","823.000045541","8","red","2"
"100","82","20","743.658477811","1","1","8","526","1","left","in","Female","Right-handed","2","3","no","left","d","483.617945341","862.528327037","8","green","2"
"100","82","20","741.261284947","1","1","8","527","1","left","in","Female","Right-handed","2","3","no","left","d","491.142850362","718.099732975","8","green","0"
"100","83","20","744.548845927","1","1","8","528","3","right","out","Female","Right-handed","2","3","no","right","s","767.683350405","1102.77141517","8","red","1"
"100","83","20","741.787594431","1","1","8","529","2","left","in","Female","Right-handed","2","3","no","left","d","519.317867666","638.429644719","8","red","2"
"100","83","20","742.314307017","1","1","8","530","2","left","out","Female","Right-handed","2","3","no","left","s","572.887635397","974.946488922","8","green","2"
"100","82","20","743.849125485","1","0","8","531","2","left","in","Female","Right-handed","2","3","no","left","d","764.506360714","910.439743351","8","green","1"
"100","80","20","743.48035673","1","0","8","532","1","right","in","Female","Right-handed","2","3","no","right","d","587.143037659","854.090350174","8","green","2"
"100","81","20","740.631530031","1","1","8","533","3","left","out","Female","Right-handed","2","3","no","left","d","459.67763144","662.63326455","8","green","2"
dis_reply=No
dis_loc=0
tar_loc=2
