"acc_1","acc_2","age","avg_rt","correct_1","correct_2","count_block_loop","count_trial_sequence","cue_position","detection","dis_shape","gender","hand","high_loc","low_loc","practice","response_keyboard_response_1","response_keyboard_response_2","response_time_keyboard_response_1","response_time_keyboard_response_2","subject_nr","tar_color","tar_position"
"100","100","18","843.249615062","1","1","0","0","3","left","out","Female","Left-handed","3","1","yes","left","s","894.851792971","791.647437152","34","green","2"
"100","100","18","747.119581967","1","1","0","1","0","left","out","Female","Left-handed","3","1","yes","left","s","708.370041793","593.609055952","34","green","1"
"100","66","18","819.637697264","1","0","0","2","1","left","in","Female","Left-handed","3","1","yes","left","d","1128.23228204","801.115573675","34","red","0"
"100","75","18","904.013847494","1","1","0","3","3","left","in","Female","Left-handed","3","1","yes","left","s","1408.6651313","905.619465069","34","green","3"
"100","60","18","973.640915742","1","0","0","4","1","left","out","Female","Left-handed","3","1","yes","left","d","1295.19887031","1209.09950716","34","green","3"
"100","66","18","1029.81285448","1","1","0","5","2","left","in","Female","Left-handed","3","1","yes","left","s","1683.63396586","937.711130435","34","green","0"
"100","71","18","1029.30183775","1","1","0","6","0","right","in","Female","Left-handed","3","1","yes","right","s","1043.29871647","1009.17275837","34","red","1"
"100","75","18","994.938542262","1","1","0","7","1","right","out","Female","Left-handed","3","1","yes","right","s","666.899719279","841.89122836","34","green","1"
"100","77","18","986.935494636","1","1","0","8","1","right","out","Female","Left-handed","3","1","yes","right","s","996.435577898","849.386649355","34","green","2"
"100","80","18","974.303031042","1","1","0","9","2","right","out","Female","Left-handed","3","1","yes","right","s","896.212264321","825.009453063","34","red","2"
"100","72","18","984.110792668","1","0","0","10","2","left","out","Female","Left-handed","3","1","yes","left","d","1186.7216457","977.655172152","34","green","3"
"100","75","18","971.320631111","1","1","0","11","3","left","in","Female","Left-handed","3","1","yes","left","d","828.27464844","832.983059532","34","red","1"
"100","76","18","980.960777566","1","1","0","12","0","left","out","Female","Left-handed","3","1","yes","left","d","1351.63598123","841.649088834","34","red","0"
"100","78","18","999.766783213","1","1","0","13","0","right","in","Female","Left-handed","3","1","yes","right","d","1375.18156456","1113.30814868","34","green","2"
"100","80","18","1010.2692816","1","1","0","14","0","left","out","Female","Left-handed","3","1","yes","left","d","1376.8075876","937.800930518","34","red","3"
"100","75","18","1019.11766722","1","0","0","15","3","right","out","Female","Left-handed","3","1","yes","right","d","878.391757378","1425.29514563","34","red","2"
"100","76","18","1040.12014233","1","1","0","16","0","left","in","Female","Left-handed","3","1","yes","left","d","1758.61222943","993.707258764","34","red","0"
"100","77","18","1032.72518361","1","1","0","17","3","left","in","Female","Left-handed","3","1","yes","left","d","732.520813577","1081.50095717","34","red","1"
"100","78","18","1030.79180064","1","1","0","18","2","right","in","Female","Left-handed","3","1","yes","right","s","1007.01499052","984.966823675","34","red","0"
"100","80","18","1029.82931248","1","1","0","19","3","left","out","Female","Left-handed","3","1","yes","left","s","925.571761974","1097.51231304","34","green","0"
"100","80","18","1018.25086776","1","1","0","20","2","right","in","Female","Left-handed","3","1","yes","right","s","564.109406016","1009.2545406","34","green","1"
"100","81","18","1027.83993729","1","1","0","21","0","left","in","Female","Left-handed","3","1","yes","left","s","1328.69718993","1129.72360495","34","green","2"
"100","0","18","866.0695816","1","0","1","22","2","right","out","Female","Left-handed","3","1","no","right","s","906.94401638","825.195146819","34","red","2"
"100","50","18","949.847933171","1","1","1","23","2","left","out","Female","Left-handed","3","1","no","left","d","1065.62526359","1001.6273059","34","red","0"
"100","66","18","1018.25539594","1","1","1","24","1","right","in","Female","Left-handed","3","1","no","right","d","1357.09871307","953.041929904","34","red","2"
"100","75","18","1023.75709461","1","1","1","25","0","left","in","Female","Left-handed","3","1","no","left","s","1014.69033241","1065.83404879","34","red","3"
"100","80","18","968.669743176","1","1","1","26","1","left","in","Female","Left-handed","3","1","no","left","s","831.322720034","665.317954856","34","green","2"
"100","83","18","946.622533131","1","1","1","27","3","right","in","Female","Left-handed","3","1","no","right","s","838.832252473","833.940713339","34","green","2"
"100","85","18","928.407978665","1","1","1","28","3","right","out","Female","Left-handed","3","1","no","right","d","692.610446895","945.630856848","34","red","2"
"100","87","18","918.86501828","1","1","1","29","3","right","in","Female","Left-handed","3","1","no","right","s","791.033910118","913.094681047","34","green","3"
"100","88","18","921.071886647","1","1","1","30","2","right","out","Female","Left-handed","3","1","no","right","s","955.766079747","921.687587415","34","red","0"
"100","90","18","905.68187613","1","1","1","31","0","right","in","Female","Left-handed","3","1","no","right","d","517.145563059","1017.1979999","34","green","1"
"100","90","18","911.110011611","1","1","1","32","3","left","out","Female","Left-handed","3","1","no","left","s","729.90859313","1200.87413972","34","red","2"
"100","91","18","912.841757491","1","1","1","33","1","right","in","Female","Left-handed","3","1","no","right","d","806.337128135","1057.4447962","34","red","3"
"100","92","18","905.276978877","1","1","1","34","0","left","in","Female","Left-handed","3","1","no","left","d","764.013704778","864.985566241","34","red","2"
"100","92","18","917.374709061","1","1","1","35","1","left","out","Female","Left-handed","3","1","no","left","d","1155.64953206","993.640870842","34","green","3"
"100","93","18","945.494328644","1","1","1","36","1","left","in","Female","Left-handed","3","1","no","left","s","669.256650897","2009.08135471","34","red","1"
"100","93","18","947.071065867","1","1","1","37","2","left","in","Female","Left-handed","3","1","no","left","d","731.694332044","1209.74991638","34","green","2"
"100","94","18","945.079406955","1","1","1","38","2","left","out","Female","Left-handed","3","1","no","left","d","897.301411111","929.124317641","34","red","0"
"100","94","18","931.869028851","1","1","1","39","0","left","out","Female","Left-handed","3","1","no","left","s","589.705959232","824.879242933","34","green","1"
"100","94","18","954.310524961","1","1","1","40","0","right","out","Female","Left-handed","3","1","no","right","d","563.271378753","2153.24353111","34","red","0"
"100","90","18","960.039994715","1","0","1","41","3","left","in","Female","Left-handed","3","1","no","left","d","1160.76589213","977.033947962","34","red","3"
"100","90","18","991.394868295","1","1","1","42","3","left","in","Female","Left-handed","3","1","no","left","d","1307.53964754","1929.44503224","34","red","3"
"100","90","18","990.561791981","1","1","1","43","3","left","out","Female","Left-handed","3","1","no","left","d","545.068900723","1401.06547805","34","red","1"
"100","91","18","986.602865563","1","1","1","44","1","left","out","Female","Left-handed","3","1","no","left","d","733.471732376","1065.54123636","34","green","0"
"100","91","18","994.912183531","1","1","1","45","2","right","out","Female","Left-handed","3","1","no","right","s","1202.92799604","1169.12499756","34","red","2"
"100","92","18","996.627198459","1","1","1","46","3","left","out","Female","Left-handed","3","1","no","left","d","921.786688228","1153.78842522","34","green","0"
"100","92","18","1006.12969486","1","1","1","47","2","left","out","Female","Left-handed","3","1","no","left","d","990.257652491","1497.12655751","34","green","2"
"100","92","18","1012.02276494","1","1","1","48","2","left","in","Female","Left-handed","3","1","no","left","s","1137.80465081","1192.68052304","34","red","3"
"100","92","18","1010.85728892","1","1","1","49","0","right","in","Female","Left-handed","3","1","no","right","s","853.415466205","1105.36340653","34","red","2"
"100","89","18","1016.37296711","1","0","1","50","2","right","out","Female","Left-handed","3","1","no","right","d","1180.74256335","1160.88134939","34","red","3"
"100","90","18","1018.57270028","1","1","1","51","0","right","in","Female","Left-handed","3","1","no","right","s","1123.23779352","1041.49213111","34","green","2"
"100","90","18","1019.64911815","1","1","1","52","0","left","out","Female","Left-handed","3","1","no","left","s","1294.90958574","808.973722891","34","red","0"
"100","90","18","1018.44141041","1","1","1","53","3","right","in","Female","Left-handed","3","1","no","right","s","792.498613711","1169.50632722","34","green","0"
"100","90","18","1020.74980236","1","1","1","54","1","right","out","Female","Left-handed","3","1","no","right","s","1300.18245454","889.054235082","34","green","3"
"100","88","18","1026.55689065","1","0","1","55","3","right","in","Female","Left-handed","3","1","no","right","s","947.677978165","1488.70362988","34","green","3"
"100","88","18","1027.93271628","1","1","1","56","0","right","in","Female","Left-handed","3","1","no","right","s","1276.21769722","873.203877953","34","green","3"
"100","88","18","1022.78976591","1","1","1","57","3","left","out","Female","Left-handed","3","1","no","left","s","708.768048615","976.804957732","34","red","1"
"100","89","18","1015.00613661","1","1","1","58","2","left","out","Female","Left-handed","3","1","no","left","s","676.293129298","793.297834502","34","red","1"
"100","89","18","1011.72431734","1","1","1","59","3","left","in","Female","Left-handed","3","1","no","left","s","1003.81137235","776.782635996","34","green","0"
"100","89","18","1022.75628824","1","1","1","60","2","right","out","Female","Left-handed","3","1","no","right","d","1483.50292187","1400.43944315","34","green","3"
"100","90","18","1020.89955555","1","1","1","61","0","right","out","Female","Left-handed","3","1","no","right","s","1023.86693936","873.10702214","34","red","3"
"100","90","18","1028.70776256","1","1","1","62","0","right","in","Female","Left-handed","3","1","no","right","d","1689.58931533","992.482770409","34","green","2"
"100","90","18","1032.50464651","1","1","1","63","3","left","in","Female","Left-handed","3","1","no","left","d","1375.25436677","1001.09940966","34","green","3"
"100","88","18","1038.07607307","1","0","1","64","0","left","out","Female","Left-handed","3","1","no","left","d","1239.6248024","1304.52717527","34","green","3"
"100","88","18","1036.07448518","1","1","1","65","2","right","out","Female","Left-handed","3","1","no","right","d","955.098351944","944.914059713","34","green","3"
"100","88","18","1046.68839187","1","1","1","66","1","right","in","Female","Left-handed","3","1","no","right","d","1578.69294046","1448.7076324","34","red","1"
"100","89","18","1045.34055645","1","1","1","67","2","left","out","Female","Left-handed","3","1","no","left","s","1128.15114125","841.224783413","34","green","3"
"100","89","18","1043.69119608","1","1","1","68","1","right","out","Female","Left-handed","3","1","no","right","d","822.795239441","1112.84599894","34","green","0"
"100","89","18","1043.08924974","1","1","1","69","3","left","in","Female","Left-handed","3","1","no","left","d","1205.24804548","824.347498125","34","red","3"
"100","89","18","1047.06625237","1","1","1","70","3","right","out","Female","Left-handed","3","1","no","right","d","1307.03676704","1168.88798946","34","green","0"
"100","90","18","1043.47454504","1","1","1","71","0","right","in","Female","Left-handed","3","1","no","right","s","838.510255009","896.451517416","34","red","3"
"100","90","18","1038.70258064","1","1","1","72","1","right","out","Female","Left-handed","3","1","no","right","d","687.221158696","912.987562369","34","green","0"
"100","90","18","1045.26838212","1","1","1","73","2","left","in","Female","Left-handed","3","1","no","left","d","1511.64915618","1248.59935915","34","green","3"
"100","90","18","1044.20031481","1","1","1","74","1","left","in","Female","Left-handed","3","1","no","left","d","1016.14220742","961.179421542","34","green","3"
"100","90","18","1042.12815568","1","1","1","75","1","left","out","Female","Left-handed","3","1","no","left","d","767.702243433","1096.90520029","34","red","0"
"100","90","18","1042.3125453","1","1","1","76","1","right","in","Female","Left-handed","3","1","no","right","s","1200.35907207","904.180097929","34","red","2"
"100","91","18","1036.99292902","1","1","1","77","0","left","in","Female","Left-handed","3","1","no","left","s","743.889825557","744.938241594","34","green","0"
"100","91","18","1035.46783925","1","1","1","78","0","left","out","Female","Left-handed","3","1","no","left","s","1059.60256405","840.523059862","34","green","3"
"100","91","18","1031.28012194","1","1","1","79","1","left","in","Female","Left-handed","3","1","no","left","s","928.1175945","657.042876657","34","red","2"
"100","91","18","1025.54080052","1","1","1","80","2","right","out","Female","Left-handed","3","1","no","right","d","576.592901241","808.727414074","34","green","1"
"100","91","18","1021.41971054","1","1","1","81","0","right","out","Female","Left-handed","3","1","no","right","s","828.238086975","728.312717263","34","green","0"
"100","91","18","1021.4358254","1","1","1","82","3","right","in","Female","Left-handed","3","1","no","right","d","891.846376424","1152.95905725","34","red","2"
"100","90","18","1018.99312488","1","0","1","83","2","right","in","Female","Left-handed","3","1","no","right","s","739.543501248","1000.43328543","34","red","0"
"100","90","18","1017.00815212","1","1","1","84","1","right","out","Female","Left-handed","3","1","no","right","s","986.875396284","801.004285709","34","red","3"
"100","90","18","1018.38486943","1","1","1","85","1","left","in","Female","Left-handed","3","1","no","left","s","953.553790416","1256.6823293","34","green","3"
"100","0","18","818.922129532","1","0","2","86","0","right","out","Female","Left-handed","3","1","no","right","d","756.492626613","881.351632452","34","red","0"
"100","50","18","729.528786863","1","1","2","87","0","right","in","Female","Left-handed","3","1","no","right","s","567.164533328","713.106355059","34","red","1"
"100","66","18","730.953053691","1","1","2","88","1","right","in","Female","Left-handed","3","1","no","right","d","729.76202656","737.841148133","34","green","0"
"100","75","18","790.274417848","1","1","2","89","0","left","in","Female","Left-handed","3","1","no","left","d","975.21485473","961.262165907","34","red","2"
"100","80","18","794.48191282","1","1","2","90","2","right","in","Female","Left-handed","3","1","no","right","s","701.808221009","920.815564408","34","green","0"
"100","83","18","872.066944684","1","1","2","91","0","left","in","Female","Left-handed","3","1","no","left","s","1742.43891269","777.545295325","34","green","3"
"100","85","18","849.492508085","1","1","2","92","0","left","in","Female","Left-handed","3","1","no","left","s","754.981419399","673.110357577","34","green","0"
"100","87","18","857.323233337","1","1","2","93","2","left","in","Female","Left-handed","3","1","no","left","d","1006.64969659","817.626923606","34","red","3"
"100","88","18","842.139425828","1","1","2","94","1","right","out","Female","Left-handed","3","1","no","right","s","736.148095741","705.189835786","34","green","2"
"100","90","18","830.701495846","1","1","2","95","2","left","in","Female","Left-handed","3","1","no","left","d","670.757915956","784.762336047","34","red","2"
"100","90","18","859.52487531","1","1","2","96","1","right","out","Female","Left-handed","3","1","no","right","s","1614.36827081","681.149069111","34","green","0"
"100","91","18","861.9336728","1","1","2","97","2","left","out","Female","Left-handed","3","1","no","left","s","1015.93919508","760.921695288","34","green","3"
"100","92","18","857.206658203","1","1","2","98","0","left","out","Female","Left-handed","3","1","no","left","s","975.558019356","625.40694674","34","red","3"
"100","92","18","852.846300871","1","1","2","99","2","right","out","Female","Left-handed","3","1","no","right","s","983.142599016","609.180712094","34","red","0"
"100","93","18","844.674785237","1","1","2","100","1","left","in","Female","Left-handed","3","1","no","left","d","595.789594543","864.757538158","34","red","1"
"100","93","18","862.026823688","1","1","2","101","0","right","in","Female","Left-handed","3","1","no","right","s","723.240936524","1521.37386439","34","red","0"
"100","94","18","855.253924939","1","1","2","102","1","right","out","Female","Left-handed","3","1","no","right","s","972.968248934","520.80684097","34","red","3"
"100","94","18","854.987573557","1","1","2","103","0","left","out","Female","Left-handed","3","1","no","left","d","867.452502971","833.466697157","34","green","1"
"100","94","18","855.070007525","1","1","2","104","2","left","out","Female","Left-handed","3","1","no","left","s","768.15573388","944.951904035","34","green","0"
"100","95","18","856.649103266","1","1","2","105","1","left","in","Female","Left-handed","3","1","no","left","d","908.652783786","864.651060907","34","green","2"
"100","95","18","856.350959335","1","1","2","106","3","left","in","Female","Left-handed","3","1","no","left","d","891.36402166","809.412139752","34","green","0"
"100","90","18","854.914449817","1","0","2","107","2","left","out","Female","Left-handed","3","1","no","left","s","736.700045574","912.795454322","34","red","0"
"100","91","18","852.284800815","1","1","2","108","1","right","out","Female","Left-handed","3","1","no","right","s","668.403229338","920.4618162","34","green","1"
"100","91","18","854.729427254","1","1","2","109","3","left","in","Female","Left-handed","3","1","no","left","d","813.001577597","1008.91009311","34","green","2"
"100","92","18","859.781497141","1","1","2","110","0","left","out","Female","Left-handed","3","1","no","left","d","1169.61120089","792.45114795","34","green","3"
"100","88","18","865.835953346","1","0","2","111","3","right","in","Female","Left-handed","3","1","no","right","d","833.212370475","1201.18234646","34","red","3"
"100","88","18","867.570603153","1","1","2","112","0","left","in","Female","Left-handed","3","1","no","left","s","696.606550853","1128.7364454","34","green","2"
"100","89","18","868.900792848","1","1","2","113","3","left","in","Female","Left-handed","3","1","no","left","d","801.337187469","1008.29464179","34","red","3"
"100","86","18","866.656566738","1","0","2","114","3","left","out","Female","Left-handed","3","1","no","left","s","678.901180458","928.735290825","34","green","1"
"100","86","18","867.014449583","1","1","2","115","2","left","out","Female","Left-handed","3","1","no","left","s","818.340513601","936.445590607","34","red","3"
"100","87","18","867.498509997","1","1","2","116","0","right","out","Female","Left-handed","3","1","no","right","s","803.024146284","961.016498521","34","red","0"
"100","84","18","870.562988629","1","0","2","117","3","right","in","Female","Left-handed","3","1","no","right","d","922.477828197","1008.64582428","34","green","2"
"100","84","18","883.998966289","1","1","2","118","1","left","in","Female","Left-handed","3","1","no","left","d","906.935677798","1720.96482498","34","red","0"
"100","85","18","880.692653555","1","1","2","119","3","left","in","Female","Left-handed","3","1","no","left","s","590.492351439","952.676315257","34","green","1"
"100","85","18","883.635784768","1","1","2","120","1","right","in","Female","Left-handed","3","1","no","right","d","878.202535761","1089.20195623","34","red","3"
"100","86","18","894.027396083","1","1","2","121","1","right","out","Female","Left-handed","3","1","no","right","s","962.643483705","1552.82410055","34","green","3"
"100","86","18","890.741566621","1","1","2","122","3","left","in","Female","Left-handed","3","1","no","left","d","648.485890321","896.417521664","34","red","3"
"100","86","18","894.235776177","1","1","2","123","2","left","out","Female","Left-handed","3","1","no","left","d","694.033136875","1353.00992259","34","green","2"
"100","87","18","887.256358358","1","1","2","124","0","right","in","Female","Left-handed","3","1","no","right","s","635.561091804","608.515870721","34","red","3"
"100","87","18","884.027538801","1","1","2","125","3","right","in","Female","Left-handed","3","1","no","right","s","571.057046469","945.150105657","34","green","3"
"100","87","18","881.629680281","1","1","2","126","3","left","out","Female","Left-handed","3","1","no","left","d","602.72280284","968.707876138","34","green","0"
"100","88","18","878.431342724","1","1","2","127","2","right","out","Female","Left-handed","3","1","no","right","s","806.215256584","688.383749133","34","red","3"
"100","88","18","874.792892019","1","1","2","128","1","right","in","Female","Left-handed","3","1","no","right","s","674.817521409","769.138403426","34","green","0"
"100","88","18","872.683456553","1","1","2","129","2","right","out","Female","Left-handed","3","1","no","right","d","699.440705805","864.514757202","34","red","3"
"100","88","18","871.359597935","1","1","2","130","2","right","in","Female","Left-handed","3","1","no","right","d","770.066551486","856.153086057","34","red","2"
"100","89","18","879.724964499","1","1","2","131","3","right","out","Female","Left-handed","3","1","no","right","d","1655.61473453","856.71818519","34","red","0"
"100","89","18","876.949029558","1","1","2","132","2","right","out","Female","Left-handed","3","1","no","right","d","674.268137292","824.243907304","34","green","1"
"100","89","18","873.854230375","1","1","2","133","3","right","out","Female","Left-handed","3","1","no","right","d","575.92068343","880.876654126","34","green","3"
"100","87","18","874.997745998","1","0","2","134","3","left","in","Female","Left-handed","3","1","no","left","s","867.466935124","992.306056662","34","red","2"
"100","86","18","873.696553312","1","0","2","135","0","right","in","Female","Left-handed","3","1","no","right","d","714.991194782","904.885028627","34","red","2"
"100","84","18","883.61404445","1","0","2","136","1","left","out","Female","Left-handed","3","1","no","left","d","1286.50012812","1472.47707452","34","red","3"
"100","82","18","886.805035816","1","0","2","137","1","right","out","Female","Left-handed","3","1","no","right","s","1114.04483013","985.0463609","34","red","3"
"100","81","18","886.592487275","1","0","2","138","1","left","out","Female","Left-handed","3","1","no","left","d","910.421524822","840.658401423","34","red","3"
"100","81","18","883.998985995","1","1","2","139","3","right","in","Female","Left-handed","3","1","no","right","s","605.108598775","887.978237592","34","red","3"
"100","81","18","883.831628099","1","1","2","140","1","right","in","Female","Left-handed","3","1","no","right","s","820.841125362","928.747477981","34","green","2"
"100","82","18","886.499654499","1","1","2","141","2","left","out","Female","Left-handed","3","1","no","left","d","954.340824053","1112.14138896","34","red","1"
"100","82","18","885.182166092","1","1","2","142","0","left","out","Female","Left-handed","3","1","no","left","d","797.926387659","824.879242933","34","red","2"
"100","82","18","893.288345221","1","1","2","143","0","right","out","Female","Left-handed","3","1","no","right","d","1662.25031967","1048.43079155","34","green","3"
"100","81","18","895.714917507","1","0","2","144","3","right","out","Female","Left-handed","3","1","no","right","s","1000.96182309","1071.950397","34","green","0"
"100","81","18","894.612163037","1","1","2","145","1","right","in","Female","Left-handed","3","1","no","right","d","842.481343232","816.617955465","34","green","2"
"100","81","18","901.226868479","1","1","2","146","0","right","in","Female","Left-handed","3","1","no","right","d","1156.04016245","1440.17822752","34","green","3"
"100","82","18","908.3856518","1","1","2","147","2","left","out","Female","Left-handed","3","1","no","left","s","1753.57829301","936.564575724","34","red","3"
"100","82","18","904.764101402","1","1","2","148","3","left","in","Female","Left-handed","3","1","no","left","s","728.227727894","632.22822564","34","green","2"
"100","82","18","902.364810677","1","1","2","149","2","left","out","Female","Left-handed","3","1","no","left","d","630.624652626","871.794337272","34","green","2"
"100","100","18","815.047897122","1","1","3","150","0","right","in","Female","Left-handed","3","1","no","right","d","796.985090299","833.110703945","34","red","2"
"100","100","18","947.487233153","1","1","3","151","1","left","in","Female","Left-handed","3","1","no","left","d","1135.42943845","1024.42369991","34","red","3"
"100","100","18","884.55027955","1","1","3","152","2","right","in","Female","Left-handed","3","1","no","right","s","684.132356349","833.22038834","34","red","2"
"100","100","18","889.952556689","1","1","3","153","3","left","in","Female","Left-handed","3","1","no","left","s","1163.57503134","648.743744863","34","red","0"
"100","100","18","876.72227751","1","1","3","154","2","left","in","Female","Left-handed","3","1","no","left","s","919.397043719","728.205277872","34","green","0"
"100","100","18","855.005328674","1","1","3","155","1","left","in","Female","Left-handed","3","1","no","left","s","811.942577977","680.898591006","34","green","0"
"100","100","18","888.438463047","1","1","3","156","3","left","in","Female","Left-handed","3","1","no","left","d","857.512595267","1320.5619433","34","red","2"
"100","100","18","891.464685955","1","1","3","157","0","left","in","Female","Left-handed","3","1","no","left","s","1056.05513982","769.241352813","34","red","0"
"100","100","18","922.259083021","1","1","3","158","1","left","out","Female","Left-handed","3","1","no","left","d","1432.56863212","904.659886976","34","green","2"
"100","90","18","991.899615047","1","0","3","159","3","right","in","Female","Left-handed","3","1","no","right","s","1388.16120527","1849.16760128","34","green","3"
"100","90","18","968.796699509","1","1","3","160","2","right","in","Female","Left-handed","3","1","no","right","d","738.824138392","736.71094987","34","red","3"
"100","91","18","973.916869279","1","1","3","161","2","right","out","Female","Left-handed","3","1","no","right","s","844.141682734","1216.33579076","34","green","1"
"100","84","18","991.993791657","1","0","3","162","0","left","out","Female","Left-handed","3","1","no","left","d","656.913307958","1760.92041243","34","red","1"
"100","85","18","973.801751826","1","1","3","163","2","right","out","Female","Left-handed","3","1","no","right","s","690.207653086","784.402814974","34","red","2"
"100","86","18","967.142297114","1","1","3","164","1","left","out","Female","Left-handed","3","1","no","left","s","786.985208961","960.834653339","34","green","0"
"100","87","18","953.982495638","1","1","3","165","2","left","in","Female","Left-handed","3","1","no","left","d","648.618024741","864.552922238","34","green","0"
"100","88","18","962.606507198","1","1","3","166","1","right","in","Female","Left-handed","3","1","no","right","s","720.041487643","1481.13989667","34","red","0"
"100","88","18","943.336803109","1","1","3","167","0","left","out","Female","Left-handed","3","1","no","left","s","550.663446262","680.840220946","34","red","1"
"100","89","18","930.202450418","1","1","3","168","2","right","out","Female","Left-handed","3","1","no","right","d","531.22012343","856.348080539","34","green","1"
"100","90","18","928.260071962","1","1","3","169","2","right","in","Female","Left-handed","3","1","no","right","d","949.906303231","832.803459354","34","green","3"
"100","90","18","928.768133528","1","1","3","170","3","left","in","Female","Left-handed","3","1","no","left","d","965.39361143","912.465118279","34","green","2"
"100","90","18","926.641505537","1","1","3","171","1","left","in","Female","Left-handed","3","1","no","left","d","978.975554171","784.989081272","34","green","3"
"100","91","18","939.357672235","1","1","3","172","1","left","in","Female","Left-handed","3","1","no","left","s","693.620377176","1744.60630198","34","red","2"
"100","87","18","928.061268997","1","0","3","173","2","left","out","Female","Left-handed","3","1","no","left","d","624.213246989","712.274742087","34","red","3"
"100","88","18","931.108931677","1","1","3","174","3","left","out","Female","Left-handed","3","1","no","left","d","1135.61577364","872.889898357","34","green","0"
"100","88","18","931.081274977","1","1","3","175","3","right","in","Female","Left-handed","3","1","no","right","s","820.424837806","1040.35487712","34","red","0"
"100","88","18","932.649980789","1","1","3","176","3","left","in","Female","Left-handed","3","1","no","left","d","689.84909416","1257.02356964","34","green","3"
"100","89","18","925.015757396","1","1","3","177","2","left","out","Female","Left-handed","3","1","no","left","s","669.436571792","768.346879784","34","red","0"
"100","89","18","915.935112048","1","1","3","178","0","left","out","Female","Left-handed","3","1","no","left","d","491.273515996","832.080568638","34","green","0"
"100","90","18","913.226959783","1","1","3","179","2","right","out","Female","Left-handed","3","1","no","right","s","756.619950309","912.761137857","34","green","2"
"100","90","18","904.034079672","1","1","3","180","1","left","out","Female","Left-handed","3","1","no","left","d","504.189334508","752.306018177","34","green","1"
"100","90","18","904.77740382","1","1","3","181","2","right","out","Female","Left-handed","3","1","no","right","s","1102.94201127","752.698893568","34","red","3"
"100","87","18","911.462112512","1","0","3","182","3","right","in","Female","Left-handed","3","1","no","right","s","594.452214646","1656.29336662","34","green","2"
"100","88","18","916.626385541","1","1","3","183","1","left","in","Female","Left-handed","3","1","no","left","s","702.05998197","1472.03480908","34","red","0"
"100","88","18","922.620917309","1","1","3","184","0","right","out","Female","Left-handed","3","1","no","right","d","988.437276399","1264.43271841","34","green","0"
"100","88","18","918.206742647","1","1","3","185","2","right","out","Female","Left-handed","3","1","no","right","s","743.22434275","784.1969162","34","green","2"
"100","89","18","912.651917199","1","1","3","186","1","right","in","Female","Left-handed","3","1","no","right","d","584.598258458","840.758143666","34","green","3"
"100","89","18","909.012473654","1","1","3","187","0","left","out","Female","Left-handed","3","1","no","left","d","644.417946292","904.288178746","34","green","3"
"100","87","18","911.408552799","1","0","3","188","0","right","in","Female","Left-handed","3","1","no","right","d","524.945983645","1479.97313694","34","green","3"
"100","85","18","905.64702247","1","0","3","189","3","right","out","Female","Left-handed","3","1","no","right","s","585.526727234","776.367952014","34","red","3"
"100","85","18","909.813645494","1","1","3","190","0","left","out","Female","Left-handed","3","1","no","left","d","1024.9089411","1128.04819186","34","red","3"
"100","85","18","906.832800955","1","1","3","191","2","right","out","Female","Left-handed","3","1","no","right","s","824.522287581","744.714062086","34","red","0"
"100","86","18","906.503332139","1","1","3","192","0","left","out","Female","Left-handed","3","1","no","left","s","601.124040542","1184.20724321","34","green","2"
"100","86","18","900.362471645","1","1","3","193","2","right","out","Female","Left-handed","3","1","no","right","d","512.827140923","759.783799873","34","green","3"
"100","86","18","895.481861754","1","1","3","194","1","right","in","Female","Left-handed","3","1","no","right","s","561.292890365","800.177162746","34","green","1"
"100","86","18","889.654933537","1","1","3","195","2","right","out","Female","Left-handed","3","1","no","right","s","622.910504269","631.975823253","34","red","3"
"100","87","18","886.474659292","1","1","3","196","0","left","out","Female","Left-handed","3","1","no","left","s","607.663411305","872.70067674","34","green","2"
"100","87","18","886.99004574","1","1","3","197","1","left","out","Female","Left-handed","3","1","no","left","s","606.20255629","1216.22386136","34","red","3"
"100","85","18","881.965044949","1","0","3","198","3","left","in","Female","Left-handed","3","1","no","left","s","673.834851867","607.695162053","34","green","3"
"100","86","18","882.642303475","1","1","3","199","1","right","in","Female","Left-handed","3","1","no","right","d","655.370029283","1176.28591322","34","green","2"
"100","86","18","879.520025065","1","1","3","200","1","right","out","Female","Left-handed","3","1","no","right","d","598.812329678","847.99987941","34","green","3"
"100","86","18","875.405438767","1","1","3","201","3","right","out","Female","Left-handed","3","1","no","right","s","547.442188788","783.680886401","34","red","2"
"100","86","18","879.777601487","1","1","3","202","1","right","out","Female","Left-handed","3","1","no","right","s","646.094962955","1568.16516289","34","green","3"
"100","87","18","878.266622261","1","1","3","203","3","left","in","Female","Left-handed","3","1","no","left","s","836.617397417","759.752049125","34","red","0"
"100","85","18","875.268457803","1","0","3","204","3","left","in","Female","Left-handed","3","1","no","left","s","858.381090409","568.354063791","34","red","3"
"100","85","18","878.956341075","1","1","3","205","0","right","in","Female","Left-handed","3","1","no","right","d","1043.8529113","1119.72693076","34","green","2"
"100","85","18","884.955997591","1","1","3","206","3","right","in","Female","Left-handed","3","1","no","right","s","777.501036711","1664.37248821","34","red","3"
"100","86","18","881.518907237","1","1","3","207","1","left","in","Female","Left-handed","3","1","no","left","s","683.13397179","688.075542403","34","green","2"
"100","84","18","891.00129616","1","0","3","208","3","right","out","Female","Left-handed","3","1","no","right","d","1618.46924844","1263.4904589","34","red","1"
"100","85","18","898.168166382","1","1","3","209","0","left","out","Female","Left-handed","3","1","no","left","d","1714.02071239","928.006306531","34","red","3"
"100","85","18","903.175659221","1","1","3","210","3","left","out","Female","Left-handed","3","1","no","left","d","1087.6968426","1319.55361658","34","red","1"
"100","85","18","919.012240507","1","1","3","211","0","right","out","Female","Left-handed","3","1","no","right","d","2786.01985801","984.067539928","34","red","0"
"100","85","18","924.101756411","1","1","3","212","0","right","in","Female","Left-handed","3","1","no","right","d","695.727151407","1783.57633344","34","red","3"
"100","85","18","928.297147071","1","1","3","213","0","right","in","Female","Left-handed","3","1","no","right","d","1057.12023302","1328.09328433","34","red","3"
"100","100","18","806.148066879","1","1","4","214","3","left","in","Female","Left-handed","3","1","no","left","d","788.224770906","824.071362851","34","green","3"
"100","100","18","830.245920752","1","1","4","215","0","right","out","Female","Left-handed","3","1","no","right","s","859.755031772","848.932517478","34","red","1"
"100","66","18","869.599794145","1","0","4","216","2","right","in","Female","Left-handed","3","1","no","right","s","728.29988868","1168.31519318","34","red","3"
"100","75","18","832.91378518","1","1","4","217","2","right","in","Female","Left-handed","3","1","no","right","s","796.7721358","648.939380771","34","red","0"
"100","80","18","824.247403094","1","1","4","218","0","right","in","Female","Left-handed","3","1","no","right","s","970.546532961","608.617216538","34","green","2"
"100","83","18","783.212643083","1","1","4","219","1","left","out","Female","Left-handed","3","1","no","left","s","563.960594438","592.117091619","34","red","2"
"100","85","18","777.560071106","1","1","4","220","3","right","out","Female","Left-handed","3","1","no","right","d","758.636283023","728.652995458","34","green","3"
"100","87","18","758.166436127","1","1","4","221","2","left","in","Female","Left-handed","3","1","no","left","d","596.377464412","648.444518137","34","red","3"
"100","88","18","768.811310165","1","1","4","222","1","right","in","Female","Left-handed","3","1","no","right","d","1027.00256604","680.938038902","34","green","1"
"100","90","18","769.828260537","1","1","4","223","1","left","out","Female","Left-handed","3","1","no","left","d","901.342094403","656.61953338","34","red","3"
"100","90","18","772.899379846","1","1","4","224","0","left","out","Female","Left-handed","3","1","no","left","d","743.038648994","864.182496873","34","red","2"
"100","91","18","783.802677775","1","1","4","225","2","left","in","Female","Left-handed","3","1","no","left","s","1014.57166801","792.906241972","34","green","3"
"100","92","18","793.500082066","1","1","4","226","1","right","out","Female","Left-handed","3","1","no","right","d","931.415182051","888.322685074","34","green","0"
"100","92","18","817.093655399","1","1","4","227","1","right","in","Female","Left-handed","3","1","no","right","s","726.752120005","1520.86809746","34","red","3"
"100","93","18","815.049757267","1","1","4","228","3","left","out","Female","Left-handed","3","1","no","left","s","884.352238285","688.518128551","34","red","0"
"100","93","18","806.079263572","1","1","4","229","2","right","out","Female","Left-handed","3","1","no","right","s","759.110299201","583.933417081","34","red","3"
"100","94","18","800.965998045","1","1","4","230","1","right","out","Female","Left-handed","3","1","no","right","d","725.563230968","712.744268269","34","red","0"
"100","94","18","798.312634947","1","1","4","231","2","right","in","Female","Left-handed","3","1","no","right","d","634.092539633","872.318384932","34","red","1"
"100","94","18","791.498684656","1","1","4","232","3","left","out","Female","Left-handed","3","1","no","left","d","608.736522368","728.958636475","34","green","2"
"100","90","18","799.966830092","1","0","4","233","3","right","in","Female","Left-handed","3","1","no","right","s","641.321126081","1280.40206066","34","green","1"
"100","90","18","803.082401799","1","1","4","234","1","left","in","Female","Left-handed","3","1","no","left","s","794.861638911","935.926032951","34","red","0"
"100","90","18","800.628094768","1","1","4","235","1","left","out","Female","Left-handed","3","1","no","left","d","785.616399036","712.558895226","34","green","0"
"100","91","18","801.458096873","1","1","4","236","3","left","in","Female","Left-handed","3","1","no","left","d","623.263611047","1016.17267531","34","red","0"
"100","91","18","796.077681781","1","1","4","237","1","right","out","Female","Left-handed","3","1","no","right","s","600.748804456","743.907464854","34","red","1"
"100","92","18","797.892661312","1","1","4","238","0","left","in","Female","Left-handed","3","1","no","left","s","986.474503028","696.429837106","34","red","3"
"100","92","18","792.780194965","1","1","4","239","2","right","out","Female","Left-handed","3","1","no","right","d","569.85757385","760.079498737","34","red","2"
"100","92","18","795.550498242","1","1","4","240","3","left","out","Female","Left-handed","3","1","no","left","s","910.669437213","824.48732969","34","green","0"
"100","92","18","789.378673413","1","1","4","241","1","left","out","Female","Left-handed","3","1","no","left","s","629.278292723","616.200513337","34","red","2"
"100","93","18","790.131468989","1","1","4","242","0","right","in","Female","Left-handed","3","1","no","right","d","486.743742938","1135.67574727","34","green","3"
"100","93","18","783.09244994","1","1","4","243","2","right","in","Female","Left-handed","3","1","no","right","s","541.418847817","616.502947207","34","red","2"
"100","93","18","781.008635427","1","1","4","244","1","right","in","Female","Left-handed","3","1","no","right","d","549.035498938","887.952901135","34","red","2"
"100","90","18","786.665546704","1","0","4","245","0","left","in","Female","Left-handed","3","1","no","left","s","755.660692928","1168.39889969","34","green","0"
"100","90","18","782.373138593","1","1","4","246","2","right","out","Female","Left-handed","3","1","no","right","s","585.995291269","704.036866788","34","green","3"
"100","91","18","783.54659188","1","1","4","247","2","right","out","Female","Left-handed","3","1","no","right","d","908.692873112","735.848227585","34","red","0"
"100","91","18","792.037650611","1","1","4","248","0","left","out","Female","Left-handed","3","1","no","left","s","1201.16438644","960.30290853","34","green","3"
"100","88","18","801.367993887","1","0","4","249","0","right","out","Female","Left-handed","3","1","no","right","s","879.961013936","1375.89900312","34","green","3"
"100","89","18","797.949422769","1","1","4","250","0","right","in","Female","Left-handed","3","1","no","right","s","637.520978744","712.240746343","34","green","2"
"100","89","18","794.888886991","1","1","4","251","1","right","out","Female","Left-handed","3","1","no","right","s","555.132604266","808.165522089","34","red","2"
"100","87","18","801.988698626","1","0","4","252","0","right","out","Female","Left-handed","3","1","no","right","d","759.792779878","1383.77030164","34","green","0"
"100","85","18","797.769205433","1","0","4","253","2","left","in","Female","Left-handed","3","1","no","left","s","498.312560114","768.105381685","34","red","1"
"100","85","18","805.307986262","1","1","4","254","1","left","in","Female","Left-handed","3","1","no","left","d","1029.78765166","1183.93078722","34","green","3"
"100","85","18","810.11841058","1","1","4","255","3","left","in","Female","Left-handed","3","1","no","left","d","1030.39893369","984.29268158","34","green","1"
"100","86","18","816.088541426","1","1","4","256","2","left","in","Female","Left-handed","3","1","no","left","d","1029.85820887","1103.80986499","34","green","3"
"100","86","18","818.633384343","1","1","4","257","0","left","out","Female","Left-handed","3","1","no","left","s","856.648590121","999.474669479","34","red","0"
"100","84","18","822.163456616","1","0","4","258","3","left","in","Female","Left-handed","3","1","no","left","d","946.973047466","1008.00022578","34","red","2"
"100","84","18","828.411875944","1","1","4","259","1","left","out","Female","Left-handed","3","1","no","left","d","1283.51203016","935.669461265","34","green","3"
"100","85","18","844.999928658","1","1","4","260","1","left","out","Female","Left-handed","3","1","no","left","d","935.98183729","2280.11886966","34","green","3"
"100","85","18","844.78423444","1","1","4","261","2","left","in","Female","Left-handed","3","1","no","left","d","829.530887542","839.76232482","34","red","0"
"100","85","18","847.792111982","1","1","4","262","0","right","in","Female","Left-handed","3","1","no","right","d","1128.11297621","856.227491848","34","red","0"
"100","86","18","844.772586085","1","1","4","263","3","right","in","Female","Left-handed","3","1","no","right","s","545.872611518","847.759022745","34","red","2"
"100","86","18","841.903553862","1","1","4","264","0","right","out","Female","Left-handed","3","1","no","right","d","597.56250487","799.341380491","34","green","1"
"100","86","18","840.733920461","1","1","4","265","2","left","out","Female","Left-handed","3","1","no","left","s","537.979504414","1024.18572967","34","green","2"
"100","86","18","848.118867555","1","1","4","266","2","left","out","Female","Left-handed","3","1","no","left","d","728.719383384","1735.55284944","34","red","0"
"100","87","18","846.768765923","1","1","4","267","3","right","in","Female","Left-handed","3","1","no","right","s","654.247207458","896.17955143","34","green","3"
"100","87","18","846.431185565","1","1","4","268","3","left","in","Female","Left-handed","3","1","no","left","d","880.73489827","775.66879418","34","red","3"
"100","87","18","845.465203176","1","1","4","269","0","left","out","Female","Left-handed","3","1","no","left","s","888.368547265","696.303796267","34","red","3"
"100","87","18","843.255798665","1","1","4","270","3","right","out","Female","Left-handed","3","1","no","right","s","807.078620299","631.979671827","34","green","3"
"100","87","18","840.821656216","1","1","4","271","3","right","out","Female","Left-handed","3","1","no","right","s","732.638515834","671.512557419","34","red","3"
"100","88","18","846.436161978","1","1","4","272","0","right","in","Female","Left-handed","3","1","no","right","s","1543.97847107","800.176521316","34","green","2"
"100","88","18","852.697546565","1","1","4","273","0","left","in","Female","Left-handed","3","1","no","left","d","1276.73372702","1167.50474738","34","green","3"
"100","88","18","849.715692024","1","1","4","274","2","right","out","Female","Left-handed","3","1","no","right","s","670.316291951","671.292547202","34","green","2"
"100","88","18","847.581644291","1","1","4","275","3","right","in","Female","Left-handed","3","1","no","right","s","818.826396222","615.983068834","34","green","2"
"100","88","18","856.792970237","1","1","4","276","1","left","out","Female","Left-handed","3","1","no","left","s","1560.5074603","1295.28289754","34","green","3"
"100","89","18","862.0458586","1","1","4","277","3","left","in","Female","Left-handed","3","1","no","left","s","1577.98736834","807.968282606","34","green","0"
"100","100","18","871.468491232","1","1","5","278","3","right","out","Female","Left-handed","3","1","no","right","s","974.488756867","768.448225597","34","green","3"
"100","100","18","901.272499331","1","1","5","279","3","right","out","Female","Left-handed","3","1","no","right","s","838.128604631","1024.02441023","34","red","0"
"100","100","18","834.058148336","1","1","5","280","1","left","in","Female","Left-handed","3","1","no","left","s","718.716294898","680.542597795","34","green","2"
"100","100","18","841.101067755","1","1","5","281","2","left","in","Female","Left-handed","3","1","no","left","d","1028.27067158","696.188980441","34","red","0"
"100","100","18","820.734776399","1","1","5","282","2","right","out","Female","Left-handed","3","1","no","right","s","902.856508757","575.682713192","34","red","1"
"100","100","18","834.584120286","1","1","5","283","2","left","out","Female","Left-handed","3","1","no","left","d","1159.3223557","648.339323747","34","red","0"
"100","100","18","859.279114208","1","1","5","284","0","left","in","Female","Left-handed","3","1","no","left","d","1038.86034707","976.037808407","34","green","3"
"100","100","18","852.182118108","1","1","5","285","3","left","in","Female","Left-handed","3","1","no","left","s","836.477886565","768.528404249","34","red","0"
"100","88","18","836.462207187","1","0","5","286","0","left","out","Female","Left-handed","3","1","no","left","d","693.261818251","728.144021385","34","green","0"
"100","90","18","856.343414141","1","1","5","287","0","right","out","Female","Left-handed","3","1","no","right","s","982.793340812","1087.75521265","34","green","1"
"100","90","18","855.381636237","1","1","5","288","3","right","in","Female","Left-handed","3","1","no","right","s","571.330616029","1120.19709836","34","red","1"
"100","91","18","847.045887097","1","1","5","289","0","right","in","Female","Left-handed","3","1","no","right","d","662.9141989","847.791094202","34","red","0"
"100","84","18","870.614317228","1","0","5","290","1","right","in","Female","Left-handed","3","1","no","right","s","1274.56729988","1032.30365772","34","red","1"
"100","85","18","876.000154218","1","1","5","291","1","right","in","Female","Left-handed","3","1","no","right","d","1172.05312189","719.978948291","34","green","0"
"100","86","18","863.904212811","1","1","5","292","1","left","out","Female","Left-handed","3","1","no","left","d","541.581129412","847.540936815","34","red","1"
"100","87","18","868.833059069","1","1","5","293","3","right","out","Female","Left-handed","3","1","no","right","d","669.259858045","1216.27164783","34","green","1"
"100","88","18","882.860839915","1","1","5","294","3","left","in","Female","Left-handed","3","1","no","left","d","1390.81736362","823.793303287","34","green","0"
"100","88","18","887.052575066","1","1","5","295","3","left","out","Female","Left-handed","3","1","no","left","d","1124.27947456","792.344670703","34","green","3"
"100","84","18","916.541324929","1","0","5","296","1","right","in","Female","Left-handed","3","1","no","right","s","1110.75237401","1783.92527093","34","green","3"
"100","85","18","925.904126538","1","1","5","297","1","right","in","Female","Left-handed","3","1","no","right","d","767.312575186","1440.28213905","34","green","0"
"100","80","18","915.76309527","1","0","5","298","2","left","out","Female","Left-handed","3","1","no","left","s","650.058033305","775.826906479","34","green","1"
"100","81","18","938.365038353","1","1","5","299","1","right","in","Female","Left-handed","3","1","no","right","d","985.499530634","1840.51215556","34","red","3"
"100","82","18","927.308466415","1","1","5","300","0","left","out","Female","Left-handed","3","1","no","left","s","560.02318125","808.104586315","34","red","1"
"100","83","18","920.641109027","1","1","5","301","1","left","out","Female","Left-handed","3","1","no","left","s","798.7288156","735.854962593","34","green","3"
"100","84","18","910.166364286","1","1","5","302","2","left","in","Female","Left-handed","3","1","no","left","s","813.260394279","504.284586743","34","red","3"
"100","84","18","903.997685328","1","1","5","303","0","left","in","Female","Left-handed","3","1","no","left","d","667.750895835","831.810526947","34","red","3"
"100","85","18","900.016580945","1","1","5","304","1","right","in","Female","Left-handed","3","1","no","right","d","681.538095923","911.477638012","34","green","2"
"100","85","18","889.696214088","1","1","5","305","0","right","in","Female","Left-handed","3","1","no","right","d","462.089128512","760.003489377","34","green","2"
"100","86","18","880.348304464","1","1","5","306","0","right","in","Female","Left-handed","3","1","no","right","d","493.604149022","743.609520992","34","green","3"
"100","86","18","878.228861086","1","1","5","307","0","right","out","Female","Left-handed","3","1","no","right","d","594.235732289","1039.29427393","34","red","2"
"100","83","18","882.957688422","1","0","5","308","3","right","out","Female","Left-handed","3","1","no","right","d","553.893363034","1495.75165401","34","red","3"
"100","84","18","890.815654809","1","1","5","309","2","right","in","Female","Left-handed","3","1","no","right","s","1341.48440188","927.340823728","34","red","0"
"100","84","18","894.970544842","1","1","5","310","0","left","out","Female","Left-handed","3","1","no","left","d","639.89554967","1415.95850209","34","red","0"
"100","85","18","888.91607312","1","1","5","311","2","right","out","Female","Left-handed","3","1","no","right","s","714.667593744","663.569418837","34","green","0"
"100","85","18","889.153166376","1","1","5","312","3","left","out","Female","Left-handed","3","1","no","left","s","1074.28616146","720.142512739","34","green","3"
"100","86","18","883.06948232","1","1","5","313","3","left","in","Female","Left-handed","3","1","no","left","d","540.612892022","799.668188669","34","green","3"
"100","86","18","881.319660674","1","1","5","314","2","left","out","Female","Left-handed","3","1","no","left","s","493.308450157","1143.34371273","34","red","2"
"100","86","18","878.65249835","1","1","5","315","0","right","out","Female","Left-handed","3","1","no","right","s","472.001134047","1087.93385069","34","green","2"
"100","87","18","879.957333938","1","1","5","316","2","right","in","Female","Left-handed","3","1","no","right","d","1155.50649335","703.575679184","34","red","3"
"100","87","18","883.634021982","1","1","5","317","2","left","out","Female","Left-handed","3","1","no","left","s","1382.0323492","672.017362209","34","green","3"
"100","87","18","883.489261775","1","1","5","318","1","right","out","Female","Left-handed","3","1","no","right","s","427.627702946","1327.77000401","34","green","3"
"100","88","18","878.481931634","1","1","5","319","0","left","in","Female","Left-handed","3","1","no","left","d","611.216287686","735.146504034","34","red","3"
"100","88","18","874.630252422","1","1","5","320","0","right","in","Female","Left-handed","3","1","no","right","s","561.900965255","863.818485799","34","red","2"
"100","88","18","877.807080078","1","1","5","321","1","left","out","Female","Left-handed","3","1","no","left","d","957.524557922","1071.29678064","34","red","0"
"100","88","18","881.166961421","1","1","5","322","1","right","out","Female","Left-handed","3","1","no","right","d","993.987563328","1064.01591771","34","red","3"
"100","89","18","875.207249611","1","1","5","323","2","right","out","Female","Left-handed","3","1","no","right","s","582.54953357","631.490902772","34","green","2"
"100","89","18","871.443236664","1","1","5","324","0","left","in","Female","Left-handed","3","1","no","left","d","557.38626578","839.21101642","34","red","0"
"100","89","18","880.542847017","1","1","5","325","1","left","in","Female","Left-handed","3","1","no","left","s","1192.74851453","1423.70055262","34","green","2"
"100","89","18","879.478570809","1","1","5","326","1","right","out","Female","Left-handed","3","1","no","right","s","1081.4422664","575.344359288","34","red","3"
"100","90","18","885.957212823","1","1","5","327","1","left","in","Female","Left-handed","3","1","no","left","d","910.943006773","1495.87833627","34","green","2"
"100","90","18","893.202165965","1","1","5","328","0","right","in","Female","Left-handed","3","1","no","right","s","679.438056701","1831.46158946","34","green","3"
"100","90","18","893.803068553","1","1","5","329","1","left","in","Female","Left-handed","3","1","no","left","s","1272.98906331","575.909137704","34","green","0"
"100","90","18","888.119010121","1","1","5","330","3","left","out","Female","Left-handed","3","1","no","left","s","545.544199762","639.551743614","34","green","3"
"100","90","18","890.121784125","1","1","5","331","2","right","in","Female","Left-handed","3","1","no","right","d","633.187162308","1359.3504503","34","green","2"
"100","90","18","888.988622708","1","1","5","332","2","left","out","Female","Left-handed","3","1","no","left","s","727.820741063","927.775071305","34","green","3"
"100","89","18","885.968130177","1","0","5","333","3","left","out","Female","Left-handed","3","1","no","left","s","632.28306784","807.399014186","34","red","2"
"100","89","18","888.018515405","1","1","5","334","3","right","out","Female","Left-handed","3","1","no","right","s","925.971372373","1079.70880397","34","red","0"
"100","89","18","886.656456588","1","1","5","335","3","right","in","Female","Left-handed","3","1","no","right","s","682.460791839","935.577416174","34","red","2"
"100","89","18","882.47015453","1","1","5","336","2","left","in","Female","Left-handed","3","1","no","left","d","496.209313744","783.119956563","34","green","2"
"100","90","18","880.683338053","1","1","5","337","0","left","in","Female","Left-handed","3","1","no","left","s","758.673806631","791.848525212","34","red","3"
"100","90","18","877.046504201","1","1","5","338","3","right","out","Female","Left-handed","3","1","no","right","s","494.345961895","823.326984253","34","red","2"
"100","90","18","872.430860061","1","1","5","339","3","right","out","Female","Left-handed","3","1","no","right","s","526.894004146","654.859130922","34","green","2"
"100","90","18","873.90049807","1","1","5","340","2","left","out","Female","Left-handed","3","1","no","left","d","1186.4580183","743.578090958","34","red","3"
"100","90","18","871.606370951","1","1","5","341","2","left","in","Female","Left-handed","3","1","no","left","d","655.099666874","799.053058065","34","red","3"
"100","100","18","1086.11604032","1","1","6","342","1","left","in","Female","Left-handed","3","1","no","left","d","1276.07497923","896.157101408","34","red","3"
"100","100","18","898.429925623","1","1","6","343","2","right","out","Female","Left-handed","3","1","no","right","s","741.680422652","679.807199209","34","green","3"
"100","100","18","880.248588027","1","1","6","344","0","left","out","Female","Left-handed","3","1","no","left","s","1064.35363018","623.418195486","34","red","0"
"100","100","18","899.184567085","1","1","6","345","1","left","out","Female","Left-handed","3","1","no","left","s","1032.04965175","879.935356763","34","green","3"
"100","100","18","878.445092216","1","1","6","346","1","right","in","Female","Left-handed","3","1","no","right","s","943.459618986","647.5147665","34","green","2"
"100","83","18","904.172881848","1","0","6","347","0","left","in","Female","Left-handed","3","1","no","left","s","849.305829277","1216.31783074","34","red","3"
"100","85","18","862.825301395","1","1","6","348","1","right","in","Female","Left-handed","3","1","no","right","s","541.696907382","687.782729969","34","red","1"
"100","87","18","847.326879861","1","1","6","349","1","left","out","Female","Left-handed","3","1","no","left","s","813.308822188","664.367036054","34","green","0"
"100","88","18","852.559140397","1","1","6","350","3","left","out","Female","Left-handed","3","1","no","left","d","932.910032818","855.924416548","34","red","0"
"100","90","18","873.848017198","1","1","6","351","0","left","in","Female","Left-handed","3","1","no","left","d","1139.40597883","991.489837998","34","red","2"
"100","90","18","863.57727926","1","1","6","352","2","left","out","Female","Left-handed","3","1","no","left","s","937.895862044","583.843937711","34","green","1"
"100","91","18","859.876569243","1","1","6","353","3","right","in","Female","Left-handed","3","1","no","right","d","910.708885109","727.628633016","34","red","2"
"100","92","18","848.324787975","1","1","6","354","2","right","in","Female","Left-handed","3","1","no","right","d","643.093074264","776.313751249","34","red","2"
"100","92","18","867.427922486","1","1","6","355","1","left","in","Female","Left-handed","3","1","no","left","s","1183.80923639","1047.72810586","34","red","0"
"100","93","18","850.851000165","1","1","6","356","3","left","out","Female","Left-handed","3","1","no","left","d","582.276926158","655.271249187","34","red","3"
"100","87","18","865.609055473","1","0","6","357","1","left","out","Female","Left-handed","3","1","no","left","d","1037.96876047","1135.99100973","34","red","3"
"100","88","18","855.517269359","1","1","6","358","3","right","out","Female","Left-handed","3","1","no","right","s","548.528128434","839.569254629","34","red","3"
"100","88","18","865.723094014","1","1","6","359","3","left","in","Female","Left-handed","3","1","no","left","d","1094.18554046","984.258685836","34","green","0"
"100","84","18","862.594638871","1","0","6","360","2","left","in","Female","Left-handed","3","1","no","left","s","780.781947106","831.78294549","34","red","3"
"100","85","18","868.826620724","1","1","6","361","1","left","in","Female","Left-handed","3","1","no","left","s","1031.21483164","943.253720208","34","green","2"
"100","85","18","877.966314185","1","1","6","362","2","left","in","Female","Left-handed","3","1","no","left","s","1073.86955318","1047.65081364","34","green","3"
"100","86","18","873.647244025","1","1","6","363","2","left","out","Female","Left-handed","3","1","no","left","s","750.463833494","815.429707858","34","green","3"
"100","86","18","874.293143271","1","1","6","364","2","right","out","Female","Left-handed","3","1","no","right","d","1121.0367292","655.969124164","34","red","2"
"100","87","18","871.175598622","1","1","6","365","0","left","in","Female","Left-handed","3","1","no","left","s","759.514078891","839.430064491","34","green","0"
"100","88","18","876.614023503","1","1","6","366","2","left","in","Female","Left-handed","3","1","no","left","d","1191.22095087","823.05149041","34","green","0"
"100","88","18","869.428653842","1","1","6","367","3","right","in","Female","Left-handed","3","1","no","right","s","643.831359281","735.757465354","34","red","2"
"100","88","18","860.999303468","1","1","6","368","3","right","out","Female","Left-handed","3","1","no","right","d","540.277745262","743.394642206","34","red","2"
"100","89","18","854.766064125","1","1","6","369","2","right","out","Female","Left-handed","3","1","no","right","d","693.973483958","678.963719802","34","green","3"
"100","89","18","850.584822527","1","1","6","370","3","right","out","Female","Left-handed","3","1","no","right","d","483.470529696","983.549585843","34","red","3"
"100","90","18","861.338287519","1","1","6","371","0","right","in","Female","Left-handed","3","1","no","right","d","963.23039143","1383.14715316","34","green","2"
"100","90","18","866.747686073","1","1","6","372","1","left","in","Female","Left-handed","3","1","no","left","d","1250.57848897","807.480796411","34","green","0"
"100","90","18","862.063154639","1","1","6","373","1","left","out","Female","Left-handed","3","1","no","left","s","570.469818031","863.215542344","34","red","2"
"100","90","18","857.771635478","1","1","6","374","3","right","in","Female","Left-handed","3","1","no","right","d","536.938785525","903.947259125","34","green","3"
"100","91","18","856.967880376","1","1","6","375","3","right","out","Female","Left-handed","3","1","no","right","d","717.456207221","943.431716813","34","red","0"
"100","91","18","867.569980728","1","1","6","376","3","right","in","Female","Left-handed","3","1","no","right","d","1609.03863553","847.044149894","34","red","1"
"100","91","18","873.488748245","1","1","6","377","1","right","out","Female","Left-handed","3","1","no","right","s","657.635557243","1503.65566541","34","red","2"
"100","91","18","875.588204668","1","1","6","378","3","left","out","Female","Left-handed","3","1","no","left","s","695.257304517","1207.0799673","34","green","2"
"100","92","18","876.999526845","1","1","6","379","3","right","in","Female","Left-handed","3","1","no","right","d","1074.83330057","783.603594183","34","red","1"
"100","92","18","876.979001327","1","1","6","380","0","right","in","Female","Left-handed","3","1","no","right","s","1009.14806335","743.249999919","34","green","3"
"100","92","18","874.629265945","1","1","6","381","1","left","out","Female","Left-handed","3","1","no","left","d","783.065755797","782.913416354","34","green","3"
"100","92","18","870.445235647","1","1","6","382","1","left","out","Female","Left-handed","3","1","no","left","s","606.518780885","799.649266508","34","red","3"
"100","92","18","872.839828698","1","1","6","383","0","left","in","Female","Left-handed","3","1","no","left","d","1135.01764091","807.018646669","34","red","0"
"100","93","18","867.909002915","1","1","6","384","0","right","out","Female","Left-handed","3","1","no","right","d","497.777287441","823.851352626","34","red","3"
"100","93","18","865.486453205","1","1","6","385","3","right","out","Female","Left-handed","3","1","no","right","s","563.279396622","959.354234728","34","green","3"
"100","93","18","857.38783372","1","1","6","386","0","right","out","Female","Left-handed","3","1","no","right","s","547.014996937","455.082155855","34","green","1"
"100","93","18","853.478451764","1","1","6","387","2","right","in","Female","Left-handed","3","1","no","right","d","555.635484761","799.477042769","34","red","2"
"100","93","18","857.715092418","1","1","6","388","0","left","in","Female","Left-handed","3","1","no","left","s","1482.16682483","623.034300105","34","red","0"
"100","93","18","860.079494727","1","1","6","389","0","left","in","Female","Left-handed","3","1","no","left","d","782.800204102","1159.61260242","34","red","3"
"100","93","18","858.960935868","1","1","6","390","3","right","in","Female","Left-handed","3","1","no","right","s","1187.25178694","423.288434355","34","green","0"
"100","94","18","871.748087018","1","1","6","391","2","right","out","Female","Left-handed","3","1","no","right","d","1549.88443049","1446.75255618","34","red","2"
"100","94","18","866.25937547","1","1","6","392","0","left","in","Female","Left-handed","3","1","no","left","s","704.311398488","479.336197743","34","green","1"
"100","94","18","863.264352638","1","1","6","393","3","left","out","Female","Left-handed","3","1","no","left","d","598.001563161","823.034813249","34","red","3"
"100","94","18","861.413819136","1","1","6","394","2","right","in","Female","Left-handed","3","1","no","right","s","858.69122143","671.680932588","34","green","0"
"100","94","18","862.82665213","1","1","6","395","1","left","out","Female","Left-handed","3","1","no","left","d","1204.01874641","671.394855159","34","green","3"
"100","94","18","871.742463141","1","1","6","396","2","right","out","Female","Left-handed","3","1","no","right","d","931.801322433","1774.59119311","34","green","0"
"100","94","18","872.199342544","1","1","6","397","0","right","out","Female","Left-handed","3","1","no","right","s","707.38320296","1087.27221646","34","green","3"
"100","94","18","871.956236253","1","1","6","398","2","right","in","Female","Left-handed","3","1","no","right","d","1037.80038531","678.884182584","34","red","0"
"100","94","18","869.825177253","1","1","6","399","0","right","in","Female","Left-handed","3","1","no","right","s","833.398705661","663.310922868","34","green","3"
"100","94","18","863.727147365","1","1","6","400","0","right","out","Female","Left-handed","3","1","no","right","s","533.004258766","487.078568985","34","green","2"
"100","95","18","861.644858608","1","1","6","401","1","left","out","Female","Left-handed","3","1","no","left","d","534.772679093","942.806964765","34","red","1"
"100","95","18","858.220683161","1","1","6","402","2","right","in","Female","Left-handed","3","1","no","right","s","698.225197455","607.315115245","34","green","3"
"100","95","18","853.829400129","1","1","6","403","2","left","in","Female","Left-handed","3","1","no","left","s","684.941519295","486.980751033","34","green","1"
"100","95","18","851.372198557","1","1","6","404","1","left","out","Female","Left-handed","3","1","no","left","s","655.549950177","742.501452034","34","green","0"
"100","95","18","848.743310896","1","1","6","405","0","right","out","Female","Left-handed","3","1","no","right","d","639.159509654","727.087266761","34","green","2"
"100","0","18","753.472136476","1","0","7","406","0","left","out","Female","Left-handed","3","1","no","left","d","691.142856868","815.801416084","34","green","2"
"100","50","18","787.247553509","1","1","7","407","1","right","in","Female","Left-handed","3","1","no","right","s","802.427296403","839.618644681","34","green","3"
"100","66","18","756.066129641","1","1","7","408","3","right","in","Female","Left-handed","3","1","no","right","d","588.195393448","799.211170365","34","green","3"
"100","75","18","742.238866954","1","1","7","409","3","right","out","Female","Left-handed","3","1","no","right","d","529.761192698","871.752965086","34","red","3"
"100","80","18","831.849461696","1","1","7","410","2","left","in","Female","Left-handed","3","1","no","left","s","1653.32483226","727.258849074","34","red","3"
"100","83","18","896.691305031","1","1","7","411","2","right","out","Female","Left-handed","3","1","no","right","s","1025.93618998","1415.86485343","34","red","0"
"100","85","18","925.720069573","1","1","7","412","3","left","out","Female","Left-handed","3","1","no","left","s","1584.44303259","615.342281057","34","green","1"
"100","87","18","922.825382604","1","1","7","413","2","left","in","Female","Left-handed","3","1","no","left","d","838.151054653","966.974092993","34","green","2"
"100","88","18","908.08164453","1","1","7","414","3","right","in","Female","Left-handed","3","1","no","right","d","780.62832481","799.635155065","34","red","3"
"100","90","18","883.039457197","1","1","7","415","1","right","out","Female","Left-handed","3","1","no","right","s","660.166636895","655.1529055","34","green","2"
"100","90","18","902.91775067","1","1","7","416","0","right","in","Female","Left-handed","3","1","no","right","s","1051.72741696","1151.67395384","34","green","0"
"100","83","18","900.484383283","1","0","7","417","1","right","in","Female","Left-handed","3","1","no","right","s","1020.24703363","727.187650435","34","red","3"
"100","84","18","890.863879569","1","1","7","418","1","right","in","Female","Left-handed","3","1","no","right","d","870.8726035","679.963066504","34","red","2"
"100","85","18","878.232499669","1","1","7","419","1","left","out","Female","Left-handed","3","1","no","left","s","508.66843466","919.380687272","34","green","2"
"100","86","18","867.255402464","1","1","7","420","0","left","in","Female","Left-handed","3","1","no","left","s","844.031998339","583.120084852","34","red","0"
"100","87","18","860.969507818","1","1","7","421","2","left","out","Female","Left-handed","3","1","no","left","d","822.623015698","710.739160568","34","red","3"
"100","88","18","872.045173821","1","1","7","422","3","right","in","Female","Left-handed","3","1","no","right","d","1411.18145808","687.330201661","34","green","0"
"100","88","18","855.502436308","1","1","7","423","3","left","out","Female","Left-handed","3","1","no","left","s","524.798775641","623.753021533","34","red","1"
"100","89","18","843.24262686","1","1","7","424","0","right","out","Female","Left-handed","3","1","no","right","s","557.629367453","687.502746117","34","red","1"
"100","90","18","829.787707779","1","1","7","425","3","right","out","Female","Left-handed","3","1","no","right","s","581.251601568","567.036888915","34","green","2"
"100","90","18","830.377459554","1","1","7","426","1","left","out","Female","Left-handed","3","1","no","left","d","884.684498611","799.660491521","34","green","0"
"100","90","18","826.212322339","1","1","7","427","0","left","out","Female","Left-handed","3","1","no","left","s","918.18153537","559.307346255","34","red","3"
"100","91","18","827.329774414","1","1","7","428","1","left","in","Female","Left-handed","3","1","no","left","d","968.85957415","734.967865999","34","green","0"
"100","91","18","813.443549045","1","1","7","429","3","right","in","Female","Left-handed","3","1","no","right","s","508.493324483","479.627406603","34","red","3"
"100","92","18","800.773845852","1","1","7","430","2","left","out","Female","Left-handed","3","1","no","left","s","466.114417501","527.287520963","34","red","2"
"100","88","18","799.619014488","1","0","7","431","1","right","in","Female","Left-handed","3","1","no","right","s","942.734483269","598.761977486","34","green","2"
"100","88","18","793.51643714","1","1","7","432","3","right","out","Female","Left-handed","3","1","no","right","d","606.348160716","663.350691477","34","red","2"
"100","89","18","794.369937606","1","1","7","433","2","right","out","Female","Left-handed","3","1","no","right","d","995.881062347","638.947838015","34","green","0"
"100","89","18","793.735045921","1","1","7","434","0","right","out","Female","Left-handed","3","1","no","right","s","840.399905453","711.516252053","34","green","3"
"100","90","18","794.767391578","1","1","7","435","1","left","in","Female","Left-handed","3","1","no","left","s","962.128095336","687.2827359","34","green","1"
"100","90","18","788.235442425","1","1","7","436","3","left","in","Female","Left-handed","3","1","no","left","d","569.780602346","614.773333349","34","red","2"
"100","90","18","781.36624401","1","1","7","437","2","left","in","Female","Left-handed","3","1","no","left","s","593.481732256","543.36045403","34","red","1"
"100","90","18","784.382347553","1","1","7","438","1","left","out","Female","Left-handed","3","1","no","left","d","922.935808652","838.859513212","34","green","3"
"100","91","18","776.547995534","1","1","7","439","2","left","in","Female","Left-handed","3","1","no","left","d","420.526119477","615.50263836","34","green","2"
"100","91","18","773.53814962","1","1","7","440","0","right","out","Female","Left-handed","3","1","no","right","d","519.286653751","823.120123336","34","red","2"
"100","91","18","770.186583382","1","1","7","441","3","right","in","Female","Left-handed","3","1","no","right","d","514.949309454","790.814220614","34","red","2"
"100","91","18","785.084610883","1","1","7","442","3","left","out","Female","Left-handed","3","1","no","left","s","1099.43692137","1543.39028049","34","red","0"
"100","89","18","783.31858018","1","0","7","443","2","left","out","Female","Left-handed","3","1","no","left","s","668.993344211","766.957544121","34","green","3"
"100","89","18","783.371923112","1","1","7","444","2","right","in","Female","Left-handed","3","1","no","right","s","995.412819026","575.385090044","34","red","0"
"100","90","18","778.067258342","1","1","7","445","1","right","out","Female","Left-handed","3","1","no","right","s","575.206772726","567.163891898","34","red","1"
"100","90","18","773.56066278","1","1","7","446","0","right","out","Female","Left-handed","3","1","no","right","d","435.814584624","750.779095953","34","red","1"
"100","90","18","771.48103652","1","1","7","447","0","left","out","Female","Left-handed","3","1","no","left","s","837.093658607","535.339061083","34","red","3"
"100","90","18","771.227161699","1","1","7","448","0","left","out","Female","Left-handed","3","1","no","left","d","906.063013365","615.06582507","34","green","2"
"100","90","18","768.835455682","1","1","7","449","0","right","out","Female","Left-handed","3","1","no","right","s","748.395545015","583.588648886","34","red","3"
"100","88","18","767.044108556","1","0","7","450","2","right","in","Female","Left-handed","3","1","no","right","s","761.19109555","615.258574547","34","red","3"
"100","89","18","770.126281096","1","1","7","451","0","left","in","Female","Left-handed","3","1","no","left","s","586.883029289","1230.76506148","34","red","3"
"100","89","18","770.365904451","1","1","7","452","1","right","in","Female","Left-handed","3","1","no","right","s","643.38043455","919.396723002","34","red","3"
"100","89","18","766.399320309","1","1","7","453","1","left","in","Female","Left-handed","3","1","no","left","s","528.896546126","631.043185182","34","green","3"
"100","89","18","766.504475837","1","1","7","454","1","right","out","Female","Left-handed","3","1","no","right","d","472.547952446","1070.5559299","34","green","3"
"100","90","18","768.120320573","1","1","7","455","1","left","out","Female","Left-handed","3","1","no","left","d","903.291077048","791.30234824","34","green","0"
"100","90","18","765.99632158","1","1","7","456","0","right","in","Female","Left-handed","3","1","no","right","s","608.846527477","710.74621629","34","green","2"
"100","90","18","766.357850986","1","1","7","457","3","right","out","Female","Left-handed","3","1","no","right","s","739.407197539","830.184503902","34","green","0"
"100","88","18","767.972548355","1","0","7","458","3","left","in","Female","Left-handed","3","1","no","left","s","616.987867688","1086.88575537","34","red","3"
"100","87","18","771.241219205","1","0","7","459","1","right","in","Female","Left-handed","3","1","no","right","s","914.547197484","974.41435108","34","green","0"
"100","85","18","771.984553102","1","0","7","460","2","left","out","Female","Left-handed","3","1","no","left","s","849.042843303","775.206323724","34","red","0"
"100","85","18","771.256328214","1","1","7","461","2","left","in","Female","Left-handed","3","1","no","left","d","743.693227501","718.714691324","34","green","3"
"100","85","18","768.037291726","1","1","7","462","2","right","in","Female","Left-handed","3","1","no","right","s","576.291750229","599.250746542","34","green","3"
"100","86","18","770.931065349","1","1","7","463","3","left","in","Female","Left-handed","3","1","no","left","d","840.862055196","1030.89026846","34","green","0"
"100","86","18","769.863316274","1","1","7","464","0","left","in","Female","Left-handed","3","1","no","left","d","625.476862526","790.390877337","34","red","3"
"100","86","18","768.02440125","1","1","7","465","2","right","out","Female","Left-handed","3","1","no","right","d","520.042898785","799.013930879","34","green","2"
"100","86","18","766.076170444","1","1","7","466","2","right","out","Female","Left-handed","3","1","no","right","s","659.586784889","638.777859272","34","green","1"
"100","87","18","771.022780182","1","1","7","467","0","left","out","Female","Left-handed","3","1","no","left","d","1114.18786884","1031.34407962","34","red","0"
"100","87","18","775.010466368","1","1","7","468","0","left","in","Female","Left-handed","3","1","no","left","s","869.869087506","1174.62493229","34","green","0"
"100","87","18","771.297326351","1","1","7","469","3","left","in","Female","Left-handed","3","1","no","left","s","508.425012274","566.313998195","34","red","3"
"100","100","18","773.694956155","1","1","8","470","1","right","out","Female","Left-handed","3","1","no","right","s","868.231518743","679.158393566","34","green","2"
"100","50","18","767.770154749","1","0","8","471","0","right","out","Female","Left-handed","3","1","no","right","d","772.897499293","750.793207393","34","red","3"
"100","66","18","754.144728452","1","1","8","472","0","right","in","Female","Left-handed","3","1","no","right","d","830.449093454","623.338658264","34","green","3"
"100","75","18","759.359133648","1","1","8","473","1","right","in","Female","Left-handed","3","1","no","right","d","686.990244183","863.014454288","34","green","2"
"100","80","18","725.584173633","1","1","8","474","0","left","in","Female","Left-handed","3","1","no","left","s","549.392775007","631.575892141","34","green","3"
"100","83","18","746.174756747","1","1","8","475","1","right","out","Female","Left-handed","3","1","no","right","d","923.106749535","775.148595094","34","green","1"
"100","85","18","762.537134743","1","1","8","476","3","left","in","Female","Left-handed","3","1","no","left","d","642.649205253","1078.77360018","34","red","3"
"100","87","18","809.116841783","1","1","8","477","1","left","in","Female","Left-handed","3","1","no","left","d","1271.21903942","999.13054271","34","red","0"
"100","77","18","849.016811967","1","0","8","478","3","left","out","Female","Left-handed","3","1","no","left","d","529.649263302","1806.78388358","34","green","2"
"100","70","18","887.032321939","1","0","8","479","1","left","out","Female","Left-handed","3","1","no","left","d","1515.10004531","943.24377806","34","red","0"
"100","72","18","875.557850253","1","1","8","480","1","right","out","Female","Left-handed","3","1","no","right","s","954.80906737","566.817199411","34","red","3"
"100","75","18","860.720035287","1","1","8","481","2","right","in","Female","Left-handed","3","1","no","right","s","843.589412183","551.418729155","34","red","1"
"100","76","18","843.596134857","1","1","8","482","2","left","in","Female","Left-handed","3","1","no","left","d","581.151859329","695.066800043","34","green","2"
"100","78","18","841.96049126","1","1","8","483","1","right","out","Female","Left-handed","3","1","no","right","s","818.734992561","822.659256446","34","red","1"
"100","80","18","838.286364145","1","1","8","484","1","left","out","Female","Left-handed","3","1","no","left","s","1022.35637357","551.340795508","34","red","3"
"100","81","18","820.918898653","1","1","8","485","0","left","out","Female","Left-handed","3","1","no","left","s","553.981559551","566.832272998","34","red","2"
"100","82","18","812.250803574","1","1","8","486","0","left","in","Female","Left-handed","3","1","no","left","s","747.594720651","599.527843959","34","red","1"
"100","83","18","797.823901527","1","1","8","487","3","right","out","Female","Left-handed","3","1","no","right","s","578.048304109","527.084829333","34","green","3"
"100","84","18","808.134826326","1","1","8","488","0","left","in","Female","Left-handed","3","1","no","left","d","1156.73162313","830.731322301","34","red","0"
"100","80","18","821.793014323","1","0","8","489","0","right","out","Female","Left-handed","3","1","no","right","d","859.274280581","1303.32289193","34","green","0"
"100","80","18","824.080869745","1","1","8","490","1","left","out","Female","Left-handed","3","1","no","left","s","900.859739635","838.816216743","34","red","3"
"100","81","18","822.640917405","1","1","8","491","2","left","out","Female","Left-handed","3","1","no","left","d","690.361916808","894.441919707","34","green","1"
"100","82","18","820.718779713","1","1","8","492","0","right","out","Female","Left-handed","3","1","no","right","d","757.928465889","798.935035087","34","green","0"
"100","83","18","825.359559823","1","1","8","493","3","right","in","Female","Left-handed","3","1","no","right","d","649.518591344","1214.6764134","34","green","3"
"100","84","18","834.906282382","1","1","8","494","3","left","in","Female","Left-handed","3","1","no","left","d","1225.08264014","902.972607445","34","red","1"
"100","84","18","828.189048479","1","1","8","495","0","left","in","Female","Left-handed","3","1","no","left","s","673.845114732","646.671287097","34","green","0"
"100","85","18","823.524401909","1","1","8","496","0","right","in","Female","Left-handed","3","1","no","right","d","598.303355608","806.183826553","34","red","2"
"100","85","18","819.827060148","1","1","8","497","2","left","out","Female","Left-handed","3","1","no","left","s","833.011923849","606.985741349","34","red","3"
"100","86","18","815.74753603","1","1","8","498","0","left","in","Female","Left-handed","3","1","no","left","d","692.596656165","710.445065277","34","red","3"
"100","83","18","817.39783182","1","0","8","499","3","right","in","Female","Left-handed","3","1","no","right","s","611.278827033","1119.23399241","34","green","2"
"100","83","18","815.438708558","1","1","8","500","2","right","in","Female","Left-handed","3","1","no","right","s","906.656014667","606.674006755","34","green","0"
"100","84","18","815.777863605","1","1","8","501","2","left","in","Female","Left-handed","3","1","no","left","s","1117.21220755","535.371132541","34","red","0"
"100","84","18","811.023954164","1","1","8","502","3","left","in","Female","Left-handed","3","1","no","left","s","726.883612991","590.914091142","34","green","0"
"100","85","18","809.172801764","1","1","8","503","3","right","out","Female","Left-handed","3","1","no","right","s","865.66644334","630.503101791","34","red","3"
"100","85","18","814.184913686","1","1","8","504","2","left","in","Female","Left-handed","3","1","no","left","s","1162.0323941","807.161043951","34","green","0"
"100","86","18","814.795802081","1","1","8","505","2","right","out","Female","Left-handed","3","1","no","right","d","761.728933943","910.624857883","34","red","2"
"100","86","18","826.024952515","1","1","8","506","2","right","in","Female","Left-handed","3","1","no","right","d","1517.30784465","943.240891626","34","red","3"
"100","86","18","826.268848672","1","1","8","507","3","right","out","Female","Left-handed","3","1","no","right","d","607.803884305","1062.78212863","34","red","2"
"100","87","18","823.300323824","1","1","8","508","2","right","out","Female","Left-handed","3","1","no","right","s","550.518162549","870.474596679","34","red","2"
"100","87","18","821.720669126","1","1","8","509","3","right","out","Female","Left-handed","3","1","no","right","s","473.125880162","1047.10239167","34","green","3"
"100","87","18","820.206352939","1","1","8","510","1","left","out","Female","Left-handed","3","1","no","left","s","832.459974015","686.807436861","34","red","3"
"100","88","18","815.445743588","1","1","8","511","2","right","in","Female","Left-handed","3","1","no","right","d","585.324677031","655.1968434","34","red","2"
"100","88","18","815.568718992","1","1","8","512","3","left","out","Female","Left-handed","3","1","no","left","d","970.671290942","670.796080998","34","green","0"
"100","88","18","816.995432907","1","1","8","513","3","right","in","Female","Left-handed","3","1","no","right","d","966.403541715","790.284720802","34","red","1"
"100","88","18","813.99295276","1","1","8","514","1","right","in","Female","Left-handed","3","1","no","right","d","684.871603513","678.896049019","34","green","3"
"100","89","18","809.377394509","1","1","8","515","2","right","out","Female","Left-handed","3","1","no","right","d","548.540636304","654.813910162","34","red","3"
"100","89","18","808.905843986","1","1","8","516","0","left","out","Female","Left-handed","3","1","no","left","s","823.18105911","751.247980701","34","green","1"
"100","89","18","809.621232312","1","1","8","517","3","right","in","Female","Left-handed","3","1","no","right","d","895.642675183","790.846292075","34","red","0"
"100","89","18","805.971817839","1","1","8","518","0","right","in","Female","Left-handed","3","1","no","right","d","503.320518648","758.279327667","34","green","3"
"100","90","18","801.564282271","1","1","8","519","0","left","out","Female","Left-handed","3","1","no","left","d","500.12139048","671.068688411","34","red","2"
"100","90","18","800.615120548","1","1","8","520","0","left","in","Female","Left-handed","3","1","no","left","d","667.652115738","838.661953018","34","red","3"
"100","90","18","803.99339207","1","1","8","521","1","left","in","Female","Left-handed","3","1","no","left","s","930.250988043","1022.3194914","34","green","2"
"100","90","18","808.545275411","1","1","8","522","2","left","out","Female","Left-handed","3","1","no","left","d","931.733651654","1158.75276656","34","green","0"
"100","90","18","806.911272607","1","1","8","523","1","left","in","Female","Left-handed","3","1","no","left","d","722.363140656","718.255107302","34","green","2"
"100","90","18","809.41264415","1","1","8","524","2","left","out","Female","Left-handed","3","1","no","left","s","953.910425051","935.062989949","34","green","3"
"100","89","18","810.860398133","1","0","8","525","0","right","out","Female","Left-handed","3","1","no","right","s","734.523034847","1046.45069959","34","green","2"
"100","87","18","823.644199129","1","0","8","526","1","right","out","Female","Left-handed","3","1","no","right","s","1009.02683323","2070.04727654","34","green","0"
"100","87","18","821.467713224","1","1","8","527","3","left","in","Female","Left-handed","3","1","no","left","d","572.418159248","822.397874046","34","green","3"
"100","88","18","821.607258191","1","1","8","528","1","left","out","Female","Left-handed","3","1","no","left","s","965.148906187","694.252826379","34","green","0"
"100","88","18","819.127549908","1","1","8","529","3","left","out","Female","Left-handed","3","1","no","left","s","802.919272606","542.730249836","34","red","2"
"100","88","18","817.563374796","1","1","8","530","1","left","out","Female","Left-handed","3","1","no","left","s","897.26901894","550.156717189","34","green","3"
"100","88","18","822.280471811","1","1","8","531","2","right","in","Female","Left-handed","3","1","no","right","d","861.024420174","1359.02235926","34","red","3"
"100","88","18","820.96665204","1","1","8","532","3","right","in","Female","Left-handed","3","1","no","right","s","800.449449445","678.570202981","34","red","0"
"100","89","18","817.485606229","1","1","8","533","2","right","in","Female","Left-handed","3","1","no","right","s","590.112625348","606.246814903","34","green","3"
dis_reply=No
dis_loc=0
tar_loc=3
