"acc_1","acc_2","age","avg_rt","correct_1","correct_2","count_block_loop","count_trial_sequence","cue_position","detection","dis_shape","gender","hand","high_loc","low_loc","practice","response_keyboard_response_1","response_keyboard_response_2","response_time_keyboard_response_1","response_time_keyboard_response_2","subject_nr","tar_color","tar_position"
"100","0","18","1357.87837027","1","0","0","0","0","left","in","Female","Right-handed","2","0","yes","left","s","1292.65560351","1423.10113703","30","red","0"
"100","50","18","1162.96022145","1","1","0","1","2","right","out","Female","Right-handed","2","0","yes","right","s","1167.02303404","769.061111205","30","red","3"
"100","66","18","1232.68240028","1","1","0","2","1","right","in","Female","Right-handed","2","0","yes","right","s","1590.69376021","1153.5597557","30","green","1"
"100","50","18","1135.81561893","1","0","0","3","3","right","out","Female","Right-handed","2","0","yes","right","d","1121.2432694","569.187280331","30","red","0"
"100","60","18","1151.11613493","1","1","0","4","0","left","in","Female","Right-handed","2","0","yes","left","s","1454.75759268","969.878805157","30","red","3"
"100","66","18","1098.98645098","1","1","0","5","3","left","in","Female","Right-handed","2","0","yes","left","d","1067.36417817","609.311884369","30","green","1"
"100","71","18","1133.01688576","1","1","0","6","0","right","in","Female","Right-handed","2","0","yes","right","d","1728.76909414","945.629894706","30","red","2"
"100","75","18","1089.14300488","1","1","0","7","3","right","out","Female","Right-handed","2","0","yes","right","d","786.489063472","777.562613914","30","red","3"
"100","77","18","1081.461634","1","1","0","8","0","left","out","Female","Right-handed","2","0","yes","left","s","910.995603965","1129.02572997","30","green","3"
"100","80","18","1167.61555427","1","1","0","9","1","left","in","Female","Right-handed","2","0","yes","left","d","1796.59798777","2089.40368572","30","green","0"
"100","81","18","1126.71028716","1","1","0","10","1","right","in","Female","Right-handed","2","0","yes","right","d","842.131122883","593.184109104","30","green","3"
"100","83","18","1098.2913689","1","1","0","11","0","right","in","Female","Right-handed","2","0","yes","right","s","793.662487007","777.704049055","30","green","0"
"100","84","18","1070.6041111","1","1","0","12","1","right","in","Female","Right-handed","2","0","yes","right","s","643.405771001","833.308264142","30","green","3"
"100","85","18","1039.73467235","1","1","0","13","1","right","out","Female","Right-handed","2","0","yes","right","s","658.965239989","617.898697161","30","green","0"
"100","86","18","1019.92621212","1","1","0","14","2","left","out","Female","Right-handed","2","0","yes","left","d","675.627646497","809.587891355","30","green","0"
"100","87","18","1029.46898161","1","1","0","15","0","right","in","Female","Right-handed","2","0","yes","right","s","1160.13183936","1185.08920837","30","red","1"
"100","88","18","1014.59133536","1","1","0","16","3","left","out","Female","Right-handed","2","0","yes","left","d","799.571332862","753.526657958","30","green","3"
"100","88","18","996.239478734","1","1","0","17","3","left","in","Female","Right-handed","2","0","yes","left","d","751.285504308","617.230327927","30","green","2"
"100","89","18","1003.61026741","1","1","0","18","2","right","out","Female","Right-handed","2","0","yes","right","s","1318.77684582","953.792081364","30","red","1"
"100","90","18","1012.94379284","1","1","0","19","1","left","out","Female","Right-handed","2","0","yes","left","d","795.387931574","1585.17362045","30","red","2"
"100","90","18","1002.18222616","1","1","0","20","0","right","out","Female","Right-handed","2","0","yes","right","s","852.906492129","720.995292871","30","green","1"
"100","90","18","991.036814042","1","1","0","21","1","left","out","Female","Right-handed","2","0","yes","left","s","768.500822793","745.4654964","30","red","1"
"100","0","18","913.030698482","1","0","1","22","0","left","out","Female","Right-handed","2","0","no","left","s","872.936401975","953.124994989","30","red","3"
"100","0","18","861.353312998","1","0","1","23","1","left","in","Female","Right-handed","2","0","no","left","d","833.604283722","785.747571308","30","red","2"
"100","33","18","800.804052892","1","1","1","24","2","left","out","Female","Right-handed","2","0","no","left","d","678.235056223","681.176009137","30","red","3"
"100","50","18","809.825340431","1","1","1","25","3","right","out","Female","Right-handed","2","0","no","right","s","991.931141292","681.847264801","30","red","2"
"100","40","18","829.173130402","1","0","1","26","2","right","out","Female","Right-handed","2","0","no","right","d","659.593840612","1153.53473997","30","green","2"
"100","50","18","792.228010765","1","1","1","27","3","left","in","Female","Right-handed","2","0","no","left","s","670.047212396","544.957612756","30","red","3"
"100","57","18","815.426592345","1","1","1","28","3","right","in","Female","Right-handed","2","0","no","right","s","883.582523234","1025.65364042","30","green","0"
"100","62","18","816.757145602","1","1","1","29","2","right","out","Female","Right-handed","2","0","no","right","s","939.105276813","713.036759988","30","red","2"
"100","66","18","801.190638711","1","1","1","30","1","left","out","Female","Right-handed","2","0","no","left","s","839.824222739","513.492944438","30","green","1"
"100","70","18","786.071717558","1","1","1","31","1","right","in","Female","Right-handed","2","0","no","right","s","802.515172205","497.487682152","30","green","1"
"100","72","18","773.39027728","1","1","1","32","2","right","in","Female","Right-handed","2","0","no","right","s","708.095510092","585.05623891","30","red","3"
"100","75","18","771.524680432","1","1","1","33","0","right","in","Female","Right-handed","2","0","no","right","s","844.56085672","657.445373483","30","red","0"
"100","76","18","783.470041222","1","1","1","34","1","left","in","Female","Right-handed","2","0","no","left","d","1140.25298609","713.375755324","30","red","3"
"100","78","18","767.42796372","1","1","1","35","1","right","out","Female","Right-handed","2","0","no","right","s","563.812103577","553.949808806","30","red","3"
"100","80","18","762.493186151","1","1","1","36","0","left","in","Female","Right-handed","2","0","no","left","d","673.470520074","713.342080289","30","green","2"
"100","75","18","746.534247749","1","0","1","37","1","right","out","Female","Right-handed","2","0","no","right","s","573.125655661","441.174687792","30","green","3"
"100","76","18","740.480035054","1","1","1","38","1","right","out","Female","Right-handed","2","0","no","right","d","773.562982095","513.66228175","30","green","2"
"100","77","18","738.08518522","1","1","1","39","1","left","in","Female","Right-handed","2","0","no","left","s","849.423531536","545.321944544","30","green","1"
"100","78","18","749.467052508","1","1","1","40","3","right","out","Female","Right-handed","2","0","no","right","s","987.855820826","920.825506561","30","red","3"
"100","80","18","740.715488623","1","1","1","41","2","left","in","Female","Right-handed","2","0","no","left","s","659.423220442","489.44832919","30","green","1"
"100","80","18","754.983557497","1","1","1","42","1","right","out","Female","Right-handed","2","0","no","right","d","1175.99181793","904.698052012","30","green","2"
"100","81","18","765.238951185","1","1","1","43","0","left","in","Female","Right-handed","2","0","no","left","d","1079.60681673","881.597620553","30","green","2"
"100","82","18","764.085579708","1","1","1","44","3","right","out","Female","Right-handed","2","0","no","right","d","668.296431375","809.126383041","30","red","2"
"100","83","18","756.617905753","1","1","1","45","1","right","in","Female","Right-handed","2","0","no","right","d","600.891522456","568.831287121","30","green","1"
"100","80","18","761.650718064","1","0","1","46","0","right","out","Female","Right-handed","2","0","no","right","s","643.480818218","1121.39560884","30","green","2"
"100","80","18","759.953087841","1","1","1","47","3","left","out","Female","Right-handed","2","0","no","left","d","753.986883414","681.037781142","30","red","1"
"100","81","18","762.808352392","1","1","1","48","0","left","out","Female","Right-handed","2","0","no","left","s","848.458822009","825.631639394","30","red","1"
"100","82","18","764.659423541","1","1","1","49","3","right","out","Female","Right-handed","2","0","no","right","d","692.107566396","937.169122753","30","green","2"
"100","82","18","763.282337241","1","1","1","50","2","right","in","Female","Right-handed","2","0","no","right","d","664.702503529","784.745338173","30","green","2"
"100","83","18","752.784112782","1","1","1","51","0","right","in","Female","Right-handed","2","0","no","right","s","511.361795898","385.309411018","30","red","2"
"100","83","18","761.807002083","1","1","1","52","0","left","out","Female","Right-handed","2","0","no","left","d","1151.98408486","913.003277383","30","green","3"
"100","84","18","771.675105603","1","1","1","53","2","right","in","Female","Right-handed","2","0","no","right","s","641.68962716","1513.48300229","30","red","2"
"100","84","18","768.535581453","1","1","1","54","0","left","out","Female","Right-handed","2","0","no","left","s","671.142452768","664.999164537","30","green","0"
"100","82","18","763.058593105","1","0","1","55","2","left","in","Female","Right-handed","2","0","no","left","s","771.824067513","392.811887736","30","red","1"
"100","80","18","766.924922865","1","0","1","56","3","left","in","Female","Right-handed","2","0","no","left","d","955.419066548","841.341202815","30","green","1"
"100","80","18","772.965223526","1","1","1","57","1","right","in","Female","Right-handed","2","0","no","right","d","1439.87194507","528.879548254","30","red","2"
"100","81","18","771.58849397","1","1","1","58","3","left","out","Female","Right-handed","2","0","no","left","d","603.498611466","840.553848464","30","green","2"
"100","81","18","770.640276153","1","1","1","59","0","left","out","Female","Right-handed","2","0","no","left","s","774.039243281","697.0731906","30","red","1"
"100","82","18","774.024934475","1","1","1","60","0","right","in","Female","Right-handed","2","0","no","right","d","740.713147407","1064.57075397","30","green","3"
"100","82","18","771.394289901","1","1","1","61","3","left","out","Female","Right-handed","2","0","no","left","d","608.418373484","729.179929553","30","red","2"
"100","82","18","770.077921211","1","1","1","62","2","right","out","Female","Right-handed","2","0","no","right","d","617.946162924","816.900184316","30","green","1"
"100","83","18","767.601279419","1","1","1","63","2","right","in","Female","Right-handed","2","0","no","right","s","659.640985657","672.476946232","30","green","2"
"100","83","18","765.159670264","1","1","1","64","3","left","in","Female","Right-handed","2","0","no","left","d","636.059482296","689.164689195","30","green","2"
"100","84","18","769.671004691","1","1","1","65","2","left","out","Female","Right-handed","2","0","no","left","s","1046.70823342","880.608536718","30","green","0"
"100","84","18","768.017263568","1","1","1","66","1","right","in","Female","Right-handed","2","0","no","right","s","773.283639675","617.221668634","30","red","0"
"100","84","18","766.603001099","1","1","1","67","2","left","out","Female","Right-handed","2","0","no","left","d","700.933632281","704.988747728","30","red","2"
"100","85","18","762.47341148","1","1","1","68","2","right","out","Female","Right-handed","2","0","no","right","s","568.523401102","576.501176862","30","green","3"
"100","83","18","765.694616784","1","0","1","69","3","right","out","Female","Right-handed","2","0","no","right","d","617.06964991","1217.11288224","30","red","3"
"100","83","18","765.520713245","1","1","1","70","3","right","out","Female","Right-handed","2","0","no","right","s","1049.74315571","464.603531003","30","red","1"
"100","84","18","767.324505771","1","1","1","71","1","left","in","Female","Right-handed","2","0","no","left","d","734.256841726","977.163837377","30","red","2"
"100","84","18","768.914126445","1","1","1","72","0","left","out","Female","Right-handed","2","0","no","left","s","823.974186324","872.816133999","30","green","3"
"100","84","18","769.56641865","1","1","1","73","2","left","in","Female","Right-handed","2","0","no","left","d","605.421936943","1000.24470524","30","green","3"
"100","84","18","770.547508419","1","1","1","74","2","left","in","Female","Right-handed","2","0","no","left","s","906.007850452","737.120502419","30","red","1"
"100","85","18","766.965778766","1","1","1","75","3","left","in","Female","Right-handed","2","0","no","left","s","553.642564217","600.625650048","30","red","3"
"100","83","18","769.289862354","1","0","1","76","0","right","out","Female","Right-handed","2","0","no","right","s","1213.39066855","576.190083697","30","red","2"
"100","83","18","771.469944185","1","1","1","77","3","right","in","Female","Right-handed","2","0","no","right","d","1269.92271099","512.826178778","30","red","1"
"100","84","18","773.897355201","1","1","1","78","0","left","in","Female","Right-handed","2","0","no","left","d","979.323529515","840.34121468","30","red","1"
"100","84","18","774.156069104","1","1","1","79","1","left","out","Female","Right-handed","2","0","no","left","d","944.93554759","632.869975565","30","red","2"
"100","83","18","775.983575564","1","0","1","80","3","right","in","Female","Right-handed","2","0","no","right","d","667.404844778","1096.55305566","30","red","0"
"100","83","18","775.163136828","1","1","1","81","1","right","in","Female","Right-handed","2","0","no","right","s","692.27786585","761.236637027","30","green","3"
"100","83","18","774.910848307","1","1","1","82","2","right","in","Female","Right-handed","2","0","no","right","s","654.765161542","864.781912465","30","green","0"
"100","83","18","775.368421677","1","1","1","83","1","left","out","Female","Right-handed","2","0","no","left","d","742.249370356","864.311424142","30","green","0"
"100","84","18","775.677702919","1","1","1","84","0","left","out","Female","Right-handed","2","0","no","left","d","1060.89793033","528.808349613","30","green","1"
"100","84","18","775.817510544","1","1","1","85","0","left","in","Female","Right-handed","2","0","no","left","d","880.62617602","688.6246058","30","green","2"
"100","100","18","1147.78015784","1","1","2","86","0","left","out","Female","Right-handed","2","0","no","left","s","1318.82463229","976.73568338","30","red","2"
"100","100","18","954.813156483","1","1","2","87","0","left","in","Female","Right-handed","2","0","no","left","d","1002.21453434","521.477775921","30","green","2"
"100","100","18","895.008408602","1","1","2","88","0","left","out","Female","Right-handed","2","0","no","left","s","709.872268995","840.925556688","30","red","2"
"100","100","18","793.524740085","1","1","2","89","3","right","out","Female","Right-handed","2","0","no","right","d","512.488466302","465.659002764","30","red","2"
"100","100","18","776.757524045","1","1","2","90","1","left","out","Female","Right-handed","2","0","no","left","d","730.284149931","689.093169836","30","green","1"
"100","100","18","774.088178984","1","1","2","91","1","left","in","Female","Right-handed","2","0","no","left","d","680.713538679","840.769368677","30","red","3"
"100","100","18","763.900813236","1","1","2","92","1","left","out","Female","Right-handed","2","0","no","left","s","748.353852119","657.199385381","30","red","0"
"100","100","18","747.218843138","1","1","2","93","0","right","out","Female","Right-handed","2","0","no","right","s","523.992178412","736.897926485","30","red","3"
"100","100","18","738.985172758","1","1","2","94","2","left","out","Female","Right-handed","2","0","no","left","d","632.634891761","713.596727686","30","red","3"
"100","100","18","745.656273483","1","1","2","95","3","left","in","Female","Right-handed","2","0","no","left","d","770.220494498","841.171865504","30","green","1"
"100","100","18","747.795152702","1","1","2","96","2","left","in","Female","Right-handed","2","0","no","left","s","889.607788491","648.760101307","30","green","2"
"100","100","18","735.553049884","1","1","2","97","0","left","out","Female","Right-handed","2","0","no","left","s","664.363508195","537.416329569","30","green","0"
"100","100","18","715.016555905","1","1","2","98","3","left","out","Female","Right-handed","2","0","no","left","s","640.129671328","297.027584984","30","green","2"
"100","100","18","741.597758462","1","1","2","99","1","right","out","Female","Right-handed","2","0","no","right","d","1533.69315374","640.613629665","30","green","1"
"100","93","18","740.569980408","1","0","2","100","0","right","in","Female","Right-handed","2","0","no","right","s","723.086352087","729.275823218","30","red","3"
"100","93","18","752.487081616","1","1","2","101","0","right","out","Female","Right-handed","2","0","no","right","s","1421.80929861","440.677900873","30","red","1"
"100","94","18","755.414487875","1","1","2","102","2","right","out","Female","Right-handed","2","0","no","right","s","675.220338951","929.285637085","30","green","2"
"100","94","18","750.142103296","1","1","2","103","2","right","in","Female","Right-handed","2","0","no","right","d","728.022791262","593.000339637","30","green","2"
"100","89","18","750.952492833","1","0","2","104","2","right","in","Female","Right-handed","2","0","no","right","s","882.467719275","648.611289733","30","green","1"
"100","90","18","744.560864737","1","1","2","105","3","right","in","Female","Right-handed","2","0","no","right","s","621.15074324","625.089118572","30","red","2"
"100","90","18","744.618848028","1","1","2","106","1","right","out","Female","Right-handed","2","0","no","right","d","850.817677918","640.73934979","30","green","2"
"100","90","18","740.155176887","1","1","2","107","0","right","in","Female","Right-handed","2","0","no","right","s","684.451146666","608.385019164","30","green","3"
"100","91","18","732.47377311","1","1","2","108","3","left","in","Female","Right-handed","2","0","no","left","d","606.035143264","520.930636807","30","green","3"
"100","91","18","730.852863784","1","1","2","109","2","right","in","Female","Right-handed","2","0","no","right","d","554.607273743","832.536624806","30","green","0"
"100","92","18","738.682151623","1","1","2","110","3","right","in","Female","Right-handed","2","0","no","right","d","572.095199641","1281.07491989","30","red","0"
"100","92","18","745.645608488","1","1","2","111","3","right","in","Female","Right-handed","2","0","no","right","s","1182.77429036","656.689769878","30","red","2"
"100","92","18","743.429629794","1","1","2","112","0","left","out","Female","Right-handed","2","0","no","left","s","699.289969938","672.338397522","30","red","3"
"100","92","18","737.109953199","1","1","2","113","3","right","out","Female","Right-handed","2","0","no","right","s","579.925767397","553.031602896","30","red","3"
"100","93","18","744.692574206","1","1","2","114","2","left","in","Female","Right-handed","2","0","no","left","s","1081.50512646","832.506798348","30","green","2"
"100","93","18","744.606205764","1","1","2","115","0","right","in","Female","Right-handed","2","0","no","right","d","747.036356528","737.166685321","30","green","2"
"100","93","18","749.031672088","1","1","2","116","0","left","in","Female","Right-handed","2","0","no","left","d","858.765627221","904.825696423","30","red","1"
"100","93","18","758.619615883","1","1","2","117","1","left","out","Female","Right-handed","2","0","no","left","s","1279.42452255","832.26722454","30","red","2"
"100","93","18","761.944473592","1","1","2","118","1","left","in","Female","Right-handed","2","0","no","left","d","655.804276857","1080.8755637","30","red","2"
"100","91","18","768.091029709","1","0","2","119","1","left","out","Female","Right-handed","2","0","no","left","s","1053.58114737","888.273615739","30","red","0"
"100","91","18","768.060078459","1","1","2","120","1","left","out","Female","Right-handed","2","0","no","left","d","956.973249515","577.042222398","30","green","3"
"100","91","18","771.547028004","1","1","2","121","3","right","out","Female","Right-handed","2","0","no","right","d","930.639694141","856.540830016","30","green","2"
"100","91","18","770.808763092","1","1","2","122","3","right","out","Female","Right-handed","2","0","no","right","s","736.159320753","752.303131745","30","red","3"
"100","92","18","767.126206244","1","1","2","123","1","left","in","Female","Right-handed","2","0","no","left","s","724.836812391","536.906393349","30","green","3"
"100","92","18","764.544039267","1","1","2","124","3","left","out","Female","Right-handed","2","0","no","left","s","652.455054255","680.388334071","30","green","3"
"100","90","18","760.854076619","1","0","2","125","2","right","in","Female","Right-handed","2","0","no","right","s","752.988498853","480.902567864","30","red","1"
"100","87","18","769.05576857","1","0","2","126","3","left","in","Female","Right-handed","2","0","no","left","s","857.753131218","1336.49376194","30","red","0"
"100","88","18","771.55693134","1","1","2","127","0","right","out","Female","Right-handed","2","0","no","right","d","1276.10320211","472.106007723","30","red","1"
"100","88","18","774.710801014","1","1","2","128","2","right","in","Female","Right-handed","2","0","no","right","s","1165.74242063","648.604234011","30","red","1"
"100","88","18","774.758055819","1","1","2","129","1","left","in","Female","Right-handed","2","0","no","left","s","1025.22131713","528.358707737","30","green","1"
"100","88","18","772.594402611","1","1","2","130","3","right","in","Female","Right-handed","2","0","no","right","s","841.888341929","512.898980994","30","green","1"
"100","86","18","771.084307907","1","0","2","131","1","right","in","Female","Right-handed","2","0","no","right","s","621.619948706","784.640143784","30","red","3"
"100","87","18","768.690242297","1","1","2","132","0","left","in","Female","Right-handed","2","0","no","left","s","860.938789374","456.187659094","30","red","2"
"100","87","18","766.575816906","1","1","2","133","0","left","in","Female","Right-handed","2","0","no","left","s","765.62337137","568.772275634","30","red","0"
"100","87","18","771.294230627","1","1","2","134","2","right","in","Female","Right-handed","2","0","no","right","d","1307.21604651","688.340131948","30","green","1"
"100","86","18","771.915676434","1","0","2","135","2","right","out","Female","Right-handed","2","0","no","right","d","675.921421072","928.811620901","30","green","0"
"100","86","18","773.994676528","1","1","2","136","1","right","out","Female","Right-handed","2","0","no","right","s","843.401152712","912.48820973","30","red","1"
"100","84","18","774.554594643","1","0","2","137","3","left","out","Female","Right-handed","2","0","no","left","s","958.111786358","648.109050662","30","red","1"
"100","84","18","774.563596529","1","1","2","138","1","right","out","Female","Right-handed","2","0","no","right","s","973.626034586","576.437354657","30","green","2"
"100","85","18","772.268465111","1","1","2","139","0","left","in","Female","Right-handed","2","0","no","left","s","685.117912328","616.135087556","30","red","1"
"100","85","18","773.116214989","1","1","2","140","0","left","out","Female","Right-handed","2","0","no","left","s","740.8645247","896.924892169","30","green","2"
"100","85","18","769.514888007","1","1","2","141","2","right","out","Female","Right-handed","2","0","no","right","s","590.429170661","552.454637325","30","green","2"
"100","85","18","769.392986115","1","1","2","142","2","right","out","Female","Right-handed","2","0","no","right","s","869.123746766","656.009213489","30","green","3"
"100","86","18","767.079399082","1","1","2","143","1","left","in","Female","Right-handed","2","0","no","left","d","581.697394868","688.712481604","30","red","2"
"100","86","18","768.463239391","1","1","2","144","3","right","out","Female","Right-handed","2","0","no","right","d","849.098006212","848.353948333","30","red","1"
"100","86","18","769.436277804","1","1","2","145","2","left","out","Female","Right-handed","2","0","no","left","d","860.801523524","792.889564813","30","green","3"
"100","86","18","776.255688761","1","1","2","146","3","right","in","Female","Right-handed","2","0","no","right","d","842.484871089","1528.35582131","30","green","2"
"100","87","18","779.106629712","1","1","2","147","2","right","in","Female","Right-handed","2","0","no","right","d","1146.00500251","760.023052966","30","red","2"
"100","87","18","780.900517329","1","1","2","148","2","left","out","Female","Right-handed","2","0","no","left","d","831.623229615","952.619869489","30","green","3"
"100","85","18","786.496996147","1","0","2","149","1","left","in","Female","Right-handed","2","0","no","left","d","1070.09378016","1208.05654327","30","green","2"
"100","100","18","589.191853721","1","1","3","150","2","right","in","Female","Right-handed","2","0","no","right","d","569.628904339","608.754803103","30","green","3"
"100","100","18","627.014127799","1","1","3","151","0","left","in","Female","Right-handed","2","0","no","left","d","840.370078997","489.302724758","30","red","2"
"100","100","18","602.337731507","1","1","3","152","0","left","out","Female","Right-handed","2","0","no","left","s","752.90543377","353.064444073","30","green","1"
"100","100","18","610.999123808","1","1","3","153","3","right","out","Female","Right-handed","2","0","no","right","s","569.540707824","704.425893598","30","green","0"
"100","80","18","620.238791265","1","0","3","154","2","right","out","Female","Right-handed","2","0","no","right","d","633.25707809","681.1378441","30","red","3"
"100","83","18","625.41841229","1","1","3","155","2","left","in","Female","Right-handed","2","0","no","left","s","781.789311672","520.84372315","30","green","2"
"100","85","18","658.850973958","1","1","3","156","0","right","out","Female","Right-handed","2","0","no","right","d","630.437355298","1088.45533263","30","red","2"
"100","87","18","729.233508935","1","1","3","157","1","right","in","Female","Right-handed","2","0","no","right","d","1698.86662666","744.955880897","30","red","1"
"100","88","18","718.332292615","1","1","3","158","1","left","out","Female","Right-handed","2","0","no","left","d","677.65167636","584.593447737","30","green","2"
"100","90","18","732.566499371","1","1","3","159","3","right","out","Female","Right-handed","2","0","no","right","s","608.176233958","1113.17248641","30","green","0"
"100","90","18","719.350056112","1","1","3","160","1","right","out","Female","Right-handed","2","0","no","right","s","613.729728031","560.641519007","30","green","3"
"100","91","18","716.475194703","1","1","3","161","0","right","in","Female","Right-handed","2","0","no","right","d","777.410915907","592.292522508","30","green","2"
"100","84","18","746.553199978","1","0","3","162","1","left","out","Female","Right-handed","2","0","no","left","s","717.921884827","1497.05664173","30","green","0"
"100","78","18","779.945901403","1","0","3","163","3","right","out","Female","Right-handed","2","0","no","right","d","635.537038208","1792.56500163","30","green","2"
"100","80","18","771.316729083","1","1","3","164","1","left","in","Female","Right-handed","2","0","no","left","s","764.004724768","537.011908454","30","green","2"
"100","81","18","787.582650158","1","1","3","165","2","left","in","Female","Right-handed","2","0","no","left","s","1438.60127381","624.541658741","30","red","1"
"100","76","18","851.70199184","1","0","3","166","2","right","out","Female","Right-handed","2","0","no","right","None","755.134400264","3000.08851723","30","red","2"
"100","72","18","856.444909623","1","0","3","167","1","right","in","Female","Right-handed","2","0","no","right","d","697.622574715","1176.52644917","30","red","2"
"100","73","18","841.456221199","1","1","3","168","1","left","in","Female","Right-handed","2","0","no","left","s","695.193482308","448.126176822","30","green","3"
"100","75","18","838.800116868","1","1","3","169","0","left","out","Female","Right-handed","2","0","no","left","d","743.791366171","832.876903001","30","red","1"
"100","76","18","833.616562509","1","1","3","170","2","right","out","Female","Right-handed","2","0","no","right","d","587.418622679","872.472327943","30","red","3"
"100","77","18","840.902771374","1","1","3","171","1","right","out","Female","Right-handed","2","0","no","right","d","994.91699425","992.909320832","30","red","1"
"100","78","18","851.075650983","1","1","3","172","3","left","out","Female","Right-handed","2","0","no","left","d","749.363140976","1400.39486382","30","red","3"
"100","79","18","850.180424682","1","1","3","173","0","left","out","Female","Right-handed","2","0","no","left","s","939.143441852","720.036997638","30","green","3"
"100","76","18","840.341682924","1","0","3","174","0","right","out","Female","Right-handed","2","0","no","right","d","527.674944204","680.748817283","30","green","3"
"100","76","18","829.456907318","1","1","3","175","2","right","out","Female","Right-handed","2","0","no","right","s","650.338979302","464.336055025","30","green","2"
"100","77","18","840.268127386","1","1","3","176","3","left","in","Female","Right-handed","2","0","no","left","s","1529.91738071","712.802317612","30","green","1"
"100","78","18","851.182210154","1","1","3","177","1","right","in","Female","Right-handed","2","0","no","right","d","931.379582731","1360.345307","30","green","2"
"100","79","18","863.262864336","1","1","3","178","2","right","in","Female","Right-handed","2","0","no","right","s","651.088168614","1751.95419426","30","red","1"
"100","80","18","855.793468776","1","1","3","179","3","left","out","Female","Right-handed","2","0","no","left","s","629.701315282","648.660679781","30","green","2"
"100","80","18","863.851245242","1","1","3","180","3","right","in","Female","Right-handed","2","0","no","right","d","1499.06078728","712.108291209","30","green","2"
"100","81","18","888.159441341","1","1","3","181","2","left","in","Female","Right-handed","2","0","no","left","d","2706.71387158","576.713169214","30","red","0"
"100","81","18","884.525108314","1","1","3","182","1","left","out","Female","Right-handed","2","0","no","left","s","768.174335328","768.278567573","30","red","2"
"100","82","18","883.473404808","1","1","3","183","1","right","out","Female","Right-handed","2","0","no","right","s","976.805599163","720.728779037","30","green","1"
"100","82","18","878.743485084","1","1","3","184","1","right","out","Female","Right-handed","2","0","no","right","d","795.344314387","640.50811456","30","green","1"
"100","83","18","891.401505178","1","1","3","185","3","left","out","Female","Right-handed","2","0","no","left","d","1907.94304237","760.921374569","30","green","2"
"97","81","18","925.625867398","0","0","3","186","2","left","in","Female","Right-handed","2","0","no","None","d","3000.0965351","1315.30927952","30","red","3"
"97","81","18","926.1741906","1","1","3","187","1","right","out","Female","Right-handed","2","0","no","right","s","812.966298989","1079.95799921","30","red","0"
"97","82","18","925.029030634","1","1","3","188","2","left","in","Female","Right-handed","2","0","no","left","s","858.594365622","904.431538176","30","green","2"
"97","82","18","927.054301312","1","1","3","189","2","right","in","Female","Right-handed","2","0","no","right","s","1548.04833939","464.03137615","30","red","2"
"97","82","18","923.762278451","1","1","3","190","3","right","in","Female","Right-handed","2","0","no","right","s","903.467470078","680.695257946","30","green","3"
"97","83","18","934.318607539","1","1","3","191","0","left","in","Female","Right-handed","2","0","no","left","d","1430.10137468","1304.15482562","30","green","1"
"97","83","18","938.454625197","1","1","3","192","0","left","in","Female","Right-handed","2","0","no","left","d","1391.62171584","832.713017839","30","red","1"
"97","84","18","931.982435073","1","1","3","193","0","right","out","Female","Right-handed","2","0","no","right","s","723.120989264","584.235530239","30","red","2"
"97","82","18","928.179773934","1","0","3","194","3","right","in","Female","Right-handed","2","0","no","right","d","993.829771745","527.895595851","30","green","2"
"97","80","18","923.987369088","1","0","3","195","3","left","out","Female","Right-handed","2","0","no","left","s","814.283473865","656.374828137","30","red","2"
"97","80","18","922.14762863","1","1","3","196","0","left","out","Female","Right-handed","2","0","no","left","d","891.123806419","783.915328779","30","red","0"
"97","81","18","927.395629178","1","1","3","197","2","right","in","Female","Right-handed","2","0","no","right","d","659.633609222","1688.46970065","30","red","2"
"97","79","18","927.177884348","1","0","3","198","3","left","out","Female","Right-handed","2","0","no","left","s","617.207557192","1216.24470781","30","red","3"
"98","80","18","922.758556104","1","1","3","199","1","right","in","Female","Right-handed","2","0","no","right","s","812.692088002","599.730856304","30","green","2"
"98","78","18","920.591589277","1","0","3","200","3","right","in","Female","Right-handed","2","0","no","right","s","512.221311037","1112.26518479","30","red","3"
"98","76","18","916.704135795","1","0","3","201","0","left","in","Female","Right-handed","2","0","no","left","s","580.885345491","856.002670911","30","green","3"
"98","77","18","910.023345542","1","1","3","202","0","left","out","Female","Right-handed","2","0","no","left","s","628.670217831","496.574286964","30","red","3"
"98","77","18","905.689642174","1","1","3","203","1","left","out","Female","Right-handed","2","0","no","left","s","543.995148229","808.011579082","30","green","3"
"98","76","18","908.34374611","1","0","3","204","0","left","out","Female","Right-handed","2","0","no","left","s","743.721129671","1359.6095877","30","green","0"
"98","76","18","907.268387702","1","1","3","205","3","right","out","Female","Right-handed","2","0","no","right","d","1288.19382195","408.05352855","30","red","1"
"98","77","18","903.679631228","1","1","3","206","2","left","in","Female","Right-handed","2","0","no","left","d","789.804290327","615.614247041","30","red","0"
"98","75","18","905.872287707","1","0","3","207","2","left","in","Female","Right-handed","2","0","no","left","s","1293.37111779","768.336296201","30","red","1"
"98","76","18","907.424327267","1","1","3","208","0","left","out","Female","Right-handed","2","0","no","left","s","666.895549988","1327.98969352","30","red","2"
"98","76","18","908.456340747","1","1","3","209","2","left","in","Female","Right-handed","2","0","no","left","d","955.336642893","983.353629221","30","red","1"
"98","77","18","907.20127681","1","1","3","210","3","left","in","Female","Right-handed","2","0","no","left","s","935.932126527","727.862754676","30","green","1"
"98","75","18","907.677614825","1","0","3","211","3","right","in","Female","Right-handed","2","0","no","right","s","1401.81113951","471.657327991","30","red","1"
"98","74","18","910.131150841","1","0","3","212","0","right","in","Female","Right-handed","2","0","no","right","s","1076.15496545","1048.34580218","30","red","2"
"98","75","18","910.859625984","1","1","3","213","1","right","in","Female","Right-handed","2","0","no","right","s","1153.76276805","759.744351975","30","green","3"
"100","100","18","653.451193811","1","1","4","214","3","left","out","Female","Right-handed","2","0","no","left","d","786.019537291","520.882850331","30","green","2"
"100","50","18","795.088223776","1","0","4","215","2","left","in","Female","Right-handed","2","0","no","left","s","800.677156814","1072.77335067","30","red","0"
"100","66","18","750.61414174","1","1","4","216","1","right","out","Female","Right-handed","2","0","no","right","d","811.126038594","512.205916737","30","red","0"
"100","75","18","779.665699926","1","1","4","217","0","left","out","Female","Right-handed","2","0","no","left","d","940.716546982","792.924201989","30","red","2"
"100","60","18","811.888377207","1","0","4","218","3","right","out","Female","Right-handed","2","0","no","right","s","1257.28014132","624.278031339","30","green","1"
"100","66","18","782.571106971","1","1","4","219","2","left","in","Female","Right-handed","2","0","no","left","d","607.947243731","664.022267856","30","green","3"
"100","71","18","770.506411566","1","1","4","220","0","right","out","Female","Right-handed","2","0","no","right","s","675.579539307","720.656938965","30","green","1"
"100","75","18","743.838731709","1","1","4","221","1","right","in","Female","Right-handed","2","0","no","right","s","642.164284773","472.165660638","30","red","1"
"100","77","18","750.82600937","1","1","4","222","0","right","out","Female","Right-handed","2","0","no","right","s","724.800250928","888.648210395","30","red","0"
"100","80","18","801.386545445","1","1","4","223","0","left","in","Female","Right-handed","2","0","no","left","d","1488.44769963","1024.41504062","30","red","2"
"100","72","18","780.210608615","1","0","4","224","0","right","in","Female","Right-handed","2","0","no","right","d","593.025355374","543.877125256","30","red","0"
"100","66","18","780.953796678","1","0","4","225","1","left","in","Female","Right-handed","2","0","no","left","s","825.524841432","752.732889316","30","green","3"
"100","69","18","768.112277051","1","1","4","226","0","left","out","Female","Right-handed","2","0","no","left","s","684.08905988","543.939023175","30","red","2"
"100","71","18","764.836337735","1","1","4","227","2","left","in","Female","Right-handed","2","0","no","left","d","707.812639812","736.685613418","30","red","2"
"100","66","18","768.995952689","1","0","4","228","3","right","out","Female","Right-handed","2","0","no","right","d","742.292987543","912.168136554","30","green","2"
"100","68","18","762.673939565","1","1","4","229","1","right","in","Female","Right-handed","2","0","no","right","s","583.846503425","751.840982002","30","green","0"
"100","64","18","758.899693471","1","0","4","230","0","right","out","Female","Right-handed","2","0","no","right","s","604.479356723","792.544155185","30","green","2"
"100","61","18","817.998355661","1","0","4","231","3","right","in","Female","Right-handed","2","0","no","right","None","645.173229183","3000.1779966","30","red","0"
"100","63","18","824.124036002","1","1","4","232","1","left","in","Female","Right-handed","2","0","no","left","d","1148.39881631","720.37374797","30","red","1"
"100","65","18","836.995070937","1","1","4","233","1","right","in","Female","Right-handed","2","0","no","right","d","1355.10418895","807.985280482","30","green","3"
"100","61","18","831.81132873","1","0","4","234","1","left","out","Female","Right-handed","2","0","no","left","d","839.713255487","616.559713691","30","green","2"
"100","63","18","833.539492082","1","1","4","235","1","left","out","Female","Right-handed","2","0","no","left","s","1387.23434007","352.427504869","30","green","2"
"100","60","18","832.896578144","1","0","4","236","2","right","in","Female","Right-handed","2","0","no","right","s","1173.85168938","463.653253633","30","green","2"
"100","58","18","850.816408422","1","0","4","237","0","left","in","Female","Right-handed","2","0","no","left","d","1485.38712016","1040.55788947","30","green","3"
"100","60","18","857.338472892","1","1","4","238","0","left","out","Female","Right-handed","2","0","no","left","s","1115.92999057","911.806049768","30","red","3"
"100","57","18","873.168543838","1","0","4","239","2","left","in","Female","Right-handed","2","0","no","left","d","1897.39249406","640.44814093","30","red","1"
"100","55","18","885.698117117","1","0","4","240","1","right","in","Female","Right-handed","2","0","no","right","d","1583.00430688","839.929737846","30","red","2"
"100","57","18","916.705068422","1","1","4","241","3","left","in","Female","Right-handed","2","0","no","left","s","715.512035297","2792.27347206","30","green","3"
"100","58","18","911.163603122","1","1","4","242","3","right","out","Female","Right-handed","2","0","no","right","s","784.063498926","727.941650466","30","red","2"
"100","60","18","911.644634108","1","1","4","243","3","right","in","Female","Right-handed","2","0","no","right","s","1122.61656934","728.572496093","30","red","2"
"100","58","18","938.737872371","1","0","4","244","3","left","out","Female","Right-handed","2","0","no","left","d","2239.1527105","1263.91733004","30","red","3"
"100","59","18","943.374328945","1","1","4","245","2","right","in","Female","Right-handed","2","0","no","right","s","981.59643391","1192.61253154","30","green","3"
"100","57","18","933.338507529","1","0","4","246","0","right","out","Female","Right-handed","2","0","no","right","s","560.159484958","664.224959486","30","green","3"
"100","58","18","935.467411067","1","1","4","247","3","left","out","Female","Right-handed","2","0","no","left","s","1283.88021053","727.562245093","30","green","2"
"100","57","18","940.106286652","1","0","4","248","2","left","in","Female","Right-handed","2","0","no","left","s","1043.35804867","1152.29806445","30","green","2"
"100","58","18","942.695663436","1","1","4","249","3","left","in","Female","Right-handed","2","0","no","left","s","1066.94949418","999.698207557","30","green","3"
"100","59","18","959.944561967","1","1","4","250","0","left","out","Female","Right-handed","2","0","no","left","d","2321.37784125","840.431976914","30","green","3"
"100","57","18","971.125329984","1","0","4","251","1","right","out","Female","Right-handed","2","0","no","right","s","1217.85790226","1551.76959093","30","green","1"
"100","58","18","983.299342108","1","1","4","252","0","right","out","Female","Right-handed","2","0","no","right","d","1019.50682432","1872.31678136","30","red","1"
"100","57","18","984.366205404","1","0","4","253","3","left","in","Female","Right-handed","2","0","no","left","d","668.090532601","1383.85721529","30","green","0"
"100","58","18","972.638382231","1","1","4","254","2","right","in","Female","Right-handed","2","0","no","right","s","678.612537311","328.438373246","30","green","3"
"100","59","18","967.600139355","1","1","4","255","3","right","out","Female","Right-handed","2","0","no","right","d","1130.08248459","391.981878344","30","red","1"
"100","60","18","964.043973522","1","1","4","256","2","left","out","Female","Right-handed","2","0","no","left","s","485.633749697","1143.7362674","30","red","0"
"100","59","18","960.785565785","1","0","4","257","1","left","out","Female","Right-handed","2","0","no","left","s","945.080831305","696.267234802","30","red","3"
"100","60","18","972.829931852","1","1","4","258","3","right","out","Female","Right-handed","2","0","no","right","s","1725.96925566","1279.594822","30","green","1"
"100","58","18","983.209011339","1","0","4","259","3","left","in","Female","Right-handed","2","0","no","left","s","1172.31065571","1728.22452075","30","red","3"
"100","57","18","987.933484938","1","0","4","260","3","left","out","Female","Right-handed","2","0","no","left","s","1266.77329358","1143.74524741","30","red","1"
"100","58","18","982.755242588","1","1","4","261","1","right","out","Female","Right-handed","2","0","no","right","d","646.464426176","832.291278133","30","red","3"
"100","59","18","980.850680824","1","1","4","262","2","right","out","Female","Right-handed","2","0","no","right","d","1130.89709968","647.966332663","30","red","2"
"100","60","18","984.643899351","1","1","4","263","2","right","in","Female","Right-handed","2","0","no","right","s","1749.52253613","591.50067815","30","red","1"
"100","58","18","980.574052351","1","0","4","264","0","left","in","Female","Right-handed","2","0","no","left","s","833.983689096","720.179715636","30","green","2"
"100","59","18","984.373184031","1","1","4","265","2","right","in","Female","Right-handed","2","0","no","right","d","1676.67894897","679.578850411","30","green","1"
"100","58","18","985.339391176","1","0","4","266","1","right","in","Female","Right-handed","2","0","no","right","d","847.121442111","1224.04288339","30","green","2"
"100","59","18","976.475548202","1","1","4","267","2","right","in","Female","Right-handed","2","0","no","right","s","597.740180762","415.643560356","30","red","2"
"100","60","18","972.501924069","1","1","4","268","2","right","out","Female","Right-handed","2","0","no","right","d","1004.51437876","511.338063019","30","red","1"
"100","60","18","965.887291427","1","1","4","269","0","left","out","Female","Right-handed","2","0","no","left","s","516.306252941","687.85873933","30","green","2"
"100","59","18","963.895151217","1","0","4","270","1","left","out","Female","Right-handed","2","0","no","left","s","537.302475885","1167.36812296","30","red","2"
"100","58","18","957.493122358","1","0","4","271","0","right","in","Female","Right-handed","2","0","no","right","s","753.147252582","432.007702282","30","red","1"
"100","59","18","963.589795629","1","1","4","272","2","right","out","Female","Right-handed","2","0","no","right","d","1026.74727721","1607.64641343","30","green","3"
"100","60","18","970.359660581","1","1","4","273","2","left","in","Female","Right-handed","2","0","no","left","s","684.229532877","2055.33385268","30","red","2"
"100","59","18","973.062878143","1","0","4","274","3","right","in","Female","Right-handed","2","0","no","right","d","1518.72219605","751.789667665","30","green","2"
"100","58","18","970.637936625","1","0","4","275","1","left","out","Female","Right-handed","2","0","no","left","s","982.179172345","663.253835666","30","green","1"
"100","58","18","972.347671267","1","1","4","276","1","left","in","Female","Right-handed","2","0","no","left","d","1212.78644224","943.915995866","30","red","2"
"100","59","18","969.217020597","1","1","4","277","0","left","out","Female","Right-handed","2","0","no","left","s","728.468905276","815.503151502","30","green","1"
"100","100","18","601.860721987","1","1","5","278","0","right","out","Female","Right-handed","2","0","no","right","d","675.84380814","527.877635833","30","green","2"
"100","50","18","695.44724774","1","0","5","279","2","right","out","Female","Right-handed","2","0","no","right","s","921.552245851","656.515301134","30","green","1"
"100","66","18","697.944892893","1","1","5","280","0","right","out","Female","Right-handed","2","0","no","right","s","1037.92963329","367.950733106","30","red","2"
"100","75","18","673.750062941","1","1","5","281","0","right","out","Female","Right-handed","2","0","no","right","s","825.597964362","376.733181807","30","green","1"
"80","80","18","716.948868792","0","1","5","282","1","left","in","Female","Right-handed","2","0","no","right","s","888.157196339","891.330988054","30","green","3"
"83","83","18","687.897625975","1","1","5","283","1","left","in","Female","Right-handed","2","0","no","left","s","685.638111414","399.644712363","30","red","2"
"85","85","18","679.118510415","1","1","5","284","1","left","out","Female","Right-handed","2","0","no","left","d","676.400889406","576.486744705","30","red","2"
"87","87","18","670.289832995","1","1","5","285","3","right","out","Female","Right-handed","2","0","no","right","s","520.920053226","696.05812888","30","red","2"
"88","88","18","736.314190271","1","1","5","286","2","left","in","Female","Right-handed","2","0","no","left","s","2129.60750626","399.410590702","30","red","1"
"90","80","18","734.648851185","1","0","5","287","1","right","out","Female","Right-handed","2","0","no","right","d","791.114088768","648.207510047","30","green","1"
"90","81","18","750.920764338","1","1","5","288","1","left","in","Female","Right-handed","2","0","no","left","s","1219.78924561","607.490546136","30","green","3"
"91","83","18","756.284335839","1","1","5","289","3","left","out","Female","Right-handed","2","0","no","left","d","694.302216426","936.265028285","30","red","2"
"92","76","18","751.798573664","1","0","5","290","2","left","out","Female","Right-handed","2","0","no","left","s","740.01527243","655.92358269","30","green","0"
"92","78","18","740.522276401","1","1","5","291","2","left","out","Female","Right-handed","2","0","no","left","d","539.432020853","648.428803121","30","red","2"
"93","80","18","771.389189203","1","1","5","292","0","right","in","Female","Right-handed","2","0","no","right","d","559.051736717","1848.00020012","30","red","2"
"93","81","18","765.810057338","1","1","5","293","3","right","out","Female","Right-handed","2","0","no","right","s","844.699405427","519.546753294","30","red","1"
"94","82","18","759.011236123","1","1","5","294","2","left","in","Female","Right-handed","2","0","no","left","s","540.165815865","760.29437752","30","red","1"
"94","77","18","752.83903694","1","0","5","295","0","left","in","Female","Right-handed","2","0","no","left","d","503.885297063","791.938004584","30","red","1"
"94","78","18","736.560897635","1","1","5","296","0","left","out","Female","Right-handed","2","0","no","left","s","551.604102194","335.504678104","30","red","1"
"95","75","18","734.741257079","1","0","5","297","0","right","in","Female","Right-handed","2","0","no","right","s","904.216659392","496.119513657","30","green","3"
"95","76","18","731.23970382","1","1","5","298","0","left","out","Female","Right-handed","2","0","no","left","d","762.693964183","559.723313096","30","green","3"
"95","77","18","733.174422649","1","1","5","299","2","right","in","Female","Right-handed","2","0","no","right","d","675.275501862","872.331534232","30","green","2"
"95","73","18","732.467045076","1","0","5","300","1","right","in","Female","Right-handed","2","0","no","right","d","545.941885874","887.867591051","30","red","0"
"95","75","18","729.656471363","1","1","5","301","2","left","out","Female","Right-handed","2","0","no","left","s","722.449092169","607.577459792","30","green","3"
"96","76","18","737.331628842","1","1","5","302","2","right","out","Female","Right-handed","2","0","no","right","s","715.054054843","1128.01676183","30","green","3"
"96","76","18","740.075560607","1","1","5","303","1","left","in","Female","Right-handed","2","0","no","left","d","1081.66869091","535.679018563","30","red","2"
"96","77","18","744.914722522","1","1","5","304","1","right","in","Female","Right-handed","2","0","no","right","d","1053.25177347","688.21409111","30","red","2"
"96","78","18","753.091007259","1","1","5","305","1","left","out","Female","Right-handed","2","0","no","left","d","1083.781238","863.920152328","30","green","1"
"96","75","18","753.637757921","1","0","5","306","3","left","out","Female","Right-handed","2","0","no","left","s","666.402932357","871.49062054","30","red","1"
"96","76","18","750.931579709","1","1","5","307","0","right","in","Female","Right-handed","2","0","no","right","s","824.888864372","520.015958759","30","red","0"
"96","77","18","745.163859143","1","1","5","308","0","right","out","Female","Right-handed","2","0","no","right","d","544.687891773","599.57659258","30","red","3"
"96","75","18","746.122099417","1","0","5","309","2","left","in","Female","Right-handed","2","0","no","left","s","663.297773568","888.357322252","30","green","3"
"96","75","18","748.987627909","1","1","5","310","3","right","in","Female","Right-handed","2","0","no","right","s","897.660290753","783.708788574","30","green","3"
"97","76","18","745.145795821","1","1","5","311","3","left","in","Female","Right-handed","2","0","no","left","d","549.309389209","687.42128461","30","red","3"
"97","77","18","748.525516902","1","1","5","312","2","right","out","Female","Right-handed","2","0","no","right","d","1126.89233643","599.979730838","30","red","1"
"97","77","18","742.76267408","1","1","5","313","2","right","out","Female","Right-handed","2","0","no","right","s","666.645392597","415.480958052","30","red","2"
"97","78","18","740.651487857","1","1","5","314","3","right","in","Female","Right-handed","2","0","no","right","d","538.205287492","791.092280175","30","green","0"
"97","78","18","741.115694873","1","1","5","315","1","left","out","Female","Right-handed","2","0","no","left","d","852.891097827","663.6916111","30","red","2"
"97","79","18","740.852913186","1","1","5","316","1","left","out","Female","Right-handed","2","0","no","left","s","870.286978634","591.447439527","30","red","3"
"97","77","18","736.366221761","1","0","5","317","2","left","in","Female","Right-handed","2","0","no","left","s","514.949630167","607.820882177","30","green","3"
"97","75","18","745.05451237","1","0","5","318","1","left","out","Female","Right-handed","2","0","no","left","s","1401.67066651","783.50160694","30","green","1"
"97","76","18","745.782419699","1","1","5","319","3","right","out","Female","Right-handed","2","0","no","right","s","871.116346598","680.136893821","30","red","2"
"97","76","18","744.781650823","1","1","5","320","3","left","out","Female","Right-handed","2","0","no","left","s","973.755924","431.74279202","30","green","2"
"97","77","18","742.83039224","1","1","5","321","2","left","in","Female","Right-handed","2","0","no","left","s","766.358769957","551.493776373","30","green","2"
"97","77","18","746.96853608","1","1","5","322","3","left","out","Female","Right-handed","2","0","no","left","s","1090.01785418","768.075875944","30","red","1"
"97","76","18","772.954576033","1","0","5","323","3","left","in","Female","Right-handed","2","0","no","left","None","884.559419917","3000.09332795","30","red","1"
"97","76","18","773.190345844","1","1","5","324","3","right","in","Female","Right-handed","2","0","no","right","s","592.001634361","976.069879863","30","green","0"
"97","75","18","773.459591724","1","0","5","325","0","right","in","Female","Right-handed","2","0","no","right","s","844.570478157","727.657818043","30","green","3"
"97","75","18","772.575832363","1","1","5","326","0","left","in","Female","Right-handed","2","0","no","left","d","885.129971197","575.18079484","30","green","1"
"98","74","18","785.358262266","1","0","5","327","3","right","in","Female","Right-handed","2","0","no","right","s","847.765437034","1975.629218","30","red","2"
"98","72","18","786.885457289","1","0","5","328","1","right","in","Female","Right-handed","2","0","no","right","d","919.245345709","807.245071179","30","red","2"
"98","73","18","784.313582305","1","1","5","329","0","left","out","Female","Right-handed","2","0","no","left","d","634.60151371","671.694402599","30","green","2"
"98","73","18","788.862272871","1","1","5","330","0","right","out","Female","Right-handed","2","0","no","right","s","1707.49256664","343.295797964","30","green","2"
"98","74","18","788.530420831","1","1","5","331","0","left","in","Female","Right-handed","2","0","no","left","s","606.9341063","934.950419127","30","green","2"
"98","74","18","786.557641001","1","1","5","332","1","left","in","Female","Right-handed","2","0","no","left","s","872.478742234","487.57631805","30","red","1"
"98","75","18","788.138544494","1","1","5","333","3","right","out","Female","Right-handed","2","0","no","right","s","550.993782305","1199.18269091","30","red","3"
"98","73","18","788.833096176","1","0","5","334","2","right","out","Female","Right-handed","2","0","no","right","s","496.574928393","1158.88105241","30","green","2"
"98","74","18","788.160492511","1","1","5","335","2","right","in","Female","Right-handed","2","0","no","right","d","636.317016124","863.327151026","30","red","0"
"96","74","18","804.656651561","0","1","5","336","1","right","in","Female","Right-handed","2","0","no","None","d","3000.0901208","522.777632209","30","green","3"
"96","75","18","803.594347448","1","1","5","337","1","right","in","Female","Right-handed","2","0","no","right","s","674.380708118","807.456101387","30","green","0"
"96","75","18","805.018828129","1","1","5","338","3","left","out","Female","Right-handed","2","0","no","left","s","781.992003302","998.983334706","30","green","3"
"96","75","18","805.994599766","1","1","5","339","3","right","in","Female","Right-handed","2","0","no","right","d","1219.60740043","511.42593882","30","red","2"
"96","74","18","806.727358902","1","0","5","340","0","right","out","Female","Right-handed","2","0","no","right","s","1041.15249434","663.164356291","30","green","0"
"96","75","18","804.485046401","1","1","5","341","2","left","in","Female","Right-handed","2","0","no","left","d","790.631092575","535.80762512","30","green","2"
"100","100","18","826.027561571","1","1","6","342","2","right","out","Female","Right-handed","2","0","no","right","d","1140.59775429","511.457368851","30","red","1"
"100","50","18","736.864491986","1","0","6","343","2","right","out","Female","Right-handed","2","0","no","right","d","703.245022429","592.157822373","30","red","2"
"100","66","18","669.66053749","1","1","6","344","0","right","in","Female","Right-handed","2","0","no","right","d","534.803467693","535.7017893","30","red","3"
"100","75","18","639.6107551","1","1","6","345","0","left","in","Female","Right-handed","2","0","no","left","s","619.56224381","479.360572051","30","red","3"
"100","80","18","601.496293982","1","1","6","346","1","left","out","Female","Right-handed","2","0","no","left","s","402.017038285","496.059860739","30","red","2"
"100","83","18","590.288564033","1","1","6","347","1","left","in","Female","Right-handed","2","0","no","left","d","564.723253765","503.776574813","30","green","0"
"100","85","18","636.587195268","1","1","6","348","3","left","in","Female","Right-handed","2","0","no","left","s","853.287501079","975.470464269","30","red","1"
"100","87","18","654.437571619","1","1","6","349","0","right","in","Female","Right-handed","2","0","no","right","d","1102.89839409","455.882018077","30","green","2"
"100","88","18","688.217993137","1","1","6","350","2","left","out","Female","Right-handed","2","0","no","left","s","845.475855482","1071.44687507","30","red","2"
"100","90","18","677.299676046","1","1","6","351","2","right","in","Female","Right-handed","2","0","no","right","d","550.094819271","607.974825187","30","green","3"
"100","90","18","680.11062438","1","1","6","352","3","right","in","Female","Right-handed","2","0","no","right","d","608.682963031","807.7572524","30","red","2"
"100","91","18","687.12784411","1","1","6","353","3","right","out","Female","Right-handed","2","0","no","right","s","736.277664441","792.356857855","30","red","2"
"100","92","18","682.876092579","1","1","6","354","3","right","in","Female","Right-handed","2","0","no","right","s","591.850898498","671.859249905","30","red","2"
"100","92","18","680.030496751","1","1","6","355","2","left","out","Female","Right-handed","2","0","no","left","d","662.585145717","623.490356271","30","red","3"
"100","86","18","682.60271874","1","0","6","356","0","left","out","Female","Right-handed","2","0","no","left","s","869.155497514","568.072155654","30","green","1"
"100","87","18","676.793965241","1","1","6","357","0","right","in","Female","Right-handed","2","0","no","right","d","603.640367321","575.684958196","30","red","2"
"100","88","18","676.417491103","1","1","6","358","2","right","out","Female","Right-handed","2","0","no","right","s","837.4624804","503.325329366","30","green","1"
"100","88","18","669.090084206","1","1","6","359","1","right","in","Female","Right-handed","2","0","no","right","s","488.999649458","600.048684477","30","red","3"
"100","84","18","686.874170815","1","0","6","360","0","left","out","Female","Right-handed","2","0","no","left","s","1526.59638099","487.379078568","30","red","0"
"100","80","18","676.540921419","1","0","6","361","1","left","out","Female","Right-handed","2","0","no","left","s","704.249500566","256.168865218","30","green","3"
"100","80","18","691.427292541","1","1","6","362","1","left","in","Female","Right-handed","2","0","no","left","d","1234.6351246","743.67430534","30","green","2"
"100","77","18","696.261680608","1","0","6","363","1","right","in","Female","Right-handed","2","0","no","right","d","908.164014731","687.403645307","30","green","1"
"100","78","18","703.131768342","1","1","6","364","0","left","out","Female","Right-handed","2","0","no","left","s","996.870146186","711.677250783","30","red","1"
"100","79","18","701.606518246","1","1","6","365","3","left","in","Female","Right-handed","2","0","no","left","d","693.549178537","639.502353564","30","red","2"
"100","80","18","719.363638084","1","1","6","366","2","right","in","Female","Right-handed","2","0","no","right","d","660.023277465","1631.0457509","30","green","2"
"100","76","18","727.278906075","1","0","6","367","0","left","out","Female","Right-handed","2","0","no","left","d","650.701707516","1199.61950419","30","green","2"
"100","77","18","716.809046727","1","1","6","368","1","right","out","Female","Right-handed","2","0","no","right","s","530.013274378","359.172132979","30","red","0"
"100","78","18","722.613298046","1","1","6","369","0","right","out","Female","Right-handed","2","0","no","right","s","1406.778688","351.877479325","30","green","2"
"96","79","18","718.778004813","0","1","6","370","0","left","in","Female","Right-handed","2","0","no","right","d","500.529980883","722.249607685","30","green","3"
"96","80","18","714.954590554","1","1","6","371","1","right","out","Female","Right-handed","2","0","no","right","s","561.142795934","647.008358143","30","green","2"
"96","80","18","713.138840342","1","1","6","372","0","left","in","Female","Right-handed","2","0","no","left","s","837.621875559","479.710792399","30","green","2"
"96","81","18","714.061949273","1","1","6","373","3","left","in","Female","Right-handed","2","0","no","left","d","726.216526616","759.140125663","30","green","0"
"96","78","18","718.324313624","1","0","6","374","1","left","in","Female","Right-handed","2","0","no","left","s","1165.73376134","543.706184373","30","red","1"
"97","79","18","727.823665225","1","1","6","375","3","left","in","Female","Right-handed","2","0","no","left","d","1435.36333918","647.241196946","30","green","1"
"97","80","18","739.343567764","1","1","6","376","3","left","out","Female","Right-handed","2","0","no","left","d","637.949132739","1624.09137544","30","green","3"
"97","77","18","733.125097796","1","0","6","377","3","left","out","Female","Right-handed","2","0","no","left","d","551.521999258","479.435298554","30","green","2"
"97","75","18","731.7738866","1","0","6","378","1","right","in","Female","Right-handed","2","0","no","right","s","839.118329899","527.142237246","30","green","1"
"97","76","18","733.821813464","1","1","6","379","1","right","out","Female","Right-handed","2","0","no","right","s","867.530436617","751.659778253","30","red","2"
"97","74","18","732.152497524","1","0","6","380","3","right","in","Female","Right-handed","2","0","no","right","d","650.207807028","687.229176561","30","red","2"
"97","75","18","727.484271354","1","1","6","381","2","right","out","Female","Right-handed","2","0","no","right","s","627.98388858","462.863012852","30","red","2"
"97","75","18","722.408905065","1","1","6","382","1","right","out","Female","Right-handed","2","0","no","right","d","495.459162288","543.329344713","30","green","2"
"97","76","18","718.711865984","1","1","6","383","2","right","out","Female","Right-handed","2","0","no","right","d","479.145051838","655.121475467","30","red","2"
"97","76","18","718.36284876","1","1","6","384","2","left","out","Female","Right-handed","2","0","no","left","d","767.687169844","639.721080925","30","green","0"
"97","77","18","722.248244649","1","1","6","385","3","left","in","Female","Right-handed","2","0","no","left","d","1011.29653048","767.344005218","30","red","3"
"97","77","18","722.040822479","1","1","6","386","3","left","in","Female","Right-handed","2","0","no","left","d","746.843927765","678.984566251","30","green","3"
"97","78","18","723.345893865","1","1","6","387","0","right","in","Female","Right-handed","2","0","no","right","d","516.514396717","1047.63381576","30","red","3"
"97","78","18","733.691169401","1","1","6","388","2","right","out","Female","Right-handed","2","0","no","right","s","588.170377709","1830.97731041","30","green","3"
"97","79","18","730.817267803","1","1","6","389","2","right","in","Female","Right-handed","2","0","no","right","d","583.718217584","607.769567842","30","green","0"
"97","77","18","729.895987083","1","0","6","390","2","left","out","Female","Right-handed","2","0","no","left","d","548.172455939","823.176569105","30","green","1"
"98","78","18","730.305730817","1","1","6","391","0","right","in","Female","Right-handed","2","0","no","right","s","637.85708765","862.909259897","30","green","1"
"98","78","18","730.681376978","1","1","6","392","1","right","in","Female","Right-handed","2","0","no","right","s","771.465187872","727.462182136","30","red","3"
"98","78","18","733.813219417","1","1","6","393","3","left","out","Female","Right-handed","2","0","no","left","d","868.145887942","918.928479681","30","red","3"
"98","77","18","732.651498726","1","0","6","394","0","left","in","Female","Right-handed","2","0","no","left","s","824.656987714","519.827057858","30","green","0"
"98","77","18","734.754249287","1","1","6","395","0","left","in","Female","Right-handed","2","0","no","left","s","1293.26977197","399.13028614","30","red","2"
"98","76","18","733.73682632","1","0","6","396","3","right","out","Female","Right-handed","2","0","no","right","s","582.911941072","774.680031058","30","green","1"
"98","75","18","735.329179636","1","0","6","397","3","right","out","Female","Right-handed","2","0","no","right","s","1046.46898032","599.348243783","30","green","1"
"98","75","18","732.290121311","1","1","6","398","1","left","out","Female","Right-handed","2","0","no","left","s","693.03314874","431.172561455","30","red","3"
"98","75","18","727.425053891","1","1","6","399","2","left","out","Female","Right-handed","2","0","no","left","s","484.643062286","415.589359587","30","red","3"
"98","76","18","728.989123388","1","1","6","400","0","right","out","Female","Right-handed","2","0","no","right","s","1080.16325656","559.247051911","30","red","1"
"98","75","18","728.510983032","1","0","6","401","3","left","in","Female","Right-handed","2","0","no","left","d","785.69753983","614.903864194","30","red","0"
"98","73","18","729.083654708","1","0","6","402","2","left","in","Female","Right-handed","2","0","no","left","d","919.450603056","607.43730751","30","red","2"
"98","74","18","731.509667678","1","1","6","403","1","right","out","Female","Right-handed","2","0","no","right","d","1000.02726074","758.965656918","30","green","1"
"98","74","18","729.263185536","1","1","6","404","1","left","out","Female","Right-handed","2","0","no","left","s","621.434896379","558.527689056","30","green","2"
"98","73","18","731.746072328","1","0","6","405","2","right","in","Female","Right-handed","2","0","no","right","d","897.142978098","879.192902457","30","green","1"
"100","100","18","693.082057718","1","1","7","406","3","left","out","Female","Right-handed","2","0","no","left","d","666.568741808","719.595373628","30","green","3"
"100","100","18","651.024667122","1","1","7","407","1","right","out","Female","Right-handed","2","0","no","right","s","537.924662214","680.009890837","30","green","0"
"100","100","18","705.11639214","1","1","7","408","2","right","out","Female","Right-handed","2","0","no","right","s","994.819497011","631.780187343","30","red","1"
"100","100","18","725.040947237","1","1","7","409","0","right","out","Female","Right-handed","2","0","no","right","d","938.244478817","631.384746237","30","red","1"
"100","100","18","731.723517072","1","1","7","410","1","left","out","Female","Right-handed","2","0","no","left","d","989.083837041","527.823755781","30","green","1"
"100","100","18","686.181401953","1","1","7","411","0","right","out","Female","Right-handed","2","0","no","right","s","565.548131726","351.393520989","30","red","3"
"100","85","18","709.733307939","1","0","7","412","2","right","in","Female","Right-handed","2","0","no","right","s","1343.11683922","358.972648495","30","red","2"
"100","87","18","696.730186332","1","1","7","413","1","right","out","Female","Right-handed","2","0","no","right","d","435.678280917","775.738389249","30","green","1"
"100","88","18","715.239071534","1","1","7","414","3","left","in","Female","Right-handed","2","0","no","left","d","999.329065049","727.291241252","30","red","0"
"100","80","18","730.670354457","1","0","7","415","3","left","in","Female","Right-handed","2","0","no","left","s","659.042532208","1080.06126932","30","green","2"
"100","72","18","734.390419357","1","0","7","416","0","left","in","Female","Right-handed","2","0","no","left","d","775.635439863","767.546696849","30","green","2"
"100","75","18","721.779693976","1","1","7","417","2","left","out","Female","Right-handed","2","0","no","left","d","591.128649212","574.99478037","30","green","3"
"100","76","18","714.853608216","1","1","7","418","3","left","in","Female","Right-handed","2","0","no","left","s","599.761965621","663.719192557","30","green","2"
"100","78","18","704.91478865","1","1","7","419","1","left","in","Female","Right-handed","2","0","no","left","d","616.238999088","535.181269497","30","green","0"
"100","80","18","713.41104462","1","1","7","420","2","right","out","Female","Right-handed","2","0","no","right","d","1121.83145999","542.885796416","30","red","1"
"100","81","18","711.445905308","1","1","7","421","0","left","out","Female","Right-handed","2","0","no","left","d","540.41629397","823.521337303","30","green","0"
"100","82","18","702.596641262","1","1","7","422","3","right","out","Female","Right-handed","2","0","no","right","d","594.945152992","527.071680033","30","red","1"
"100","83","18","707.208413499","1","1","7","423","1","left","in","Female","Right-handed","2","0","no","left","d","995.60460636","575.612476698","30","green","2"
"100","84","18","719.320403055","1","1","7","424","0","right","in","Female","Right-handed","2","0","no","right","d","747.291966067","1127.38046406","30","green","3"
"100","85","18","710.697988831","1","1","7","425","0","left","in","Female","Right-handed","2","0","no","left","s","694.885275576","398.858961584","30","red","0"
"100","85","18","714.902372108","1","1","7","426","1","left","out","Female","Right-handed","2","0","no","left","d","910.588937848","687.391137437","30","red","3"
"95","86","18","707.799920562","0","1","7","427","3","right","out","Female","Right-handed","2","0","no","left","d","571.271283823","546.025592383","30","green","1"
"95","86","18","706.994343473","1","1","7","428","1","right","in","Female","Right-handed","2","0","no","right","s","682.71864638","695.824648649","30","green","1"
"95","83","18","714.276535739","1","0","7","429","1","left","out","Female","Right-handed","2","0","no","left","d","1172.30937285","591.224542877","30","green","3"
"96","84","18","717.063960434","1","1","7","430","0","left","out","Female","Right-handed","2","0","no","left","d","880.954908489","686.969397733","30","green","2"
"96","84","18","724.812653948","1","1","7","431","1","right","in","Female","Right-handed","2","0","no","right","s","1525.62910575","311.430877824","30","red","2"
"96","85","18","738.485802303","1","1","7","432","3","left","in","Female","Right-handed","2","0","no","left","d","860.98593442","1326.98938467","30","red","2"
"96","82","18","741.721588661","1","0","7","433","2","left","out","Female","Right-handed","2","0","no","left","d","962.620392253","695.555248383","30","red","2"
"96","82","18","737.100595995","1","1","7","434","0","right","out","Female","Right-handed","2","0","no","right","d","488.098120708","727.327482002","30","green","3"
"96","83","18","730.544586225","1","1","7","435","2","right","out","Female","Right-handed","2","0","no","right","d","617.927882191","462.912723615","30","green","2"
"96","83","18","728.811102585","1","1","7","436","2","left","in","Female","Right-handed","2","0","no","left","s","955.30360929","398.309577467","30","green","1"
"96","81","18","737.038835452","1","0","7","437","0","right","in","Female","Right-handed","2","0","no","right","d","817.140078838","1167.05702979","30","red","2"
"96","81","18","730.296929922","1","1","7","438","3","right","in","Female","Right-handed","2","0","no","right","s","509.524421935","519.587484048","30","red","1"
"97","82","18","728.617264078","1","1","7","439","1","right","in","Female","Right-handed","2","0","no","right","s","843.196857512","503.179724935","30","red","1"
"97","80","18","729.384160611","1","0","7","440","2","right","out","Female","Right-handed","2","0","no","right","s","575.956603467","934.960681992","30","red","1"
"97","80","18","724.635207629","1","1","7","441","2","left","out","Female","Right-handed","2","0","no","left","s","717.309640648","399.534065824","30","red","3"
"97","81","18","717.64329652","1","1","7","442","1","left","out","Female","Right-handed","2","0","no","left","s","444.997605866","486.871387351","30","red","3"
"97","81","18","714.961604638","1","1","7","443","3","left","out","Female","Right-handed","2","0","no","left","d","648.802114922","582.675895122","30","green","0"
"97","82","18","714.584627345","1","1","7","444","1","right","out","Female","Right-handed","2","0","no","right","s","929.211231296","471.307749074","30","red","2"
"97","82","18","719.142564697","1","1","7","445","2","right","in","Female","Right-handed","2","0","no","right","d","802.895860441","990.90838242","30","green","0"
"97","80","18","722.136536232","1","0","7","446","3","right","out","Female","Right-handed","2","0","no","right","d","844.397612986","839.393182314","30","green","3"
"97","78","18","720.277781761","1","0","7","447","2","right","in","Female","Right-handed","2","0","no","right","d","641.113303018","647.024393873","30","red","2"
"97","76","18","726.264335467","1","0","7","448","3","left","in","Female","Right-handed","2","0","no","left","d","604.719251247","1350.679931","30","red","3"
"97","77","18","721.320821839","1","1","7","449","0","left","in","Female","Right-handed","2","0","no","left","s","738.249417824","279.2500538","30","red","1"
"97","77","18","713.676899209","1","1","7","450","0","left","out","Female","Right-handed","2","0","no","left","s","475.855161438","278.833445531","30","red","2"
"97","78","18","708.662725242","1","1","7","451","3","left","in","Female","Right-handed","2","0","no","left","s","470.476456821","495.573336686","30","green","2"
"97","78","18","703.1840423","1","1","7","452","1","right","out","Female","Right-handed","2","0","no","right","s","535.196984512","367.132269437","30","green","2"
"97","79","18","705.968400551","1","1","7","453","3","right","in","Female","Right-handed","2","0","no","right","d","1170.85236641","502.814110288","30","red","1"
"97","79","18","708.250886499","1","1","7","454","3","right","out","Female","Right-handed","2","0","no","right","d","756.268767816","879.351656185","30","green","2"
"98","80","18","706.915119994","1","1","7","455","1","left","in","Female","Right-handed","2","0","no","left","s","611.969646287","670.955476155","30","red","2"
"98","80","18","705.576265439","1","1","7","456","2","left","out","Female","Right-handed","2","0","no","left","d","638.704736346","638.562339061","30","red","2"
"98","80","18","708.356096875","1","1","7","457","0","left","out","Female","Right-handed","2","0","no","left","s","805.181272704","895.073727477","30","red","3"
"98","81","18","706.597724484","1","1","7","458","2","right","in","Female","Right-handed","2","0","no","right","s","599.579158297","630.745562031","30","green","3"
"98","81","18","706.935871416","1","1","7","459","2","right","in","Female","Right-handed","2","0","no","right","d","875.295257882","574.420059802","30","red","2"
"98","81","18","705.110164446","1","1","7","460","0","left","out","Female","Right-handed","2","0","no","left","s","677.96244881","535.081527256","30","green","1"
"98","82","18","701.404011791","1","1","7","461","2","right","in","Female","Right-handed","2","0","no","right","d","516.548713182","478.582518425","30","green","3"
"98","82","18","699.235968915","1","1","7","462","0","left","in","Female","Right-handed","2","0","no","left","d","572.33830131","583.312834326","30","green","2"
"96","82","18","698.357113455","0","1","7","463","0","right","in","Female","Right-handed","2","0","no","left","s","702.768440529","593.756263955","30","green","2"
"96","83","18","695.764848965","1","1","7","464","3","right","in","Female","Right-handed","2","0","no","right","s","532.455836798","558.371180329","30","green","3"
"96","81","18","697.426658183","1","0","7","465","0","left","in","Female","Right-handed","2","0","no","left","s","1047.9179689","543.02883513","30","red","1"
"96","80","18","697.348098221","1","0","7","466","1","left","in","Female","Right-handed","2","0","no","left","s","842.718672036","542.550328941","30","red","3"
"96","80","18","693.733307516","1","1","7","467","3","left","out","Female","Right-handed","2","0","no","left","s","603.119206091","343.342943011","30","red","2"
"96","80","18","689.98073223","1","1","7","468","2","right","in","Female","Right-handed","2","0","no","right","d","507.896153895","406.745975113","30","green","0"
"96","81","18","686.333127521","1","1","7","469","1","right","out","Female","Right-handed","2","0","no","right","s","418.55180038","494.516261353","30","red","2"
"100","100","18","805.235152757","1","1","8","470","0","right","in","Female","Right-handed","2","0","no","right","s","1003.69655652","606.773748995","30","green","2"
"100","100","18","917.81247304","1","1","8","471","3","right","in","Female","Right-handed","2","0","no","right","s","1677.3999154","383.379671248","30","red","1"
"100","100","18","795.658507794","1","1","8","472","3","right","in","Female","Right-handed","2","0","no","right","s","728.014131968","374.687022637","30","red","1"
"100","100","18","768.394706349","1","1","8","473","2","left","out","Female","Right-handed","2","0","no","left","d","661.553727554","711.652876473","30","green","1"
"100","100","18","758.649753034","1","1","8","474","0","right","in","Female","Right-handed","2","0","no","right","d","736.175997912","703.163881635","30","red","1"
"100","100","18","725.913558221","1","1","8","475","3","left","in","Female","Right-handed","2","0","no","left","s","749.745432784","374.719735526","30","red","3"
"100","85","18","705.856738894","1","0","8","476","2","right","out","Female","Right-handed","2","0","no","right","d","763.435135632","407.59651024","30","green","2"
"100","87","18","697.796702701","1","1","8","477","3","right","in","Female","Right-handed","2","0","no","right","s","659.86259945","622.89029925","30","green","0"
"100","88","18","711.825510017","1","1","8","478","2","right","in","Female","Right-handed","2","0","no","right","s","1248.60898059","399.502956509","30","red","1"
"100","90","18","733.208313436","1","1","8","479","2","left","in","Female","Right-handed","2","0","no","left","d","1092.21891851","759.088169898","30","red","3"
"100","81","18","722.397369651","1","0","8","480","3","right","out","Female","Right-handed","2","0","no","right","s","589.781968591","638.793895005","30","green","3"
"100","83","18","741.085483698","1","1","8","481","1","right","in","Female","Right-handed","2","0","no","right","d","1334.19744538","559.112031062","30","red","2"
"100","84","18","807.147240889","1","1","8","482","3","right","out","Female","Right-handed","2","0","no","right","d","2728.90251142","470.874142929","30","red","1"
"100","85","18","798.523821696","1","1","8","483","0","right","out","Female","Right-handed","2","0","no","right","s","717.400723596","655.43802078","30","green","2"
"100","80","18","774.460811936","1","0","8","484","3","left","out","Female","Right-handed","2","0","no","left","s","587.955498924","287.201851679","30","red","1"
"100","75","18","774.849218034","1","0","8","485","2","right","out","Female","Right-handed","2","0","no","right","d","1050.74474742","510.605871578","30","red","2"
"100","76","18","757.581820568","1","1","8","486","1","left","in","Female","Right-handed","2","0","no","left","d","483.331339557","479.275582682","30","green","2"
"100","77","18","746.486678424","1","1","8","487","3","right","in","Female","Right-handed","2","0","no","right","d","533.031840225","582.706683724","30","red","2"
"100","73","18","752.427206098","1","0","8","488","2","left","in","Female","Right-handed","2","0","no","left","d","1144.337928","574.375480472","30","red","0"
"100","75","18","742.460352459","1","1","8","489","0","right","out","Female","Right-handed","2","0","no","right","s","651.119277929","455.060988692","30","red","2"
"100","71","18","729.261650687","1","0","8","490","1","right","in","Female","Right-handed","2","0","no","right","s","499.668862172","430.906368334","30","green","3"
"100","72","18","731.397401343","1","1","8","491","1","right","out","Female","Right-handed","2","0","no","right","d","1121.33018306","431.166147162","30","green","1"
"100","73","18","737.288535955","1","1","8","492","1","left","out","Female","Right-handed","2","0","no","left","s","1038.88343852","694.903556308","30","green","2"
"100","75","18","744.173811653","1","1","8","493","0","left","in","Female","Right-handed","2","0","no","left","s","678.439351426","1126.63095403","30","green","1"
"100","76","18","736.630726319","1","1","8","494","2","left","in","Female","Right-handed","2","0","no","left","d","640.18900353","471.004353059","30","red","3"
"100","76","18","728.228233636","1","1","8","495","0","left","out","Female","Right-handed","2","0","no","left","d","589.74989713","446.581936007","30","green","3"
"100","77","18","732.136924135","1","1","8","496","2","left","out","Female","Right-handed","2","0","no","left","d","1244.31717776","423.208576422","30","red","1"
"100","75","18","729.895260567","1","0","8","497","3","left","in","Female","Right-handed","2","0","no","left","d","604.011434118","734.729254336","30","red","3"
"100","72","18","731.728471559","1","0","8","498","1","left","in","Female","Right-handed","2","0","no","left","s","703.64367068","862.473088037","30","red","0"
"100","70","18","733.58900167","1","0","8","499","3","right","out","Female","Right-handed","2","0","no","right","d","911.938504898","663.150244849","30","red","2"
"100","70","18","736.154639354","1","1","8","500","0","left","in","Female","Right-handed","2","0","no","left","d","691.601799467","934.645740253","30","green","1"
"96","71","18","740.112208418","0","1","8","501","3","right","in","Female","Right-handed","2","0","no","left","d","948.365910988","777.227787868","30","green","2"
"96","72","18","740.663232552","1","1","8","502","2","left","out","Female","Right-handed","2","0","no","left","s","805.857339088","710.734670563","30","green","2"
"97","70","18","736.187001252","1","0","8","503","3","left","out","Female","Right-handed","2","0","no","left","d","434.412420378","742.530316349","30","red","2"
"97","68","18","729.769512952","1","0","8","504","2","left","in","Female","Right-handed","2","0","no","left","d","520.019165904","503.130655601","30","green","2"
"97","69","18","731.129722892","1","1","8","505","1","left","out","Female","Right-handed","2","0","no","left","d","974.684392777","582.789748805","30","red","1"
"97","70","18","730.052351285","1","1","8","506","1","right","out","Female","Right-handed","2","0","no","right","s","455.255983172","927.277963667","30","red","2"
"97","71","18","724.784447293","1","1","8","507","2","left","out","Female","Right-handed","2","0","no","left","s","556.902948875","502.841050315","30","green","2"
"97","71","18","719.223829871","1","1","8","508","0","right","out","Female","Right-handed","2","0","no","right","s","529.410010207","486.430725486","30","green","2"
"97","72","18","712.583353725","1","1","8","509","1","right","out","Female","Right-handed","2","0","no","right","s","572.150041837","335.059526234","30","red","3"
"97","73","18","708.316545032","1","1","8","510","1","right","out","Female","Right-handed","2","0","no","right","s","556.583196414","518.705198174","30","green","3"
"97","73","18","705.161987066","1","1","8","511","0","left","out","Female","Right-handed","2","0","no","left","s","545.282496649","606.367724309","30","red","3"
"97","74","18","700.574383446","1","1","8","512","1","left","out","Female","Right-handed","2","0","no","left","d","521.007929028","494.782133759","30","red","1"
"97","75","18","699.221526527","1","1","8","513","2","right","out","Female","Right-handed","2","0","no","right","s","699.630248133","582.467109916","30","red","1"
"97","75","18","697.821097056","1","1","8","514","0","left","out","Female","Right-handed","2","0","no","left","d","546.286012641","726.118387947","30","red","2"
"97","73","18","698.442108595","1","0","8","515","1","left","out","Female","Right-handed","2","0","no","left","d","605.808398041","846.966857675","30","green","0"
"97","74","18","695.834249616","1","1","8","516","1","right","in","Female","Right-handed","2","0","no","right","d","617.237062934","534.508410261","30","red","3"
"97","75","18","697.151207768","1","1","8","517","2","left","in","Female","Right-handed","2","0","no","left","d","951.054782223","567.041699634","30","green","3"
"97","75","18","692.475511133","1","1","8","518","0","right","out","Female","Right-handed","2","0","no","right","d","425.573846622","510.510298627","30","green","3"
"98","76","18","687.022171321","1","1","8","519","2","left","in","Female","Right-handed","2","0","no","left","s","449.36060733","390.256433775","30","green","0"
"98","76","18","681.683832413","1","1","8","520","2","left","in","Female","Right-handed","2","0","no","left","d","430.760443189","398.773330786","30","red","3"
"98","76","18","683.506722338","1","1","8","521","0","left","out","Female","Right-handed","2","0","no","left","d","402.631206749","1150.31701035","30","red","1"
"98","75","18","678.216478981","1","0","8","522","3","right","out","Female","Right-handed","2","0","no","right","s","408.131462198","398.116186562","30","red","3"
"98","75","18","685.245666614","1","1","8","523","3","right","in","Female","Right-handed","2","0","no","right","d","1532.76789211","582.817330262","30","red","2"
"98","76","18","681.26615618","1","1","8","524","0","right","in","Female","Right-handed","2","0","no","right","s","454.372735153","478.37245036","30","green","0"
"98","76","18","682.430103459","1","1","8","525","1","right","in","Female","Right-handed","2","0","no","right","d","934.018743204","558.875664401","30","green","1"
"98","77","18","685.572632183","1","1","8","526","0","left","in","Female","Right-handed","2","0","no","left","d","1260.55656171","462.551919685","30","green","3"
"98","75","18","686.539360922","1","0","8","527","0","left","out","Female","Right-handed","2","0","no","left","s","829.029931332","654.255866753","30","green","2"
"98","76","18","684.948455428","1","1","8","528","1","left","in","Female","Right-handed","2","0","no","left","s","578.762535529","606.5893381","30","green","2"
"98","75","18","681.464972994","1","0","8","529","3","left","in","Female","Right-handed","2","0","no","left","s","457.452236777","494.426781979","30","red","2"
"98","73","18","679.252165784","1","0","8","530","2","right","in","Female","Right-handed","2","0","no","right","d","574.033919418","518.933546973","30","green","2"
"98","74","18","674.136913292","1","1","8","531","1","right","out","Female","Right-handed","2","0","no","right","s","421.609172694","302.603849794","30","green","2"
"96","74","18","673.027009958","0","1","8","532","0","left","out","Female","Right-handed","2","0","no","right","d","543.294707537","665.131298955","30","green","0"
"96","73","18","672.843816177","1","0","8","533","3","right","in","Female","Right-handed","2","0","no","right","d","403.742482851","918.862733188","30","green","0"
dis_reply=Yes
dis_loc=2
tar_loc=0
