"acc_1","acc_2","age","avg_rt","correct_1","correct_2","count_block_loop","count_trial_sequence","cue_position","detection","dis_shape","gender","hand","high_loc","low_loc","practice","response_keyboard_response_1","response_keyboard_response_2","response_time_keyboard_response_1","response_time_keyboard_response_2","subject_nr","tar_color","tar_position"
"100","100","18","1474.36415504","1","1","0","0","1","left","in","Female","Right-handed","1","2","yes","left","s","1324.69664972","1624.03166036","16","red","0"
"100","50","18","1292.3766755","1","0","0","1","3","right","out","Female","Right-handed","1","2","yes","right","s","1371.02269174","849.755700195","16","red","0"
"100","33","18","1513.34548819","1","0","0","2","2","left","out","Female","Right-handed","1","2","yes","left","None","910.478994386","3000.08723275","16","green","3"
"100","25","18","1740.52726905","1","0","0","3","2","right","in","Female","Right-handed","1","2","yes","right","None","1844.023354","3000.12186928","16","green","1"
"100","40","18","1699.35922414","1","1","0","4","2","right","out","Female","Right-handed","1","2","yes","right","s","2196.21243099","873.161657999","16","green","2"
"100","50","18","1598.52022362","1","1","0","5","3","left","out","Female","Right-handed","1","2","yes","left","d","1058.99788172","1129.6525603","16","red","0"
"100","57","18","1490.07727475","1","1","0","6","2","left","out","Female","Right-handed","1","2","yes","left","d","981.437704752","697.401458262","16","red","0"
"100","50","18","1469.87800243","1","0","0","7","0","right","out","Female","Right-handed","1","2","yes","right","d","1727.02339088","929.942801614","16","red","3"
"100","44","18","1425.05354498","1","0","0","8","0","right","out","Female","Right-handed","1","2","yes","right","d","1163.4581371","969.457633587","16","green","2"
"100","50","18","1418.29283585","1","1","0","9","3","right","in","Female","Right-handed","1","2","yes","right","d","1640.97598053","1073.91692684","16","green","1"
"100","54","18","1370.23081838","1","1","0","10","0","left","out","Female","Right-handed","1","2","yes","left","d","937.617680026","841.603607331","16","red","1"
"100","58","18","1352.6835028","1","1","0","11","0","right","out","Female","Right-handed","1","2","yes","right","d","1374.19065166","945.135411204","16","green","1"
"100","53","18","1316.76501937","1","0","0","12","1","left","in","Female","Right-handed","1","2","yes","left","d","937.807860248","833.678576182","16","red","1"
"100","57","18","1322.65560268","1","1","0","13","1","left","out","Female","Right-handed","1","2","yes","left","s","1541.24649826","1257.21987303","16","red","2"
"100","60","18","1301.29447627","1","1","0","14","3","right","out","Female","Right-handed","1","2","yes","right","s","938.800453482","1065.67695981","16","green","1"
"100","56","18","1324.3313726","1","0","0","15","3","left","in","Female","Right-handed","1","2","yes","left","s","2034.39022865","1305.37940634","16","red","3"
"100","58","18","1315.79626814","1","1","0","16","0","left","out","Female","Right-handed","1","2","yes","left","d","1268.8211873","1089.64800623","16","red","0"
"100","61","18","1289.9911912","1","1","0","17","0","left","out","Female","Right-handed","1","2","yes","left","s","709.369342499","993.240424041","16","green","2"
"100","63","18","1284.36118342","1","1","0","18","1","right","out","Female","Right-handed","1","2","yes","right","s","1475.95470953","890.087377069","16","red","0"
"100","65","18","1264.56924821","1","1","0","19","1","left","out","Female","Right-handed","1","2","yes","left","s","967.597523488","809.447435053","16","red","1"
"100","66","18","1246.77778305","1","1","0","20","1","right","out","Female","Right-handed","1","2","yes","right","s","1156.96025939","624.936700132","16","green","2"
"100","68","18","1224.92926552","1","1","0","21","2","right","in","Female","Right-handed","1","2","yes","right","s","810.603589692","721.617205377","16","red","0"
"100","100","18","1296.72684764","1","1","1","22","1","left","out","Female","Right-handed","1","2","no","left","d","1879.64125532","713.812439967","16","green","1"
"100","100","18","1064.50581204","1","1","1","23","3","right","in","Female","Right-handed","1","2","no","right","s","751.335671299","913.233881585","16","red","1"
"100","100","18","1008.60488001","1","1","1","24","1","right","in","Female","Right-handed","1","2","no","right","s","1055.85397494","737.752056945","16","green","2"
"100","100","18","1049.0490588","1","1","1","25","0","left","in","Female","Right-handed","1","2","no","left","d","1619.43269849","721.330491855","16","red","1"
"100","80","18","1098.63894461","1","0","1","26","1","left","in","Female","Right-handed","1","2","no","left","d","1488.97291455","1105.02406117","16","red","0"
"100","83","18","1049.20178293","1","1","1","27","0","right","in","Female","Right-handed","1","2","no","right","s","850.580242103","753.451706892","16","red","0"
"100","85","18","1046.68244095","1","1","1","28","1","right","out","Female","Right-handed","1","2","no","right","d","966.120980919","1097.01179727","16","red","1"
"100","87","18","1018.80166416","1","1","1","29","3","left","out","Female","Right-handed","1","2","no","left","s","893.643073736","753.629379477","16","green","1"
"100","88","18","1001.622465","1","1","1","30","1","left","out","Female","Right-handed","1","2","no","left","s","759.217086073","969.160657388","16","green","1"
"100","80","18","991.342742925","1","0","1","31","3","left","in","Female","Right-handed","1","2","no","left","d","803.959789551","993.690698968","16","red","3"
"100","81","18","971.979409339","1","1","1","32","3","right","in","Female","Right-handed","1","2","no","right","s","747.289931834","809.402215134","16","green","3"
"100","83","18","975.60233091","1","1","1","33","2","left","out","Female","Right-handed","1","2","no","left","s","1397.88941645","633.019519931","16","green","0"
"100","84","18","957.175578235","1","1","1","34","1","right","in","Female","Right-handed","1","2","no","right","s","710.728505706","761.380586544","16","green","3"
"100","85","18","979.633123063","1","1","1","35","2","right","in","Female","Right-handed","1","2","no","right","d","1582.03807132","961.124340342","16","green","1"
"100","86","18","964.173028724","1","1","1","36","1","left","out","Female","Right-handed","1","2","no","left","s","837.725919191","657.737496773","16","red","2"
"100","87","18","956.084474254","1","1","1","37","1","left","in","Female","Right-handed","1","2","no","left","d","892.354145721","777.158168689","16","green","3"
"100","88","18","933.927351759","1","1","1","38","2","right","in","Female","Right-handed","1","2","no","right","s","533.953583839","624.873199822","16","red","3"
"100","88","18","924.263612879","1","1","1","39","0","right","out","Female","Right-handed","1","2","no","right","s","886.518852055","633.44125179","16","green","0"
"100","89","18","915.196956036","1","1","1","40","3","right","out","Female","Right-handed","1","2","no","right","s","718.952758014","785.041507715","16","red","0"
"100","90","18","902.878560467","1","1","1","41","3","left","in","Female","Right-handed","1","2","no","left","s","679.78429137","657.873797944","16","green","3"
"100","90","18","901.56487489","1","1","1","42","3","left","in","Female","Right-handed","1","2","no","left","s","1109.35651415","641.225812556","16","red","1"
"100","86","18","896.195156454","1","0","1","43","0","left","in","Female","Right-handed","1","2","no","left","d","565.959023057","1000.90311552","16","green","3"
"100","86","18","894.556277638","1","1","1","44","2","right","out","Female","Right-handed","1","2","no","right","s","1059.51871255","657.483174823","16","green","1"
"100","87","18","892.808583179","1","1","1","45","0","right","in","Female","Right-handed","1","2","no","right","s","752.123973131","953.099248099","16","red","3"
"100","88","18","886.91890401","1","1","1","46","3","left","out","Female","Right-handed","1","2","no","left","s","865.563749661","625.569458275","16","green","0"
"100","84","18","870.684590826","1","0","1","47","0","right","out","Female","Right-handed","1","2","no","right","s","624.278926716","305.374595707","16","green","3"
"100","81","18","861.747869203","1","0","1","48","2","right","out","Female","Right-handed","1","2","no","right","d","521.890128427","736.896085591","16","red","3"
"100","82","18","853.200677932","1","1","1","49","1","left","in","Female","Right-handed","1","2","no","left","s","619.41634235","625.436684899","16","green","3"
"100","82","18","864.07118272","1","1","1","50","0","right","in","Female","Right-handed","1","2","no","right","s","1079.99275198","1256.89788156","16","green","1"
"100","83","18","863.80676877","1","1","1","51","2","left","out","Female","Right-handed","1","2","no","left","d","990.6510225","721.626505927","16","green","1"
"100","83","18","860.512485161","1","1","1","52","2","right","in","Female","Right-handed","1","2","no","right","s","602.29563243","921.072321401","16","green","0"
"100","81","18","852.961152964","1","0","1","53","2","right","in","Female","Right-handed","1","2","no","right","d","524.855079784","712.884629878","16","red","3"
"100","81","18","863.971776279","1","1","1","54","0","right","in","Female","Right-handed","1","2","no","right","d","1351.36132799","1081.26211677","16","green","1"
"100","82","18","862.718092485","1","1","1","55","0","right","out","Female","Right-handed","1","2","no","right","d","785.882085055","856.810969518","16","red","3"
"100","82","18","864.582752335","1","1","1","56","2","right","in","Female","Right-handed","1","2","no","right","d","943.529302347","912.433072116","16","red","0"
"100","80","18","862.943849619","1","0","1","57","1","left","out","Female","Right-handed","1","2","no","left","s","786.007482133","825.157026967","16","red","1"
"100","81","18","865.809988887","1","1","1","58","2","right","in","Female","Right-handed","1","2","no","right","d","929.528446055","1008.45355898","16","red","1"
"100","81","18","865.991174098","1","1","1","59","2","right","in","Female","Right-handed","1","2","no","right","d","840.156890666","905.233163197","16","red","1"
"100","82","18","867.086688079","1","1","1","60","2","right","in","Female","Right-handed","1","2","no","right","d","1016.52804036","800.904398359","16","green","3"
"100","82","18","863.995833193","1","1","1","61","0","left","out","Female","Right-handed","1","2","no","left","d","813.348855631","673.556129624","16","red","0"
"100","82","18","862.811901372","1","1","1","62","2","right","out","Female","Right-handed","1","2","no","right","d","934.010349268","696.898907827","16","red","2"
"100","83","18","863.662279602","1","1","1","63","0","right","out","Female","Right-handed","1","2","no","right","d","860.495591058","936.559982938","16","green","1"
"100","83","18","869.988745737","1","1","1","64","0","left","in","Female","Right-handed","1","2","no","left","s","1310.2083163","961.192330574","16","red","2"
"100","84","18","869.1317353","1","1","1","65","1","left","out","Female","Right-handed","1","2","no","left","s","855.742047628","808.818525414","16","red","3"
"100","84","18","869.191673477","1","1","1","66","3","left","in","Female","Right-handed","1","2","no","left","d","1030.32749163","713.330414885","16","green","1"
"100","84","18","868.880319694","1","1","1","67","3","right","out","Female","Right-handed","1","2","no","right","d","980.899555658","728.839243192","16","green","2"
"100","85","18","873.084571925","1","1","1","68","3","right","out","Female","Right-handed","1","2","no","right","d","619.545908639","1513.41444055","16","red","3"
"100","85","18","869.447384274","1","1","1","69","2","left","in","Female","Right-handed","1","2","no","left","s","787.960597736","609.038531539","16","red","2"
"100","85","18","872.492352163","1","1","1","70","3","right","out","Female","Right-handed","1","2","no","right","d","1036.62139864","1000.68022302","16","green","1"
"100","86","18","874.706495472","1","1","1","71","0","left","out","Female","Right-handed","1","2","no","left","s","893.254695576","1073.14433973","16","green","1"
"100","86","18","874.394804721","1","1","1","72","3","right","out","Female","Right-handed","1","2","no","right","d","884.922685164","832.697849168","16","green","0"
"100","84","18","875.546990168","1","0","1","73","1","right","out","Female","Right-handed","1","2","no","right","d","1252.22643954","616.390456353","16","red","1"
"100","84","18","873.37523785","1","1","1","74","3","left","out","Female","Right-handed","1","2","no","left","d","791.981642637","728.906592005","16","green","1"
"100","85","18","874.749590399","1","1","1","75","1","left","in","Female","Right-handed","1","2","no","left","d","830.60426318","1064.57628777","16","red","0"
"100","85","18","874.637110159","1","1","1","76","0","left","in","Female","Right-handed","1","2","no","left","d","952.092864392","785.033489999","16","red","1"
"100","85","18","872.432472506","1","1","1","77","1","right","out","Female","Right-handed","1","2","no","right","s","485.602266769","1016.7525364","16","red","0"
"100","85","18","868.289277953","1","1","1","78","1","left","out","Female","Right-handed","1","2","no","left","d","568.26812525","704.272640827","16","red","0"
"100","86","18","866.644645595","1","1","1","79","2","left","out","Female","Right-handed","1","2","no","left","d","576.962857129","968.838345208","16","red","0"
"100","86","18","862.438626083","1","1","1","80","3","right","out","Female","Right-handed","1","2","no","right","d","492.517386418","744.461602356","16","green","0"
"100","86","18","862.299871129","1","1","1","81","0","left","in","Female","Right-handed","1","2","no","left","d","499.095441287","1209.13121634","16","green","0"
"100","86","18","862.76473348","1","1","1","82","1","left","out","Female","Right-handed","1","2","no","left","d","972.594164065","808.718785027","16","red","1"
"100","87","18","861.659512536","1","1","1","83","3","left","in","Female","Right-handed","1","2","no","left","d","972.228556218","616.253513765","16","green","2"
"100","87","18","869.612889657","1","1","1","84","2","left","in","Female","Right-handed","1","2","no","left","d","1892.70179388","832.742748376","16","green","1"
"100","87","18","870.008373001","1","1","1","85","0","left","out","Female","Right-handed","1","2","no","left","s","853.495162913","936.352484449","16","red","2"
"100","100","18","611.589768753","1","1","2","86","0","left","out","Female","Right-handed","1","2","no","left","s","701.631284486","521.548253019","16","green","0"
"100","100","18","639.553717895","1","1","2","87","1","right","out","Female","Right-handed","1","2","no","right","d","749.894085972","585.141248102","16","red","1"
"100","66","18","641.661174531","1","0","2","88","3","right","out","Female","Right-handed","1","2","no","right","d","706.816501743","584.935673865","16","green","2"
"100","75","18","641.210258187","1","1","2","89","3","left","out","Female","Right-handed","1","2","no","left","s","574.320538663","705.394479642","16","red","2"
"100","80","18","652.474603885","1","1","2","90","3","left","out","Female","Right-handed","1","2","no","left","d","617.939158365","777.124814991","16","green","1"
"100","83","18","690.663984473","1","1","2","91","0","right","in","Female","Right-handed","1","2","no","right","d","953.671392309","809.550382525","16","red","1"
"100","85","18","706.750710656","1","1","2","92","1","right","in","Female","Right-handed","1","2","no","right","d","901.341043169","705.201092334","16","red","3"
"100","75","18","686.38295177","1","0","2","93","1","right","out","Female","Right-handed","1","2","no","right","d","446.711533805","640.905745335","16","red","0"
"100","77","18","673.344640095","1","1","2","94","1","left","out","Female","Right-handed","1","2","no","left","d","584.492133819","553.584159559","16","green","0"
"100","70","18","664.91898098","1","0","2","95","1","left","in","Female","Right-handed","1","2","no","left","d","537.032707471","641.143390436","16","green","3"
"100","72","18","671.631294691","1","1","2","96","3","right","in","Female","Right-handed","1","2","no","right","s","772.781457909","704.727405675","16","green","0"
"100","75","18","666.437159548","1","1","2","97","2","left","out","Female","Right-handed","1","2","no","left","s","497.224747803","721.37859815","16","red","3"
"100","76","18","682.782966474","1","1","2","98","3","right","out","Female","Right-handed","1","2","no","right","d","661.049454876","1096.81584429","16","red","0"
"100","78","18","691.259945118","1","1","2","99","2","left","out","Female","Right-handed","1","2","no","left","s","833.435158325","769.486176656","16","green","0"
"100","80","18","696.715932859","1","1","2","100","2","right","out","Female","Right-handed","1","2","no","right","d","793.233689159","752.965833306","16","red","1"
"100","81","18","689.963974398","1","1","2","101","3","right","in","Female","Right-handed","1","2","no","right","d","552.554043415","624.815151558","16","red","3"
"100","76","18","714.744155156","1","0","2","102","3","left","in","Female","Right-handed","1","2","no","left","d","1437.10406514","785.350029425","16","red","1"
"100","77","18","711.802576751","1","1","2","103","0","left","in","Female","Right-handed","1","2","no","left","s","666.794308705","656.797179046","16","red","0"
"100","78","18","708.200291997","1","1","2","104","2","left","in","Female","Right-handed","1","2","no","left","d","694.453504463","592.264828365","16","red","0"
"100","80","18","709.037248705","1","1","2","105","2","right","out","Female","Right-handed","1","2","no","right","s","784.934070321","664.94478199","16","green","1"
"100","80","18","716.943335136","1","1","2","106","0","left","out","Female","Right-handed","1","2","no","left","d","1029.49300775","720.63711978","16","green","1"
"100","81","18","725.842884255","1","1","2","107","0","left","in","Female","Right-handed","1","2","no","left","d","920.20640808","905.260423431","16","green","0"
"100","82","18","738.472738058","1","1","2","108","2","left","in","Female","Right-handed","1","2","no","left","s","1319.85010078","712.80894264","16","green","2"
"100","83","18","738.283945539","1","1","2","109","0","left","out","Female","Right-handed","1","2","no","left","s","618.396168173","849.487267065","16","red","1"
"100","84","18","741.693271052","1","1","2","110","1","right","in","Female","Right-handed","1","2","no","right","s","1046.08871763","600.945449064","16","green","2"
"100","84","18","737.594570501","1","1","2","111","1","left","out","Female","Right-handed","1","2","no","left","s","757.656197133","512.597916356","16","green","0"
"100","85","18","739.669181913","1","1","2","112","2","right","out","Female","Right-handed","1","2","no","right","d","698.114072856","889.104084384","16","green","0"
"100","85","18","745.565876647","1","1","2","113","2","right","out","Female","Right-handed","1","2","no","right","s","1136.72001655","672.833252355","16","green","1"
"100","82","18","750.330354779","1","0","2","114","3","right","in","Female","Right-handed","1","2","no","right","s","1046.26639022","721.205094777","16","green","1"
"100","83","18","750.267358756","1","1","2","115","0","left","in","Female","Right-handed","1","2","no","left","s","951.84399449","545.036953653","16","green","3"
"100","83","18","752.903408921","1","1","2","116","2","left","out","Female","Right-handed","1","2","no","left","s","959.458258969","704.511568762","16","red","1"
"96","84","18","770.233893812","0","1","2","117","0","left","in","Female","Right-handed","1","2","no","right","d","955.122598894","1659.83525197","16","green","1"
"96","84","18","770.773544861","1","1","2","118","1","right","in","Female","Right-handed","1","2","no","right","d","831.588197281","744.496559598","16","red","2"
"97","85","18","770.449618418","1","1","2","119","2","left","in","Female","Right-handed","1","2","no","left","d","734.156913115","785.363178479","16","red","3"
"97","85","18","771.457178639","1","1","2","120","0","left","in","Female","Right-handed","1","2","no","left","d","666.71765934","944.710792968","16","red","1"
"97","86","18","771.536493703","1","1","2","121","1","right","out","Female","Right-handed","1","2","no","right","s","516.293441989","1032.3315999","16","red","3"
"97","86","18","773.116091369","1","1","2","122","2","right","in","Female","Right-handed","1","2","no","right","s","698.971647753","960.991566966","16","green","2"
"97","84","18","772.852494873","1","0","2","123","0","left","in","Female","Right-handed","1","2","no","left","s","701.58798882","824.610860157","16","green","3"
"97","84","18","772.965055381","1","1","2","124","1","right","out","Female","Right-handed","1","2","no","right","d","953.219513838","601.265195576","16","green","1"
"97","82","18","775.40824606","1","0","2","125","1","left","in","Female","Right-handed","1","2","no","left","d","708.596755391","1032.78860971","16","red","1"
"97","82","18","775.601057854","1","1","2","126","3","left","out","Female","Right-handed","1","2","no","left","s","574.31893512","992.308124031","16","red","1"
"97","83","18","777.655641238","1","1","2","127","2","left","in","Female","Right-handed","1","2","no","left","d","650.949698454","1072.83742157","16","green","0"
"97","83","18","774.442739841","1","1","2","128","3","right","in","Female","Right-handed","1","2","no","right","s","526.546817849","752.454944445","16","green","3"
"97","84","18","768.570710205","1","1","2","129","2","right","in","Female","Right-handed","1","2","no","right","d","399.085018256","633.061853471","16","green","3"
"97","84","18","770.383654835","1","1","2","130","2","right","out","Female","Right-handed","1","2","no","right","d","979.591064416","720.715372688","16","green","1"
"97","84","18","766.318896495","1","1","2","131","2","right","out","Female","Right-handed","1","2","no","right","s","494.368837383","672.440704982","16","red","3"
"97","85","18","765.574848227","1","1","2","132","2","left","out","Female","Right-handed","1","2","no","left","s","893.871738995","568.825516862","16","red","1"
"97","85","18","762.83595232","1","1","2","133","1","right","out","Female","Right-handed","1","2","no","right","d","683.618363136","584.597326252","16","red","0"
"97","85","18","760.087747847","1","1","2","134","3","left","out","Female","Right-handed","1","2","no","left","d","504.080857062","752.267009184","16","red","0"
"98","86","18","757.442069597","1","1","2","135","1","right","in","Female","Right-handed","1","2","no","right","d","542.712457446","712.895213262","16","red","3"
"98","86","18","757.381670539","1","1","2","136","0","right","in","Female","Right-handed","1","2","no","right","s","916.36399789","592.359437413","16","red","2"
"98","84","18","761.075731398","1","0","2","137","0","right","in","Female","Right-handed","1","2","no","right","s","937.954744804","960.990925549","16","red","2"
"98","84","18","770.866754728","1","1","2","138","1","left","out","Female","Right-handed","1","2","no","left","d","1575.48631456","984.513621297","16","green","1"
"98","85","18","770.222116863","1","1","2","139","0","right","out","Female","Right-handed","1","2","no","right","d","688.027144779","784.085475266","16","green","3"
"98","85","18","767.993038873","1","1","2","140","3","left","out","Female","Right-handed","1","2","no","left","d","558.653600997","736.592053802","16","red","3"
"98","85","18","766.473038827","1","1","2","141","0","right","out","Female","Right-handed","1","2","no","right","d","645.407853192","720.338219329","16","green","0"
"98","85","18","764.33114821","1","1","2","142","3","left","in","Female","Right-handed","1","2","no","left","s","511.922824674","776.847722728","16","green","0"
"98","86","18","767.437713821","1","1","2","143","3","right","out","Female","Right-handed","1","2","no","right","d","952.527424597","936.496482627","16","red","1"
"98","86","18","766.066550141","1","1","2","144","0","right","in","Female","Right-handed","1","2","no","right","s","557.024721826","816.053391574","16","green","3"
"98","86","18","766.668035024","1","1","2","145","0","right","in","Female","Right-handed","1","2","no","right","s","859.548859159","744.762427059","16","green","1"
"98","86","18","768.527491788","1","1","2","146","3","left","in","Female","Right-handed","1","2","no","left","s","912.073237025","848.116558347","16","red","1"
"98","87","18","770.247976057","1","1","2","147","1","left","out","Female","Right-handed","1","2","no","left","d","853.722224628","896.672808237","16","green","1"
"98","87","18","769.901832868","1","1","2","148","1","left","in","Female","Right-handed","1","2","no","left","s","808.447144811","688.434765458","16","red","1"
"98","87","18","767.499015825","1","1","2","149","3","right","in","Female","Right-handed","1","2","no","right","s","568.113543686","664.129540632","16","red","3"
"100","100","18","664.686451183","1","1","3","150","1","right","in","Female","Right-handed","1","2","no","right","d","824.13685279","505.236049576","16","red","1"
"100","100","18","671.754388497","1","1","3","151","3","left","in","Female","Right-handed","1","2","no","left","s","652.772285643","704.87236598","16","green","1"
"100","100","18","785.329557524","1","1","3","152","2","left","out","Female","Right-handed","1","2","no","left","d","656.501164975","1368.45862618","16","green","3"
"100","100","18","764.360731472","1","1","3","153","2","left","out","Female","Right-handed","1","2","no","left","s","769.939017253","632.969489383","16","green","1"
"100","100","18","777.609630239","1","1","3","154","3","right","out","Female","Right-handed","1","2","no","right","d","548.52690505","1112.68354556","16","red","3"
"100","100","18","750.550389474","1","1","3","155","2","right","in","Female","Right-handed","1","2","no","right","s","501.248679081","729.259692215","16","green","3"
"100","100","18","729.301773771","1","1","3","156","0","right","in","Female","Right-handed","1","2","no","right","d","594.843325813","608.776833291","16","red","0"
"100","100","18","760.244155486","1","1","3","157","1","left","in","Female","Right-handed","1","2","no","left","s","713.52219865","1240.15945634","16","red","1"
"100","88","18","767.660507101","1","0","3","158","3","right","out","Female","Right-handed","1","2","no","right","d","500.95715493","1153.02548511","16","red","3"
"100","90","18","752.566198272","1","1","3","159","0","right","in","Female","Right-handed","1","2","no","right","d","552.782067256","680.652770361","16","green","3"
"100","81","18","785.075094657","1","0","3","160","1","left","out","Female","Right-handed","1","2","no","left","d","1059.13706927","1161.19104774","16","red","1"
"100","83","18","767.57178662","1","1","3","161","3","left","in","Female","Right-handed","1","2","no","left","s","509.67305358","640.397742853","16","green","3"
"100","84","18","772.279696911","1","1","3","162","1","left","in","Female","Right-handed","1","2","no","left","d","593.285643959","1064.26359684","16","green","3"
"100","85","18","760.965532297","1","1","3","163","0","right","out","Female","Right-handed","1","2","no","right","s","474.846340474","752.916444175","16","red","0"
"100","86","18","765.338815313","1","1","3","164","0","right","in","Female","Right-handed","1","2","no","right","d","900.55434488","752.575210185","16","red","1"
"100","87","18","790.634646315","1","1","3","165","3","right","in","Female","Right-handed","1","2","no","right","s","563.123317283","1777.02090539","16","green","0"
"100","88","18","794.813688562","1","1","3","166","0","right","out","Female","Right-handed","1","2","no","right","d","946.699507232","776.657221797","16","red","1"
"100","88","18","791.700470248","1","1","3","167","3","right","in","Female","Right-handed","1","2","no","right","s","869.262482381","608.289035453","16","green","1"
"100","89","18","790.700496027","1","1","3","168","2","right","out","Female","Right-handed","1","2","no","right","d","824.725353141","720.676566943","16","red","2"
"100","90","18","790.186868906","1","1","3","169","0","left","out","Female","Right-handed","1","2","no","left","d","736.519252941","824.336654272","16","red","2"
"100","90","18","779.133535365","1","1","3","170","3","right","in","Female","Right-handed","1","2","no","right","d","515.006758934","601.126970154","16","green","3"
"100","90","18","782.449890369","1","1","3","171","2","right","out","Female","Right-handed","1","2","no","right","d","863.481067767","840.705623145","16","green","1"
"100","91","18","775.894757927","1","1","3","172","2","left","in","Female","Right-handed","1","2","no","left","s","655.305883881","608.057804525","16","red","0"
"100","91","18","779.623081828","1","1","3","173","3","left","out","Female","Right-handed","1","2","no","left","s","1193.87350289","536.875560238","16","green","2"
"100","92","18","776.275706802","1","1","3","174","2","right","out","Female","Right-handed","1","2","no","right","d","655.32737136","736.550040971","16","green","0"
"100","92","18","791.628702782","1","1","3","175","3","right","out","Female","Right-handed","1","2","no","right","s","1455.039375","895.867829557","16","green","1"
"100","92","18","789.198016382","1","1","3","176","0","left","in","Female","Right-handed","1","2","no","left","s","707.512760195","744.487579756","16","red","2"
"100","92","18","788.590177428","1","1","3","177","2","left","out","Female","Right-handed","1","2","no","left","s","840.093069646","704.263981694","16","red","1"
"100","93","18","801.147008914","1","1","3","178","1","right","out","Female","Right-handed","1","2","no","right","s","1456.840154","848.636427049","16","green","0"
"100","93","18","803.034154935","1","1","3","179","0","left","out","Female","Right-handed","1","2","no","left","d","1051.32043764","664.202341493","16","red","1"
"100","93","18","800.982242621","1","1","3","180","2","right","in","Female","Right-handed","1","2","no","right","d","549.89248243","928.957263971","16","green","0"
"100","93","18","799.704777677","1","1","3","181","1","left","in","Female","Right-handed","1","2","no","left","s","711.685500281","808.521228507","16","red","0"
"100","93","18","800.078107131","1","1","3","182","2","left","out","Female","Right-handed","1","2","no","left","d","719.964914475","904.084384857","16","green","3"
"100","94","18","794.154613446","1","1","3","183","0","left","out","Female","Right-handed","1","2","no","left","s","620.632469505","576.726174154","16","green","3"
"100","94","18","798.839818177","1","1","3","184","1","right","out","Female","Right-handed","1","2","no","right","d","1092.25600888","824.017549176","16","red","1"
"100","94","18","796.616350154","1","1","3","185","3","left","out","Female","Right-handed","1","2","no","left","d","764.875669279","672.71426945","16","red","0"
"100","94","18","794.516935431","1","1","3","186","1","left","in","Female","Right-handed","1","2","no","left","s","509.368701082","928.507309752","16","red","3"
"100","92","18","794.886849351","1","0","3","187","2","left","out","Female","Right-handed","1","2","no","left","d","681.09117907","936.056149669","16","red","3"
"100","92","18","793.535011371","1","1","3","188","1","left","out","Female","Right-handed","1","2","no","left","s","595.659208587","888.671127724","16","green","3"
"100","92","18","793.564303685","1","1","3","189","2","right","out","Female","Right-handed","1","2","no","right","s","765.267895942","824.145511923","16","red","1"
"100","92","18","800.82494866","1","1","3","190","0","right","out","Female","Right-handed","1","2","no","right","d","598.756612611","1583.74488269","16","green","0"
"100","92","18","798.563114582","1","1","3","191","3","right","out","Female","Right-handed","1","2","no","right","s","587.414430926","824.241403806","16","red","0"
"100","93","18","797.421308635","1","1","3","192","1","right","in","Female","Right-handed","1","2","no","right","s","915.1020094","583.828908357","16","red","1"
"100","93","18","794.468009241","1","1","3","193","0","right","out","Female","Right-handed","1","2","no","right","s","582.464934519","752.487336017","16","green","3"
"100","93","18","797.707300273","1","1","3","194","2","right","in","Female","Right-handed","1","2","no","right","d","1040.23161578","840.240595619","16","green","1"
"100","93","18","793.059080736","1","1","3","195","2","left","out","Female","Right-handed","1","2","no","left","s","639.88043982","527.897963339","16","red","2"
"100","93","18","789.215605696","1","1","3","196","0","left","in","Female","Right-handed","1","2","no","left","s","464.454418483","760.377089216","16","red","0"
"100","91","18","788.025825197","1","0","3","197","3","left","in","Female","Right-handed","1","2","no","left","s","888.105397686","576.106885776","16","green","1"
"100","91","18","787.465711583","1","1","3","198","0","left","out","Female","Right-handed","1","2","no","left","d","776.624830224","744.535686052","16","red","1"
"100","92","18","790.149171209","1","1","3","199","2","right","in","Female","Right-handed","1","2","no","right","d","627.234256815","1216.0431289","16","red","0"
"100","92","18","791.583875889","1","1","3","200","3","right","out","Female","Right-handed","1","2","no","right","d","894.870746402","831.76747341","16","green","1"
"100","90","18","792.386244338","1","0","3","201","1","right","in","Female","Right-handed","1","2","no","right","d","482.366637321","1184.24743313","16","red","0"
"100","90","18","794.377883787","1","1","3","202","1","right","in","Female","Right-handed","1","2","no","right","d","795.905833529","999.980436774","16","red","3"
"100","90","18","791.715000131","1","1","3","203","0","left","in","Female","Right-handed","1","2","no","left","d","564.707617952","736.456714757","16","red","1"
"100","90","18","787.677260402","1","1","3","204","0","left","in","Female","Right-handed","1","2","no","left","s","579.141110197","560.137519864","16","red","3"
"100","91","18","786.419352201","1","1","3","205","3","left","out","Female","Right-handed","1","2","no","left","d","506.740814503","927.727987762","16","green","0"
"100","91","18","785.9621103","1","1","3","206","2","left","in","Female","Right-handed","1","2","no","left","s","792.351098988","728.362028738","16","green","1"
"100","91","18","783.384881717","1","1","3","207","0","left","in","Female","Right-handed","1","2","no","left","d","600.974312842","671.99139218","16","green","1"
"100","91","18","782.152341441","1","1","3","208","3","right","in","Female","Right-handed","1","2","no","right","s","644.646811594","776.683199197","16","red","1"
"100","90","18","792.067899898","1","0","3","209","1","left","in","Female","Right-handed","1","2","no","left","s","890.09635691","1864.07534087","16","green","1"
"100","90","18","792.553077082","1","1","3","210","3","left","in","Female","Right-handed","1","2","no","left","s","1059.65308947","583.674326792","16","green","2"
"100","90","18","790.331219088","1","1","3","211","1","left","out","Female","Right-handed","1","2","no","left","d","613.273168393","696.322594404","16","green","0"
"100","90","18","790.919140011","1","1","3","212","1","right","in","Female","Right-handed","1","2","no","right","d","798.823640716","855.916833836","16","green","2"
"100","90","18","794.004785474","1","1","3","213","1","right","out","Female","Right-handed","1","2","no","right","d","697.464317155","1279.33658211","16","green","2"
"100","100","18","522.402781186","1","1","4","214","2","right","in","Female","Right-handed","1","2","no","right","s","492.426625873","552.378936499","16","red","3"
"100","100","18","557.478604725","1","1","4","215","1","left","out","Female","Right-handed","1","2","no","left","d","575.977640194","609.131216335","16","green","0"
"100","100","18","584.410780728","1","1","4","216","1","right","in","Female","Right-handed","1","2","no","right","s","539.745902546","736.80436292","16","green","3"
"100","100","18","596.522035089","1","1","4","217","0","right","out","Female","Right-handed","1","2","no","right","s","465.428089908","800.283506436","16","red","3"
"100","100","18","570.595828543","1","1","4","218","1","right","in","Female","Right-handed","1","2","no","right","s","444.8363504","488.945654318","16","green","0"
"100","100","18","580.994752672","1","1","4","219","1","right","out","Female","Right-handed","1","2","no","right","s","465.375493691","800.603252947","16","red","0"
"100","100","18","607.362210397","1","1","4","220","1","left","out","Female","Right-handed","1","2","no","left","s","810.935202424","720.198711072","16","red","2"
"100","100","18","667.283529687","1","1","4","221","1","right","out","Female","Right-handed","1","2","no","right","d","1148.75781527","1024.70771416","16","red","1"
"100","88","18","694.612255239","1","0","4","222","0","left","in","Female","Right-handed","1","2","no","left","s","874.271630595","952.212488715","16","green","1"
"100","90","18","698.182287583","1","1","4","223","1","right","in","Female","Right-handed","1","2","no","right","d","619.689586109","840.935571238","16","green","3"
"100","90","18","684.608857185","1","1","4","224","0","left","in","Female","Right-handed","1","2","no","left","d","497.318394725","600.430711701","16","red","0"
"100","91","18","685.141154562","1","1","4","225","2","left","out","Female","Right-handed","1","2","no","left","s","837.972544134","544.020307271","16","green","1"
"100","92","18","686.561641989","1","1","4","226","2","right","out","Female","Right-handed","1","2","no","right","d","830.673536246","576.541445979","16","green","1"
"100","92","18","699.123480385","1","1","4","227","2","right","out","Female","Right-handed","1","2","no","right","d","932.438556234","792.416202842","16","green","1"
"100","93","18","701.939774125","1","1","4","228","3","right","in","Female","Right-handed","1","2","no","right","d","794.828252507","687.907520457","16","red","1"
"100","93","18","707.028730683","1","1","4","229","2","right","out","Female","Right-handed","1","2","no","right","d","646.410067686","920.316090434","16","red","2"
"100","88","18","722.056330963","1","0","4","230","0","right","in","Female","Right-handed","1","2","no","right","d","933.090556894","991.905313982","16","red","1"
"100","83","18","799.879173021","1","0","4","231","2","left","out","Female","Right-handed","1","2","no","left","None","1245.63395278","3000.10102322","16","green","1"
"100","78","18","797.488674132","1","0","4","232","1","left","in","Female","Right-handed","1","2","no","left","d","572.957206243","935.962182038","16","red","1"
"100","80","18","790.319241396","1","1","4","233","2","left","in","Female","Right-handed","1","2","no","left","d","691.569371684","616.630667122","16","red","1"
"100","80","18","773.763964093","1","1","4","234","3","left","out","Female","Right-handed","1","2","no","left","s","469.069095073","416.247741008","16","green","0"
"100","81","18","773.45019373","1","1","4","235","2","right","in","Female","Right-handed","1","2","no","right","s","509.792677902","1023.9293543","16","red","3"
"100","82","18","768.101656551","1","1","4","236","2","left","in","Female","Right-handed","1","2","no","left","s","508.429345482","792.438331739","16","red","0"
"100","83","18","770.082093394","1","1","4","237","3","left","out","Female","Right-handed","1","2","no","left","d","983.081336522","648.182945035","16","red","0"
"100","84","18","766.482951931","1","1","4","238","1","left","out","Female","Right-handed","1","2","no","left","d","631.526621222","728.680492416","16","green","2"
"100","84","18","756.245646535","1","1","4","239","2","right","in","Female","Right-handed","1","2","no","right","d","480.325006134","520.301017127","16","red","0"
"96","85","18","751.083237967","0","1","4","240","0","right","in","Female","Right-handed","1","2","no","left","s","630.944535044","602.776695387","16","green","1"
"96","85","18","745.991227932","1","1","4","241","2","right","in","Female","Right-handed","1","2","no","right","s","480.401334789","736.612579155","16","red","0"
"96","86","18","745.803707182","1","1","4","242","0","right","out","Female","Right-handed","1","2","no","right","s","737.140786281","743.965466094","16","red","1"
"96","86","18","751.168352258","1","1","4","243","3","right","out","Female","Right-handed","1","2","no","right","s","501.707933851","1311.77818508","16","green","0"
"96","87","18","751.769057296","1","1","4","244","1","left","in","Female","Right-handed","1","2","no","left","s","851.34160441","688.238812481","16","red","3"
"96","87","18","755.86451824","1","1","4","245","0","right","in","Female","Right-handed","1","2","no","right","d","957.926233806","807.721381164","16","green","1"
"96","87","18","750.143519545","1","1","4","246","2","right","out","Female","Right-handed","1","2","no","right","d","469.528349841","664.614772802","16","red","3"
"97","88","18","757.522532376","1","1","4","247","3","right","out","Female","Right-handed","1","2","no","right","d","953.9866489","1048.07326268","16","green","1"
"97","88","18","758.283700236","1","1","4","248","0","left","out","Female","Right-handed","1","2","no","left","s","856.672102678","711.654712251","16","red","1"
"97","88","18","755.201141331","1","1","4","249","0","left","in","Female","Right-handed","1","2","no","left","d","526.220977873","768.402181461","16","green","3"
"97","89","18","752.204778706","1","1","4","250","1","left","in","Female","Right-handed","1","2","no","left","d","568.904731896","719.766716537","16","green","3"
"97","89","18","750.080409251","1","1","4","251","3","right","out","Female","Right-handed","1","2","no","right","d","686.409169701","656.548309144","16","red","1"
"94","89","18","766.962614953","0","1","4","252","2","left","in","Female","Right-handed","1","2","no","right","d","966.064215492","1850.90864775","16","green","2"
"95","90","18","774.303292555","1","1","4","253","3","left","in","Female","Right-handed","1","2","no","left","d","1001.65774295","1119.52169514","16","red","2"
"95","90","18","778.435132708","1","1","4","254","3","left","in","Female","Right-handed","1","2","no","left","s","631.187311483","1256.23016618","16","red","3"
"95","90","18","784.524529209","1","1","4","255","3","right","in","Female","Right-handed","1","2","no","right","d","1220.71168454","847.667886963","16","green","1"
"95","90","18","787.251402793","1","1","4","256","3","left","in","Female","Right-handed","1","2","no","left","d","1075.28057997","728.279606618","16","red","2"
"93","90","18","787.231255273","0","1","4","257","1","left","out","Female","Right-handed","1","2","no","right","d","833.842458296","738.887365522","16","green","1"
"93","91","18","789.00302553","1","1","4","258","0","right","in","Female","Right-handed","1","2","no","right","s","710.457506907","1023.46432678","16","green","2"
"93","91","18","790.11106419","1","1","4","259","2","right","in","Female","Right-handed","1","2","no","right","d","1136.02472022","543.920887593","16","green","1"
"93","89","18","794.069339869","1","0","4","260","0","left","out","Female","Right-handed","1","2","no","left","d","776.694744708","1175.60529747","16","green","3"
"93","89","18","791.758208939","1","1","4","261","3","left","out","Female","Right-handed","1","2","no","left","d","614.119518488","752.150591948","16","green","3"
"93","89","18","795.216362319","1","1","4","262","0","left","out","Female","Right-handed","1","2","no","left","d","762.660214009","1159.75523517","16","red","2"
"94","90","18","796.410616097","1","1","4","263","0","right","out","Female","Right-handed","1","2","no","right","s","501.466440247","1208.39166222","16","green","3"
"94","88","18","799.215587547","1","0","4","264","3","right","in","Female","Right-handed","1","2","no","right","s","959.082388446","919.845931571","16","red","1"
"94","88","18","801.153194252","1","1","4","265","1","left","out","Female","Right-handed","1","2","no","left","s","696.552221789","1103.39005066","16","red","1"
"94","88","18","797.501325722","1","1","4","266","3","right","in","Female","Right-handed","1","2","no","right","s","527.028522222","688.17980209","16","red","3"
"94","88","18","797.133559647","1","1","4","267","3","left","in","Female","Right-handed","1","2","no","left","d","571.715743106","983.568172233","16","green","0"
"94","89","18","794.845150936","1","1","4","268","3","right","out","Female","Right-handed","1","2","no","right","s","550.264825158","792.277336001","16","red","3"
"94","89","18","796.757306373","1","1","4","269","1","right","out","Female","Right-handed","1","2","no","right","s","971.911375375","831.940335365","16","green","1"
"94","89","18","793.868509402","1","1","4","270","3","left","out","Female","Right-handed","1","2","no","left","s","712.567769744","551.623988364","16","red","1"
"94","89","18","791.155602246","1","1","4","271","0","left","in","Female","Right-handed","1","2","no","left","d","576.919882172","696.119906546","16","green","0"
"94","88","18","795.225064217","1","0","4","272","1","right","out","Female","Right-handed","1","2","no","right","s","838.718512426","1223.78920463","16","green","1"
"95","88","18","794.349784617","1","1","4","273","2","right","out","Female","Right-handed","1","2","no","right","s","670.148279639","815.268296828","16","green","3"
"95","88","18","794.77589025","1","1","4","274","0","left","out","Female","Right-handed","1","2","no","left","s","848.868940812","791.815515563","16","red","0"
"95","87","18","791.666137756","1","0","4","275","2","left","out","Female","Right-handed","1","2","no","left","d","524.521222092","679.421249192","16","red","0"
"95","87","18","787.528073778","1","1","4","276","0","left","in","Female","Right-handed","1","2","no","left","s","517.937715176","543.998499084","16","green","0"
"95","87","18","786.193756224","1","1","4","277","1","left","in","Female","Right-handed","1","2","no","left","s","644.564389475","759.699111156","16","green","0"
"100","100","18","501.008468312","1","1","5","278","3","right","in","Female","Right-handed","1","2","no","right","d","458.002722817","544.014213807","16","red","0"
"100","100","18","625.343599217","1","1","5","279","0","left","out","Female","Right-handed","1","2","no","left","s","834.688166974","664.66929327","16","green","1"
"100","100","18","597.615370924","1","1","5","280","2","right","out","Female","Right-handed","1","2","no","right","s","556.125775514","528.192053161","16","green","3"
"100","100","18","619.55324485","1","1","5","281","2","left","in","Female","Right-handed","1","2","no","left","d","698.905261065","671.828472192","16","green","0"
"100","80","18","653.730306485","1","0","5","282","2","left","in","Female","Right-handed","1","2","no","left","d","716.421084027","864.456022026","16","red","1"
"100","66","18","665.283129603","1","0","5","283","0","right","in","Female","Right-handed","1","2","no","right","s","542.054363322","904.040127064","16","red","3"
"100","71","18","670.319308974","1","1","5","284","0","left","out","Female","Right-handed","1","2","no","left","s","776.629640854","624.443129539","16","red","2"
"100","75","18","687.239724896","1","1","5","285","1","right","in","Female","Right-handed","1","2","no","right","s","755.193154795","856.172117912","16","red","1"
"100","77","18","704.300952273","1","1","5","286","1","left","in","Female","Right-handed","1","2","no","left","d","809.795083215","871.786459361","16","red","1"
"100","80","18","694.005346213","1","1","5","287","3","left","in","Female","Right-handed","1","2","no","left","s","642.362083259","560.327700086","16","green","0"
"100","81","18","691.874569686","1","1","5","288","1","right","in","Female","Right-handed","1","2","no","right","s","741.03034064","600.103268181","16","green","1"
"100","83","18","682.383955588","1","1","5","289","1","right","out","Female","Right-handed","1","2","no","right","s","516.533652759","639.440748278","16","red","0"
"100","84","18","699.178739188","1","1","5","290","3","right","in","Female","Right-handed","1","2","no","right","s","1169.22223345","632.21005133","16","green","1"
"100","85","18","706.694082674","1","1","5","291","2","right","out","Female","Right-handed","1","2","no","right","s","912.926963419","695.860132548","16","green","3"
"100","86","18","710.146056059","1","1","5","292","3","right","out","Female","Right-handed","1","2","no","right","s","820.505468884","696.441898019","16","red","1"
"100","87","18","700.417181805","1","1","5","293","3","left","out","Female","Right-handed","1","2","no","left","d","549.080768866","559.887367127","16","red","3"
"100","88","18","697.750153445","1","1","5","294","0","right","in","Female","Right-handed","1","2","no","right","s","814.624313883","495.531085486","16","green","1"
"100","88","18","689.358326157","1","1","5","295","3","left","in","Female","Right-handed","1","2","no","left","s","709.142922201","384.25160234","16","green","1"
"100","89","18","690.094787126","1","1","5","296","2","left","in","Female","Right-handed","1","2","no","left","d","782.815148352","623.887020761","16","red","1"
"100","90","18","685.388025381","1","1","5","297","2","right","out","Female","Right-handed","1","2","no","right","s","640.433020803","551.48608365","16","red","3"
"100","90","18","678.656397271","1","1","5","298","2","left","in","Female","Right-handed","1","2","no","left","s","632.047131341","456.000538791","16","green","2"
"100","90","18","665.821213098","1","1","5","299","3","right","in","Female","Right-handed","1","2","no","right","s","424.730484478","367.834206462","16","red","0"
"100","91","18","670.208231238","1","1","5","300","1","left","in","Female","Right-handed","1","2","no","left","d","821.200765211","712.244495437","16","green","2"
"100","91","18","668.946931807","1","1","5","301","3","left","in","Female","Right-handed","1","2","no","left","d","703.851229677","576.022860112","16","red","2"
"100","92","18","664.95188248","1","1","5","302","0","right","in","Female","Right-handed","1","2","no","right","d","546.509968426","591.631428805","16","green","2"
"100","92","18","661.377539812","1","1","5","303","1","left","out","Female","Right-handed","1","2","no","left","s","567.889689057","576.14825719","16","green","3"
"100","88","18","659.872899603","1","0","5","304","2","left","out","Female","Right-handed","1","2","no","left","d","441.748888344","799.755620018","16","green","0"
"100","89","18","656.710547626","1","1","5","305","1","left","in","Female","Right-handed","1","2","no","left","s","534.325926567","608.328161907","16","red","1"
"100","89","18","653.167575627","1","1","5","306","3","left","in","Female","Right-handed","1","2","no","left","s","596.032513442","511.896205857","16","green","3"
"100","90","18","654.184542164","1","1","5","307","3","left","in","Female","Right-handed","1","2","no","left","d","727.629209501","639.723934005","16","green","1"
"100","90","18","659.249669036","1","1","5","308","0","right","out","Female","Right-handed","1","2","no","right","s","734.257615627","888.14933477","16","red","1"
"100","90","18","657.454391223","1","1","5","309","1","left","out","Female","Right-handed","1","2","no","left","d","643.789557406","559.812000597","16","red","1"
"100","90","18","652.793335791","1","1","5","310","0","right","out","Female","Right-handed","1","2","no","right","d","399.65171042","607.627413533","16","red","0"
"100","91","18","654.406909271","1","1","5","311","1","right","out","Female","Right-handed","1","2","no","right","s","519.206438547","896.103229697","16","green","3"
"100","91","18","654.155195033","1","1","5","312","1","right","out","Female","Right-handed","1","2","no","right","d","443.610281278","847.583540591","16","green","3"
"100","91","18","649.867026181","1","1","5","313","3","right","out","Female","Right-handed","1","2","no","right","d","360.250088595","639.312144115","16","red","3"
"97","91","18","673.285000808","0","1","5","314","3","right","in","Female","Right-handed","1","2","no","left","d","1589.900885","1442.76328976","16","green","1"
"97","89","18","671.538792115","1","0","5","315","3","left","out","Female","Right-handed","1","2","no","left","s","510.366104945","703.492036003","16","green","0"
"97","89","18","671.936513998","1","1","5","316","1","left","out","Female","Right-handed","1","2","no","left","d","518.094862408","856.005028712","16","red","0"
"97","87","18","673.381126938","1","0","5","317","2","right","out","Female","Right-handed","1","2","no","right","d","491.768211039","967.673852144","16","green","3"
"97","87","18","678.977044262","1","1","5","318","0","right","out","Female","Right-handed","1","2","no","right","d","526.340922903","1279.28655156","16","green","3"
"97","88","18","683.997528558","1","1","5","319","3","left","in","Female","Right-handed","1","2","no","left","d","1219.7190913","559.955678066","16","red","2"
"97","88","18","690.202981345","1","1","5","320","0","right","in","Female","Right-handed","1","2","no","right","d","1222.3030408","679.360955969","16","red","1"
"97","88","18","688.311893961","1","1","5","321","3","right","in","Female","Right-handed","1","2","no","right","d","494.016057882","719.974215025","16","red","3"
"97","88","18","688.249887618","1","1","5","322","1","left","out","Female","Right-handed","1","2","no","left","d","715.434904966","655.608312127","16","green","1"
"97","89","18","693.249410855","1","1","5","323","2","left","out","Female","Right-handed","1","2","no","left","s","1069.19160577","767.264307213","16","red","0"
"97","89","18","691.623059674","1","1","5","324","1","right","in","Female","Right-handed","1","2","no","right","d","473.868499837","759.753310916","16","red","0"
"97","89","18","690.190852374","1","1","5","325","0","right","in","Female","Right-handed","1","2","no","right","s","526.352468414","719.401750107","16","green","3"
"97","89","18","690.984264954","1","1","5","326","0","left","out","Female","Right-handed","1","2","no","left","s","499.13937837","958.996759239","16","green","3"
"98","90","18","693.147088206","1","1","5","327","2","right","in","Female","Right-handed","1","2","no","right","d","710.680078702","887.570776387","16","green","2"
"98","88","18","700.970888805","1","0","5","328","1","left","out","Female","Right-handed","1","2","no","left","d","673.239910908","1511.08192663","16","green","0"
"98","86","18","706.302618574","1","0","5","329","2","right","in","Female","Right-handed","1","2","no","right","s","964.782984483","991.65868904","16","green","1"
"98","86","18","703.472127863","1","1","5","330","0","right","out","Female","Right-handed","1","2","no","right","d","489.330825391","623.242396399","16","red","0"
"98","87","18","704.673197007","1","1","5","331","2","left","in","Female","Right-handed","1","2","no","left","d","880.87213507","655.787588255","16","red","1"
"98","87","18","705.106060533","1","1","5","332","3","left","in","Female","Right-handed","1","2","no","left","s","617.512615876","839.448765994","16","green","1"
"98","87","18","704.963155159","1","1","5","333","0","right","out","Female","Right-handed","1","2","no","right","d","491.217875017","902.98884415","16","red","0"
"98","85","18","711.573789586","1","0","5","334","1","right","out","Female","Right-handed","1","2","no","right","d","715.808851238","1447.72978373","16","green","2"
"98","84","18","709.913109524","1","0","5","335","0","left","out","Female","Right-handed","1","2","no","left","s","711.312516136","519.196175871","16","green","1"
"98","84","18","712.394804509","1","1","5","336","0","left","in","Female","Right-handed","1","2","no","left","d","912.854483267","799.81174403","16","red","1"
"98","85","18","715.011369121","1","1","5","337","2","left","out","Female","Right-handed","1","2","no","left","s","803.355253768","935.422108691","16","red","1"
"98","85","18","714.740980852","1","1","5","338","0","left","out","Female","Right-handed","1","2","no","left","s","606.009117746","791.026251605","16","red","0"
"98","85","18","713.917456528","1","1","5","339","1","right","in","Female","Right-handed","1","2","no","right","d","663.729296254","663.635649331","16","red","3"
"98","84","18","715.585986733","1","0","5","340","2","left","out","Female","Right-handed","1","2","no","left","d","727.02691868","911.042800171","16","red","1"
"98","84","18","724.829583448","1","1","5","341","2","right","out","Female","Right-handed","1","2","no","right","d","502.653062206","2111.69929075","16","green","0"
"100","100","18","926.284157475","1","1","6","342","0","left","in","Female","Right-handed","1","2","no","left","d","1148.81329786","703.755017086","16","red","2"
"100","100","18","1046.79395593","1","1","6","343","3","right","in","Female","Right-handed","1","2","no","right","d","1046.27055943","1288.33694932","16","green","1"
"100","100","18","961.978387445","1","1","6","344","0","right","out","Female","Right-handed","1","2","no","right","s","904.688279222","680.006221747","16","red","1"
"100","100","18","922.724772658","1","1","6","345","2","left","out","Female","Right-handed","1","2","no","left","s","914.554559756","695.373296837","16","green","1"
"100","100","18","901.271834245","1","1","6","346","3","left","out","Female","Right-handed","1","2","no","left","d","919.020106829","711.90005436","16","red","1"
"100","100","18","905.504081819","1","1","6","347","3","right","out","Female","Right-handed","1","2","no","right","s","1069.59922645","783.73141293","16","red","1"
"100","100","18","913.392792715","1","1","6","348","2","right","out","Female","Right-handed","1","2","no","right","s","1041.13633485","880.313781331","16","red","1"
"100","100","18","881.56917525","1","1","6","349","2","right","out","Female","Right-handed","1","2","no","right","s","789.822952796","527.784753191","16","green","3"
"100","100","18","860.774803562","1","1","6","350","0","left","in","Female","Right-handed","1","2","no","left","d","781.339247201","607.500412913","16","green","1"
"100","100","18","915.74060444","1","1","6","351","2","left","out","Female","Right-handed","1","2","no","left","d","1909.08583606","911.779788621","16","green","1"
"100","100","18","908.949505737","1","1","6","352","3","left","out","Female","Right-handed","1","2","no","left","d","1042.51634411","639.560693308","16","green","2"
"100","100","18","890.138810716","1","1","6","353","0","left","out","Female","Right-handed","1","2","no","left","d","734.248956494","632.193374481","16","red","1"
"100","100","18","869.264443638","1","1","6","354","1","right","out","Female","Right-handed","1","2","no","right","d","645.746200805","591.797876588","16","red","1"
"100","100","18","863.518739578","1","1","6","355","0","left","out","Female","Right-handed","1","2","no","left","d","922.345213985","655.303959629","16","red","2"
"100","100","18","852.711393762","1","1","6","356","3","right","in","Female","Right-handed","1","2","no","right","s","554.885595211","847.931509463","16","red","3"
"100","93","18","845.203221037","1","0","6","357","2","right","in","Female","Right-handed","1","2","no","right","s","729.553782036","735.607478284","16","red","0"
"100","94","18","849.318508294","1","1","6","358","3","left","in","Female","Right-handed","1","2","no","left","d","670.218514831","1160.10769396","16","red","2"
"100","94","18","837.671514534","1","1","6","359","2","right","out","Female","Right-handed","1","2","no","right","s","631.677995699","647.667245545","16","red","0"
"100","94","18","826.333411569","1","1","6","360","1","left","out","Female","Right-handed","1","2","no","left","s","661.273309505","583.221806905","16","green","2"
"100","95","18","818.848231051","1","1","6","361","0","left","out","Female","Right-handed","1","2","no","left","s","689.266683665","663.992918753","16","red","3"
"100","95","18","812.046656387","1","1","6","362","1","right","out","Female","Right-handed","1","2","no","right","s","840.572849769","511.45747644","16","green","1"
"100","95","18","813.872638436","1","1","6","363","3","left","in","Female","Right-handed","1","2","no","left","d","913.191868753","791.244654188","16","green","0"
"100","95","18","817.361248371","1","1","6","364","0","left","in","Female","Right-handed","1","2","no","left","d","740.591611224","1047.62972263","16","red","1"
"100","95","18","813.048044292","1","1","6","365","0","right","in","Female","Right-handed","1","2","no","right","d","516.28157577","911.407125183","16","red","0"
"100","96","18","812.20488792","1","1","6","366","0","left","out","Female","Right-handed","1","2","no","left","d","735.944543062","847.993726939","16","green","1"
"100","96","18","810.775686881","1","1","6","367","0","left","out","Female","Right-handed","1","2","no","left","s","926.648803195","623.442518589","16","green","1"
"100","96","18","813.62091752","1","1","6","368","1","left","out","Female","Right-handed","1","2","no","left","d","696.064103243","1079.12972504","16","red","3"
"100","96","18","811.771020676","1","1","6","369","0","right","in","Female","Right-handed","1","2","no","right","s","635.806798702","887.84081306","16","red","0"
"100","96","18","824.666702166","1","1","6","370","1","right","out","Female","Right-handed","1","2","no","right","d","1228.24192335","1143.24964441","16","red","1"
"100","96","18","819.639673155","1","1","6","371","1","right","in","Female","Right-handed","1","2","no","right","d","619.831339327","727.880324366","16","red","0"
"100","96","18","817.315126601","1","1","6","372","3","right","out","Female","Right-handed","1","2","no","right","d","607.657560145","887.499899779","16","red","0"
"100","93","18","814.73110986","1","0","6","373","2","left","out","Female","Right-handed","1","2","no","left","d","846.163442743","623.089739088","16","green","1"
"100","93","18","823.48472093","1","1","6","374","3","right","in","Female","Right-handed","1","2","no","right","s","1407.68289613","799.517654209","16","green","1"
"100","94","18","821.270094872","1","1","6","375","1","left","in","Female","Right-handed","1","2","no","left","d","881.136719696","615.238150216","16","red","2"
"100","94","18","823.284629145","1","1","6","376","1","right","in","Female","Right-handed","1","2","no","right","d","1135.7527593","647.804829551","16","green","1"
"100","94","18","831.067691616","1","1","6","377","1","left","in","Female","Right-handed","1","2","no","left","s","1191.43740008","1015.5123561","16","green","3"
"100","91","18","832.228435735","1","0","6","378","0","right","in","Female","Right-handed","1","2","no","right","d","517.032996108","1230.99745197","16","green","3"
"100","92","18","830.659433505","1","1","6","379","3","right","out","Female","Right-handed","1","2","no","right","s","593.620143068","951.592558918","16","green","3"
"100","92","18","827.98863754","1","1","6","380","1","left","out","Female","Right-handed","1","2","no","left","d","693.99296686","759.003814829","16","red","3"
"100","92","18","822.133117336","1","1","6","381","0","right","out","Female","Right-handed","1","2","no","right","s","555.777485933","631.758172859","16","green","0"
"100","90","18","821.407739615","1","0","6","382","3","left","out","Female","Right-handed","1","2","no","left","d","713.447473538","871.337787977","16","green","0"
"100","90","18","821.012841403","1","1","6","383","2","left","in","Female","Right-handed","1","2","no","left","d","530.905568945","1078.7384605","16","green","0"
"100","90","18","822.453374838","1","1","6","384","1","right","out","Female","Right-handed","1","2","no","right","s","830.394840439","935.51671774","16","green","1"
"100","90","18","823.718922057","1","1","6","385","3","left","in","Female","Right-handed","1","2","no","left","s","677.092583773","1079.18232126","16","green","3"
"100","91","18","827.34080335","1","1","6","386","2","right","out","Female","Right-handed","1","2","no","right","d","1141.6897176","831.717442862","16","red","1"
"100","91","18","834.806142435","1","1","6","387","3","left","in","Female","Right-handed","1","2","no","left","d","1038.27978301","1303.21301949","16","green","1"
"100","91","18","838.932148731","1","1","6","388","2","left","in","Female","Right-handed","1","2","no","left","s","1465.6432854","591.813591311","16","red","2"
"100","91","18","835.245581971","1","1","6","389","0","left","in","Female","Right-handed","1","2","no","left","s","644.470421844","679.483466668","16","red","3"
"100","91","18","830.118792116","1","1","6","390","2","right","in","Female","Right-handed","1","2","no","right","d","488.956558411","679.109199687","16","green","3"
"100","92","18","826.21665472","1","1","6","391","3","right","in","Female","Right-handed","1","2","no","right","s","495.478809978","774.545034708","16","green","3"
"100","90","18","822.012466196","1","0","6","392","2","left","in","Female","Right-handed","1","2","no","left","d","504.411186959","719.194893036","16","green","3"
"100","90","18","819.449914994","1","1","6","393","0","left","in","Female","Right-handed","1","2","no","left","s","538.811998993","838.707608332","16","green","3"
"100","90","18","819.459495815","1","1","6","394","3","right","in","Female","Right-handed","1","2","no","right","s","968.381976816","671.533420246","16","red","1"
"100","90","18","827.366816384","1","1","6","395","2","right","in","Female","Right-handed","1","2","no","right","d","981.990927153","1510.91868593","16","green","1"
"100","90","18","830.586574641","1","1","6","396","0","left","out","Female","Right-handed","1","2","no","left","d","722.409676421","1286.49736458","16","red","0"
"100","91","18","835.827295421","1","1","6","397","2","left","in","Female","Right-handed","1","2","no","left","s","897.109292693","1351.02458392","16","red","2"
"100","91","18","834.658808067","1","1","6","398","1","right","out","Female","Right-handed","1","2","no","right","s","843.750110243","694.69692232","16","green","0"
"100","91","18","830.186827711","1","1","6","399","1","right","in","Female","Right-handed","1","2","no","right","d","463.30628156","687.261613261","16","red","0"
"100","91","18","828.861135633","1","1","6","400","1","right","out","Female","Right-handed","1","2","no","right","s","657.032899895","846.909090325","16","green","3"
"100","90","18","830.120022535","1","0","6","401","1","right","in","Female","Right-handed","1","2","no","right","s","1129.44313756","679.345561954","16","red","1"
"100","90","18","831.930587925","1","1","6","402","2","left","in","Female","Right-handed","1","2","no","left","d","530.109890815","1351.01913187","16","red","3"
"100","88","18","831.835347254","1","0","6","403","2","left","out","Female","Right-handed","1","2","no","left","s","796.565531198","855.485801427","16","red","0"
"100","88","18","829.929331852","1","1","6","404","3","right","in","Female","Right-handed","1","2","no","right","s","576.269164346","847.243589436","16","green","0"
"100","89","18","825.747621945","1","1","6","405","1","right","out","Female","Right-handed","1","2","no","right","s","485.849853837","638.749941872","16","green","0"
"100","100","18","550.503432385","1","1","7","406","1","left","out","Female","Right-handed","1","2","no","left","d","588.915988769","512.090876","16","green","3"
"100","100","18","539.095425252","1","1","7","407","3","right","out","Female","Right-handed","1","2","no","right","s","487.668592522","567.706243716","16","red","0"
"100","100","18","593.005772221","1","1","7","408","0","right","out","Female","Right-handed","1","2","no","right","s","810.330025223","591.322907096","16","red","1"
"75","100","18","600.97463355","0","1","7","409","2","right","in","Female","Right-handed","1","2","no","left","d","544.017420893","705.745014183","16","green","2"
"80","100","18","600.587602366","1","1","7","410","1","left","in","Female","Right-handed","1","2","no","left","d","702.586675519","495.492279741","16","red","1"
"83","100","18","570.347947491","1","1","7","411","2","right","out","Female","Right-handed","1","2","no","right","s","495.084659063","343.214687173","16","red","0"
"85","85","18","595.980558642","1","0","7","412","0","right","in","Female","Right-handed","1","2","no","right","d","531.70252991","967.849921186","16","green","0"
"87","87","18","608.037098773","1","1","7","413","1","right","in","Female","Right-handed","1","2","no","right","s","713.385897479","671.479861903","16","red","0"
"88","77","18","610.41378363","1","0","7","414","3","left","out","Female","Right-handed","1","2","no","left","s","442.92460621","815.929918748","16","green","0"
"90","80","18","621.224144871","1","1","7","415","0","right","out","Female","Right-handed","1","2","no","right","s","853.500935668","583.53385641","16","red","1"
"90","81","18","637.032940713","1","1","7","416","3","left","in","Female","Right-handed","1","2","no","left","s","871.101105002","719.140693276","16","red","2"
"91","75","18","752.795951267","1","0","7","417","2","left","out","Female","Right-handed","1","2","no","left","s","2012.74496127","2039.63317346","16","red","1"
"92","76","18","758.057736683","1","1","7","418","1","right","out","Female","Right-handed","1","2","no","right","s","843.243711304","799.15461203","16","red","2"
"92","78","18","744.28823643","1","1","7","419","3","left","in","Female","Right-handed","1","2","no","left","d","474.735695994","655.833770298","16","green","3"
"93","80","18","758.823897283","1","1","7","420","3","left","out","Female","Right-handed","1","2","no","left","s","893.383299739","1031.26299872","16","red","1"
"93","81","18","795.363855976","1","1","7","421","2","left","out","Female","Right-handed","1","2","no","left","s","1112.03635553","1574.8901172","16","red","1"
"94","82","18","788.700444266","1","1","7","422","1","right","in","Female","Right-handed","1","2","no","right","s","844.625003408","519.546710411","16","red","1"
"94","83","18","773.558534939","1","1","7","423","0","left","in","Female","Right-handed","1","2","no","left","s","553.096041012","479.196111728","16","green","2"
"94","84","18","774.460063799","1","1","7","424","0","right","in","Female","Right-handed","1","2","no","right","d","893.797655299","687.57751127","16","red","1"
"95","85","18","759.131072017","1","1","7","425","0","left","in","Female","Right-handed","1","2","no","left","s","536.384234604","399.3762217","16","green","0"
"95","85","18","750.098804986","1","1","7","426","0","right","in","Female","Right-handed","1","2","no","right","d","524.016426696","614.890502053","16","green","3"
"95","81","18","744.621949387","1","0","7","427","2","right","out","Female","Right-handed","1","2","no","right","d","603.616631309","655.599332285","16","red","0"
"95","82","18","752.775367234","1","1","7","428","3","left","out","Female","Right-handed","1","2","no","left","d","745.191214508","1119.10990525","16","red","1"
"95","83","18","762.02350046","1","1","7","429","3","left","in","Female","Right-handed","1","2","no","left","s","981.732435991","967.72869332","16","green","1"
"96","84","18","763.891792906","1","1","7","430","1","left","out","Female","Right-handed","1","2","no","left","s","922.209233522","695.252389681","16","green","3"
"96","84","18","758.1266397","1","1","7","431","3","left","in","Female","Right-handed","1","2","no","left","s","533.036677843","694.958941276","16","red","3"
"96","85","18","770.172469385","1","1","7","432","2","right","in","Female","Right-handed","1","2","no","right","s","1095.39093581","1071.33714656","16","red","2"
"96","85","18","769.101595457","1","1","7","433","1","left","out","Female","Right-handed","1","2","no","left","d","817.199604245","663.176394562","16","red","3"
"96","86","18","767.604308134","1","1","7","434","2","right","in","Female","Right-handed","1","2","no","right","s","475.669920256","975.690605963","16","green","3"
"96","86","18","768.395104489","1","1","7","435","0","right","out","Female","Right-handed","1","2","no","right","d","535.30248437","1047.35391321","16","red","3"
"96","83","18","773.116505327","1","0","7","436","1","left","in","Female","Right-handed","1","2","no","left","s","974.73072501","854.786335887","16","red","1"
"96","84","18","775.000866915","1","1","7","437","2","left","out","Female","Right-handed","1","2","no","left","d","843.387068066","823.445084258","16","green","1"
"96","84","18","773.639946341","1","1","7","438","0","right","out","Female","Right-handed","1","2","no","right","d","725.113250238","735.067725647","16","green","1"
"97","85","18","778.021936093","1","1","7","439","0","right","out","Female","Right-handed","1","2","no","right","s","1005.62747447","839.627721413","16","red","1"
"97","85","18","781.957765879","1","1","7","440","3","right","out","Female","Right-handed","1","2","no","right","d","1064.27802873","767.273928473","16","green","2"
"97","83","18","780.507783331","1","0","7","441","2","left","out","Female","Right-handed","1","2","no","left","s","860.756006472","598.760781823","16","green","0"
"97","83","18","785.556877829","1","1","7","442","3","right","in","Female","Right-handed","1","2","no","right","d","911.345549125","1023.30301033","16","green","1"
"97","84","18","791.147703123","1","1","7","443","0","left","in","Female","Right-handed","1","2","no","left","d","604.989584987","1391.02689302","16","green","3"
"97","84","18","794.502819584","1","1","7","444","2","right","out","Female","Right-handed","1","2","no","right","s","493.578290591","1350.41619964","16","green","0"
"97","85","18","797.742792474","1","1","7","445","0","right","in","Female","Right-handed","1","2","no","right","s","793.045433189","1055.1580372","16","red","2"
"97","85","18","797.522001688","1","1","7","446","0","left","in","Female","Right-handed","1","2","no","left","d","577.687017233","999.693723251","16","red","1"
"97","83","18","806.467673829","1","0","7","447","2","right","in","Female","Right-handed","1","2","no","right","s","907.278322181","1439.20214105","16","red","3"
"97","83","18","811.635741963","1","1","7","448","0","right","out","Female","Right-handed","1","2","no","right","d","1074.79310284","982.596104353","16","green","0"
"97","81","18","806.584122823","1","0","7","449","1","right","out","Female","Right-handed","1","2","no","right","s","411.363989872","767.365009725","16","green","0"
"97","82","18","802.223797258","1","1","7","450","1","right","in","Female","Right-handed","1","2","no","right","s","533.899704787","686.839239984","16","red","0"
"97","82","18","799.371906077","1","1","7","451","1","left","in","Female","Right-handed","1","2","no","left","s","519.525543641","822.548062199","16","red","1"
"97","82","18","795.207644002","1","1","7","452","3","right","in","Female","Right-handed","1","2","no","right","d","448.214053774","759.089123327","16","green","3"
"97","83","18","800.596735213","1","1","7","453","3","left","out","Female","Right-handed","1","2","no","left","d","932.848742582","1174.91930169","16","red","1"
"97","83","18","803.741773128","1","1","7","454","1","right","in","Female","Right-handed","1","2","no","right","s","806.255742689","1103.15144343","16","green","1"
"98","84","18","800.985624235","1","1","7","455","0","right","out","Female","Right-handed","1","2","no","right","s","724.941029699","606.927627285","16","green","3"
"98","84","18","809.004089947","1","1","7","456","3","left","in","Female","Right-handed","1","2","no","left","d","597.381093264","1822.47365779","16","red","3"
"98","84","18","803.39105287","1","1","7","457","1","left","in","Female","Right-handed","1","2","no","left","d","483.092721677","551.159602257","16","green","3"
"98","84","18","804.79327802","1","1","7","458","3","left","out","Female","Right-handed","1","2","no","left","s","620.621886119","1134.79608543","16","green","0"
"98","85","18","809.614785571","1","1","7","459","1","right","in","Female","Right-handed","1","2","no","right","d","1123.29290801","1007.01646358","16","green","1"
"98","85","18","805.471321432","1","1","7","460","3","left","in","Female","Right-handed","1","2","no","left","s","524.575101144","638.873414698","16","green","0"
"98","85","18","805.676554343","1","1","7","461","2","left","in","Female","Right-handed","1","2","no","left","s","627.478957504","1006.44977141","16","red","1"
"98","85","18","804.120720583","1","1","7","462","2","left","out","Female","Right-handed","1","2","no","left","s","570.999600718","862.988459299","16","green","3"
"98","86","18","807.319276121","1","1","7","463","1","left","out","Female","Right-handed","1","2","no","left","d","924.563876341","1054.71000723","16","red","2"
"98","86","18","821.662623699","1","1","7","464","2","left","out","Female","Right-handed","1","2","no","left","d","900.141913572","2407.01165295","16","green","1"
"98","86","18","827.412338303","1","1","7","465","2","right","in","Female","Right-handed","1","2","no","right","d","1070.68546661","1262.60553319","16","red","1"
"98","86","18","825.688438551","1","1","7","466","1","right","out","Female","Right-handed","1","2","no","right","d","517.297260026","927.211646855","16","green","0"
"98","87","18","824.055369519","1","1","7","467","0","left","out","Female","Right-handed","1","2","no","left","s","801.930986709","646.945330401","16","red","0"
"98","85","18","822.957563858","1","0","7","468","2","left","in","Female","Right-handed","1","2","no","left","d","591.41366764","918.373558214","16","green","3"
"98","84","18","826.381184365","1","0","7","469","3","right","out","Female","Right-handed","1","2","no","right","s","1133.08061493","951.057937619","16","green","1"
"100","100","18","691.642653608","1","1","8","470","0","right","out","Female","Right-handed","1","2","no","right","s","672.086642646","711.19866457","16","green","1"
"100","50","18","575.231591725","1","0","8","471","2","left","out","Female","Right-handed","1","2","no","left","d","510.846526485","406.7945332","16","green","3"
"100","66","18","572.954426768","1","1","8","472","2","right","out","Female","Right-handed","1","2","no","right","s","641.456081357","495.344112351","16","red","1"
"100","75","18","585.465564712","1","1","8","473","1","right","out","Female","Right-handed","1","2","no","right","d","687.114728705","558.883228382","16","green","2"
"100","80","18","574.300815081","1","1","8","474","0","right","out","Female","Right-handed","1","2","no","right","s","507.696205535","551.58742758","16","green","1"
"100","83","18","576.622959424","1","1","8","475","3","left","in","Female","Right-handed","1","2","no","left","s","633.184043462","543.28331882","16","red","3"
"100","85","18","594.308086004","1","1","8","476","3","left","in","Female","Right-handed","1","2","no","left","d","817.931782066","582.905908896","16","green","2"
"100","87","18","603.574357901","1","1","8","477","0","right","in","Female","Right-handed","1","2","no","right","s","713.374993386","623.501528977","16","red","0"
"100","88","18","602.010860976","1","1","8","478","2","left","out","Female","Right-handed","1","2","no","left","s","612.048382105","566.957389046","16","red","1"
"100","90","18","604.884568943","1","1","8","479","1","left","out","Female","Right-handed","1","2","no","left","s","694.815263807","566.680617493","16","red","3"
"100","90","18","599.106389114","1","1","8","480","0","right","out","Female","Right-handed","1","2","no","right","d","419.260157244","663.389024389","16","red","3"
"100","83","18","599.634044719","1","0","8","481","1","left","out","Female","Right-handed","1","2","no","left","s","467.945973423","742.93053932","16","green","3"
"100","84","18","617.938109894","1","1","8","482","3","left","in","Female","Right-handed","1","2","no","left","d","796.65693316","878.516850833","16","green","0"
"100","85","18","625.843561075","1","1","8","483","1","right","out","Female","Right-handed","1","2","no","right","d","714.13892136","743.089931512","16","red","1"
"100","86","18","625.901402405","1","1","8","484","1","right","out","Female","Right-handed","1","2","no","right","s","534.665877724","718.756484328","16","red","3"
"100","87","18","638.861919297","1","1","8","485","0","right","out","Female","Right-handed","1","2","no","right","d","596.303512241","1070.2358331","16","red","0"
"100","88","18","660.099685677","1","1","8","486","1","left","in","Female","Right-handed","1","2","no","left","d","792.875136903","1206.93275862","16","red","0"
"100","88","18","677.70707934","1","1","8","487","3","left","out","Female","Right-handed","1","2","no","left","d","539.586189645","1414.47935358","16","green","0"
"94","89","18","670.642044345","0","1","8","488","0","right","in","Female","Right-handed","1","2","no","left","s","540.983837889","545.958990987","16","red","1"
"95","90","18","674.669782351","1","1","8","489","2","left","out","Female","Right-handed","1","2","no","left","s","631.619306019","870.7743029","16","red","1"
"95","85","18","685.786139721","1","0","8","490","3","left","out","Female","Right-handed","1","2","no","left","s","601.007345832","1215.21922841","16","red","1"
"95","86","18","685.423806989","1","1","8","491","0","left","in","Female","Right-handed","1","2","no","left","d","508.768334512","846.861304739","16","green","3"
"95","86","18","679.55229353","1","1","8","492","1","left","out","Female","Right-handed","1","2","no","left","d","470.445255837","630.312739028","16","green","3"
"95","87","18","679.992397869","1","1","8","493","1","left","in","Female","Right-handed","1","2","no","left","d","581.104809186","799.124786127","16","red","1"
"96","88","18","678.196584774","1","1","8","494","3","right","out","Female","Right-handed","1","2","no","right","d","431.596856413","838.597284561","16","red","3"
"96","88","18","675.279247795","1","1","8","495","0","left","out","Female","Right-handed","1","2","no","left","s","550.40561625","654.286030413","16","green","0"
"96","88","18","671.245441706","1","1","8","496","1","right","in","Female","Right-handed","1","2","no","right","d","405.874420119","726.858546645","16","red","0"
"96","85","18","668.082349044","1","0","8","497","3","right","in","Female","Right-handed","1","2","no","right","s","454.732456837","710.625237525","16","green","0"
"96","82","18","667.204666466","1","0","8","498","2","right","out","Female","Right-handed","1","2","no","right","d","550.117940602","735.141167924","16","red","0"
"96","83","18","672.803699053","1","1","8","499","3","left","in","Female","Right-handed","1","2","no","left","s","1135.72806473","534.623223474","16","green","1"
"96","80","18","675.403437241","1","0","8","500","2","right","in","Female","Right-handed","1","2","no","right","d","548.322613647","958.468552113","16","green","3"
"96","81","18","684.590826891","1","1","8","501","3","left","in","Female","Right-handed","1","2","no","left","s","883.927526262","1054.8722858","16","green","1"
"96","81","18","689.815493891","1","1","8","502","1","right","out","Female","Right-handed","1","2","no","right","d","619.426284318","1094.58339146","16","red","0"
"97","79","18","697.661402046","1","0","8","503","0","right","in","Female","Right-handed","1","2","no","right","d","874.115766197","1039.0369761","16","green","1"
"97","80","18","707.126608669","1","1","8","504","0","left","in","Female","Right-handed","1","2","no","left","s","707.387363116","1350.49990459","16","green","0"
"97","80","18","722.488846912","1","1","8","505","1","right","in","Female","Right-handed","1","2","no","right","s","665.19910394","1855.13526689","16","green","1"
"97","78","18","721.685646334","1","0","8","506","1","right","in","Female","Right-handed","1","2","no","right","s","618.78967767","766.751173392","16","green","0"
"97","78","18","719.346183116","1","1","8","507","2","left","out","Female","Right-handed","1","2","no","left","s","763.304838371","502.267249715","16","green","2"
"97","79","18","720.115470734","1","1","8","508","3","left","out","Female","Right-handed","1","2","no","left","d","739.74269546","758.954104989","16","red","1"
"97","80","18","721.912309439","1","1","8","509","2","right","in","Female","Right-handed","1","2","no","right","d","865.517567615","718.460470256","16","green","1"
"97","80","18","720.367016618","1","1","8","510","3","left","out","Female","Right-handed","1","2","no","left","d","622.07245129","695.038156309","16","red","3"
"97","78","18","734.800789157","1","0","8","511","0","left","in","Female","Right-handed","1","2","no","left","s","990.779305954","1662.39162052","16","red","1"
"97","79","18","740.496569592","1","1","8","512","0","left","out","Female","Right-handed","1","2","no","left","s","873.24408012","1086.19461562","16","red","2"
"97","79","18","738.355503047","1","1","8","513","0","left","in","Female","Right-handed","1","2","no","left","d","621.855652249","670.723630935","16","red","2"
"97","80","18","740.222532597","1","1","8","514","2","right","out","Female","Right-handed","1","2","no","right","d","830.398047527","814.345618079","16","green","1"
"97","80","18","741.761312317","1","1","8","515","0","left","in","Female","Right-handed","1","2","no","left","d","895.036232057","726.976567423","16","green","1"
"97","80","18","746.733041755","1","1","8","516","1","right","out","Female","Right-handed","1","2","no","right","s","816.506552879","1134.35863885","16","green","1"
"97","81","18","748.972339281","1","1","8","517","1","left","out","Female","Right-handed","1","2","no","left","s","694.300847152","1014.13779888","16","red","2"
"97","81","18","745.436785693","1","1","8","518","1","right","in","Female","Right-handed","1","2","no","right","d","576.745095963","574.715330995","16","red","1"
"98","82","18","750.963556274","1","1","8","519","3","right","out","Female","Right-handed","1","2","no","right","s","725.353461008","1318.19716846","16","green","1"
"98","80","18","752.275699759","1","0","8","520","2","left","out","Female","Right-handed","1","2","no","left","s","620.901864761","1014.86388324","16","green","3"
"98","78","18","751.654002376","1","0","8","521","0","right","out","Female","Right-handed","1","2","no","right","d","721.44466413","718.45020758","16","green","3"
"98","79","18","751.199739246","1","1","8","522","2","right","in","Female","Right-handed","1","2","no","right","d","528.127270016","927.028842931","16","red","0"
"98","79","18","750.830059284","1","1","8","523","2","right","in","Female","Right-handed","1","2","no","right","s","847.733311526","614.74073112","16","red","2"
"98","80","18","751.734084724","1","1","8","524","3","right","in","Female","Right-handed","1","2","no","right","s","803.033903714","798.069013292","16","red","2"
"98","80","18","755.324035417","1","1","8","525","2","left","in","Female","Right-handed","1","2","no","left","d","930.812242731","974.730404302","16","green","0"
"96","80","18","756.219515272","0","1","8","526","3","left","in","Female","Right-handed","1","2","no","right","d","555.385579977","1057.34719436","16","red","3"
"96","81","18","758.137807506","1","1","8","527","2","left","in","Female","Right-handed","1","2","no","left","d","991.99992303","742.96100664","16","red","0"
"96","81","18","757.560593345","1","1","8","528","0","right","out","Female","Right-handed","1","2","no","right","s","593.532268902","854.632075033","16","green","3"
"96","81","18","763.853787328","1","1","8","529","3","right","in","Female","Right-handed","1","2","no","right","s","976.033122788","1294.27134196","16","green","1"
"96","80","18","764.720343777","1","0","8","530","1","right","in","Female","Right-handed","1","2","no","right","d","786.66782122","846.759640102","16","green","1"
"96","80","18","765.108185628","1","1","8","531","2","left","out","Female","Right-handed","1","2","no","left","d","475.215155408","1102.31792168","16","green","3"
"96","80","18","764.575228918","1","1","8","532","2","right","in","Female","Right-handed","1","2","no","right","s","824.985768556","638.078057275","16","red","1"
"96","79","18","767.839360351","1","0","8","533","3","left","in","Female","Right-handed","1","2","no","left","d","1140.56403028","806.395250947","16","red","0"
dis_reply=No
dis_loc=3
tar_loc=1
