"acc_1","acc_2","age","avg_rt","correct_1","correct_2","count_block_loop","count_trial_sequence","cue_position","detection","dis_shape","gender","hand","high_loc","low_loc","practice","response_keyboard_response_1","response_keyboard_response_2","response_time_keyboard_response_1","response_time_keyboard_response_2","subject_nr","tar_color","tar_position"
"100","100","18","2626.24321007","1","1","0","0","3","left","out","Female","Left-handed","3","0","yes","left","d","2519.6237248","2732.86269535","21","green","2"
"100","50","18","2024.04942597","1","0","0","1","1","right","out","Female","Left-handed","3","0","yes","right","d","1417.87188542","1425.83939831","21","green","2"
"100","66","18","2047.96158609","1","1","0","2","0","right","in","Female","Left-handed","3","0","yes","right","d","2214.38039382","1977.19141883","21","green","3"
"100","75","18","1966.43825907","1","1","0","3","3","left","out","Female","Left-handed","3","0","yes","left","d","1993.81245315","1449.92410289","21","red","1"
"100","80","18","1894.70548297","1","1","0","4","1","right","out","Female","Left-handed","3","0","yes","right","d","2086.22091399","1129.32784313","21","green","0"
"100","83","18","1907.04921077","1","1","0","5","0","left","in","Female","Left-handed","3","0","yes","left","s","1743.72273324","2193.8129663","21","green","1"
"100","85","18","1850.37197625","1","1","0","6","1","left","out","Female","Left-handed","3","0","yes","left","d","1763.30717051","1257.30996778","21","red","2"
"100","87","18","1772.48518058","1","1","0","7","0","right","out","Female","Left-handed","3","0","yes","right","s","788.770947875","1665.78427389","21","red","0"
"100","88","18","1816.50994591","1","1","0","8","1","left","in","Female","Left-handed","3","0","yes","left","s","1960.0870676","2377.32906954","21","green","3"
"100","80","18","1863.39570377","1","0","0","9","1","right","out","Female","Left-handed","3","0","yes","right","None","1570.60483887","3000.13021013","21","green","3"
"100","81","18","1866.0921774","1","1","0","10","0","left","in","Female","Left-handed","3","0","yes","left","d","1920.07054438","1866.043283","21","green","3"
"100","83","18","1820.08727232","1","1","0","11","0","left","in","Female","Left-handed","3","0","yes","left","d","1642.56998875","985.4966442","21","green","0"
"100","84","18","1771.81644437","1","1","0","12","2","right","in","Female","Left-handed","3","0","yes","right","d","1232.11815639","1153.01486159","21","green","0"
"100","85","18","1743.37097805","1","1","0","13","1","left","in","Female","Left-handed","3","0","yes","left","d","1089.59258662","1657.56724503","21","green","1"
"100","80","18","1713.42699483","1","0","0","14","3","right","out","Female","Left-handed","3","0","yes","right","s","1291.20308707","1297.21937231","21","green","1"
"100","81","18","1667.84837303","1","1","0","15","3","right","out","Female","Left-handed","3","0","yes","right","s","1342.61331729","625.724774913","21","red","0"
"100","76","18","1663.9850178","1","0","0","16","1","left","out","Female","Left-handed","3","0","yes","left","d","715.165342808","2489.17732535","21","red","1"
"100","77","18","1622.60194119","1","1","0","17","1","right","in","Female","Left-handed","3","0","yes","right","s","1060.36233695","777.816940597","21","red","0"
"100","78","18","1619.76317995","1","1","0","18","2","left","in","Female","Left-handed","3","0","yes","left","d","1888.2572593","1249.07369605","21","green","3"
"100","80","18","1605.41065581","1","1","0","19","2","right","out","Female","Left-handed","3","0","yes","right","s","1335.58004604","1329.84534821","21","red","3"
"100","76","18","1593.64233391","1","0","0","20","2","right","in","Female","Left-handed","3","0","yes","right","s","1235.3467903","1481.20500174","21","green","1"
"100","72","18","1569.24352201","1","0","0","21","2","right","in","Female","Left-handed","3","0","yes","right","d","735.871319037","1377.86562507","21","red","2"
"100","0","18","1525.49665062","1","0","1","22","0","left","out","Female","Left-handed","3","0","no","left","d","1865.58594398","1185.40735725","21","green","1"
"100","50","18","1675.54257695","1","1","1","23","0","right","in","Female","Left-handed","3","0","no","right","d","1537.14051501","2114.03649155","21","green","2"
"100","66","18","1490.53950718","1","1","1","24","1","right","in","Female","Left-handed","3","0","no","right","s","967.503913522","1273.56282174","21","green","1"
"100","75","18","1483.16845663","1","1","1","25","0","left","out","Female","Left-handed","3","0","no","left","s","1872.12723903","1049.98337095","21","green","3"
"100","60","18","1446.43857658","1","0","1","26","2","left","out","Female","Left-handed","3","0","no","left","d","909.519675362","1689.5184374","21","green","2"
"100","66","18","1484.71837677","1","1","1","27","2","left","in","Female","Left-handed","3","0","no","left","s","1567.18313477","1785.05162062","21","green","3"
"100","71","18","1480.90167445","1","1","1","28","2","left","in","Female","Left-handed","3","0","no","left","d","1706.51150066","1209.4914204","21","red","1"
"100","75","18","1434.18391122","1","1","1","29","3","left","in","Female","Left-handed","3","0","no","left","d","821.182044983","1393.13709235","21","red","3"
"100","77","18","1376.50299781","1","1","1","30","1","right","in","Female","Left-handed","3","0","no","right","d","892.54296854","937.568412432","21","red","1"
"100","80","18","1414.47808349","1","1","1","31","3","left","out","Female","Left-handed","3","0","no","left","d","1287.34489039","2225.16281878","21","red","1"
"100","81","18","1450.90267603","1","1","1","32","1","right","out","Female","Left-handed","3","0","no","right","s","1532.64313412","2097.65406889","21","green","3"
"100","83","18","1440.83653433","1","1","1","33","2","left","out","Female","Left-handed","3","0","no","left","s","1090.99859944","1569.21935179","21","red","3"
"100","84","18","1429.90966136","1","1","1","34","2","left","in","Female","Left-handed","3","0","no","left","d","1163.71999434","1433.85437697","21","red","3"
"100","78","18","1410.2131176","1","0","1","35","0","right","in","Female","Left-handed","3","0","no","right","s","835.154618115","1473.16147948","21","red","3"
"100","80","18","1399.82916602","1","1","1","36","3","left","out","Female","Left-handed","3","0","no","left","d","1467.4934903","1041.41419746","21","red","0"
"100","81","18","1411.78792939","1","1","1","37","3","left","in","Female","Left-handed","3","0","no","left","d","1685.17018881","1497.16857112","21","green","2"
"100","82","18","1392.02186391","1","1","1","38","3","right","out","Female","Left-handed","3","0","no","right","s","1061.76353904","1089.76609322","21","green","2"
"100","77","18","1426.19866103","1","0","1","39","2","right","in","Female","Left-handed","3","0","no","right","None","1014.31958633","3000.08883794","21","red","3"
"100","78","18","1430.50901982","1","1","1","40","1","left","in","Female","Left-handed","3","0","no","left","s","2110.68694823","905.504007809","21","red","0"
"100","80","18","1395.49104934","1","1","1","41","0","left","in","Female","Left-handed","3","0","no","left","s","939.158194724","521.141025591","21","green","3"
"100","80","18","1369.02946431","1","1","1","42","2","right","in","Female","Left-handed","3","0","no","right","d","669.874347223","1009.72118035","21","green","2"
"100","81","18","1353.54831494","1","1","1","43","2","right","out","Female","Left-handed","3","0","no","right","s","623.531407742","1433.35694862","21","red","2"
"100","82","18","1335.0426678","1","1","1","44","1","left","out","Female","Left-handed","3","0","no","left","d","974.905685853","880.931175609","21","green","2"
"100","83","18","1325.91776359","1","1","1","45","1","right","in","Female","Left-handed","3","0","no","right","s","1126.606259","1105.48367451","21","red","3"
"100","84","18","1327.60625355","1","1","1","46","0","left","out","Female","Left-handed","3","0","no","left","s","1183.24093011","1553.01909503","21","green","2"
"100","84","18","1312.89645722","1","1","1","47","0","right","out","Female","Left-handed","3","0","no","right","s","880.612064579","1009.69103317","21","red","3"
"100","85","18","1308.29743082","1","1","1","48","0","right","out","Female","Left-handed","3","0","no","right","s","560.218496445","1817.22699249","21","red","3"
"100","85","18","1289.72655713","1","1","1","49","2","left","out","Female","Left-handed","3","0","no","left","d","911.722984689","664.902950157","21","green","2"
"100","86","18","1274.38607401","1","1","1","50","3","right","out","Female","Left-handed","3","0","no","right","s","744.276607365","945.428485935","21","green","2"
"100","83","18","1260.62377814","1","0","1","51","1","right","out","Female","Left-handed","3","0","no","right","s","674.049730645","1048.98466567","21","green","3"
"100","83","18","1259.69821045","1","1","1","52","0","left","out","Female","Left-handed","3","0","no","left","s","1486.46696623","977.395393322","21","red","2"
"100","84","18","1253.2101828","1","1","1","53","0","left","out","Female","Left-handed","3","0","no","left","d","1191.07951573","913.083135318","21","red","2"
"100","84","18","1254.3723192","1","1","1","54","3","right","in","Female","Left-handed","3","0","no","right","d","1573.63270545","1009.48866226","21","red","1"
"100","82","18","1249.05477389","1","0","1","55","2","left","in","Female","Left-handed","3","0","no","left","d","1162.06061699","985.090940227","21","green","1"
"100","82","18","1249.01354831","1","1","1","56","0","right","out","Female","Left-handed","3","0","no","right","s","997.609072631","1497.61468514","21","red","0"
"100","80","18","1250.308278","1","0","1","57","0","right","out","Female","Left-handed","3","0","no","right","s","1230.10118225","1361.14645208","21","green","1"
"100","81","18","1245.71085607","1","1","1","58","0","right","in","Female","Left-handed","3","0","no","right","s","1430.77679963","729.630533569","21","red","1"
"100","78","18","1239.69642725","1","0","1","59","0","right","out","Female","Left-handed","3","0","no","right","s","921.102283264","1113.2228386","21","red","0"
"100","79","18","1233.26200558","1","1","1","60","2","right","out","Female","Left-handed","3","0","no","right","s","824.76474782","1152.74321633","21","red","3"
"100","77","18","1231.19117092","1","0","1","61","1","right","in","Female","Left-handed","3","0","no","right","s","803.460318144","1497.39691992","21","green","3"
"100","75","18","1230.53517951","1","0","1","62","1","left","in","Female","Left-handed","3","0","no","left","s","1095.8336928","1312.75735343","21","green","0"
"100","76","18","1227.67460211","1","1","1","63","1","left","out","Female","Left-handed","3","0","no","left","d","715.442440225","1505.33941708","21","green","1"
"100","76","18","1224.27208618","1","1","1","64","3","right","out","Female","Left-handed","3","0","no","right","s","625.923297255","1536.80953754","21","green","3"
"100","75","18","1227.20885404","1","0","1","65","1","left","in","Female","Left-handed","3","0","no","left","d","1402.597211","1304.38253298","21","red","2"
"100","75","18","1231.65765298","1","1","1","66","3","right","in","Female","Left-handed","3","0","no","right","d","1293.9400655","1560.86954709","21","green","1"
"100","76","18","1237.92366591","1","1","1","67","1","right","in","Female","Left-handed","3","0","no","right","d","1590.34514344","1449.4433517","21","red","2"
"100","76","18","1237.47800367","1","1","1","68","1","left","in","Female","Left-handed","3","0","no","left","s","1009.03613395","1424.9189474","21","red","2"
"100","77","18","1233.86509218","1","1","1","69","3","right","in","Female","Left-handed","3","0","no","right","s","623.622169973","1504.4943341","21","green","3"
"100","77","18","1252.26620375","1","1","1","70","2","left","in","Female","Left-handed","3","0","no","left","d","2094.13037754","2176.90874098","21","green","0"
"100","78","18","1259.89121361","1","1","1","71","3","right","out","Female","Left-handed","3","0","no","right","s","1154.59277745","2112.44061568","21","green","0"
"100","78","18","1259.0281208","1","1","1","72","0","left","in","Female","Left-handed","3","0","no","left","d","814.882889459","1616.86407185","21","green","3"
"100","78","18","1248.75204089","1","1","1","73","1","right","out","Female","Left-handed","3","0","no","right","d","616.682226671","832.661703502","21","green","3"
"100","77","18","1247.77880478","1","0","1","74","3","right","in","Female","Left-handed","3","0","no","right","s","529.189037847","1865.15201712","21","red","3"
"100","75","18","1248.94256238","1","0","1","75","2","right","in","Female","Left-handed","3","0","no","right","d","1220.65100574","1400.59242402","21","green","0"
"100","76","18","1244.01733876","1","1","1","76","3","left","out","Female","Left-handed","3","0","no","left","d","1131.06675771","825.043769528","21","red","1"
"100","76","18","1235.8255313","1","1","1","77","3","left","in","Female","Left-handed","3","0","no","left","s","849.745849711","720.806391972","21","green","2"
"100","75","18","1240.43064567","1","0","1","78","1","left","out","Female","Left-handed","3","0","no","left","d","1300.32805897","1696.30604127","21","red","3"
"100","75","18","1230.76656552","1","1","1","79","1","left","out","Female","Left-handed","3","0","no","left","d","630.876734303","728.95126004","21","red","1"
"100","74","18","1225.96471673","1","0","1","80","3","left","out","Female","Left-handed","3","0","no","left","d","622.483312418","1272.43166133","21","green","3"
"100","75","18","1234.90628078","1","1","1","81","2","right","out","Female","Left-handed","3","0","no","right","s","1675.98428114","1848.93283819","21","red","1"
"100","75","18","1231.40620152","1","1","1","82","2","right","in","Female","Left-handed","3","0","no","right","d","1250.44795812","792.354933568","21","green","1"
"100","75","18","1223.1350076","1","1","1","83","0","left","in","Female","Left-handed","3","0","no","left","d","620.175450131","817.008906564","21","red","1"
"100","76","18","1221.68222792","1","1","1","84","2","left","in","Female","Left-handed","3","0","no","left","d","910.692528665","1352.52724711","21","red","3"
"100","76","18","1213.2136817","1","1","1","85","3","right","out","Female","Left-handed","3","0","no","right","d","558.135134379","801.255405244","21","red","3"
"100","100","18","1160.7904268","1","1","2","86","1","right","out","Female","Left-handed","3","0","no","right","s","1264.42566268","1057.15519091","21","red","3"
"100","100","18","1027.57536232","1","1","2","87","2","right","in","Female","Left-handed","3","0","no","right","s","651.915933002","1136.80466268","21","red","3"
"100","66","18","1023.20322049","1","0","2","88","1","left","in","Female","Left-handed","3","0","no","left","d","755.532086372","1273.38578727","21","green","3"
"100","75","18","1065.62426135","1","1","2","89","1","right","in","Female","Left-handed","3","0","no","right","d","1680.80526305","704.969504852","21","green","2"
"100","60","18","1132.97382295","1","0","2","90","2","right","out","Female","Left-handed","3","0","no","right","d","1227.41680102","1577.32733768","21","red","1"
"100","66","18","1096.14382382","1","1","2","91","2","left","out","Female","Left-handed","3","0","no","left","s","607.043469976","1216.94418636","21","red","2"
"100","71","18","1080.1986268","1","1","2","92","1","right","in","Female","Left-handed","3","0","no","right","s","671.461563798","1297.59332554","21","green","1"
"100","75","18","1078.94622482","1","1","2","93","3","left","in","Female","Left-handed","3","0","no","left","s","883.264374348","1257.09444756","21","green","3"
"100","77","18","1056.63246174","1","1","2","94","3","left","out","Female","Left-handed","3","0","no","left","d","482.601072406","1273.64364182","21","green","3"
"100","80","18","1046.6867295","1","1","2","95","0","left","out","Female","Left-handed","3","0","no","left","d","849.188127016","1065.1621517","21","green","1"
"100","72","18","1049.19049156","1","0","2","96","2","left","out","Female","Left-handed","3","0","no","left","d","795.647068975","1352.80915525","21","green","3"
"100","75","18","1067.11059982","1","1","2","97","2","right","in","Female","Left-handed","3","0","no","right","s","1351.20750652","1177.25607489","21","red","0"
"100","76","18","1081.73702779","1","1","2","98","0","right","in","Female","Left-handed","3","0","no","right","s","1465.64360847","1048.86471841","21","green","3"
"100","78","18","1059.32329035","1","1","2","99","2","left","in","Female","Left-handed","3","0","no","left","d","502.403274881","1033.48613246","21","red","2"
"100","80","18","1064.43580796","1","1","2","100","2","left","out","Female","Left-handed","3","0","no","left","s","1231.07615465","1040.94595414","21","green","1"
"100","81","18","1060.79171366","1","1","2","101","0","right","out","Female","Left-handed","3","0","no","right","s","1067.73460353","944.525995041","21","red","3"
"100","82","18","1043.13305794","1","1","2","102","2","right","out","Female","Left-handed","3","0","no","right","d","624.206511984","896.982620798","21","green","2"
"100","83","18","1052.33545621","1","1","2","103","0","left","out","Female","Left-handed","3","0","no","left","d","1256.78175082","1160.77070285","21","green","1"
"100","84","18","1055.57070885","1","1","2","104","3","right","in","Female","Left-handed","3","0","no","right","s","1178.33271382","1049.27779882","21","red","0"
"100","85","18","1062.08194451","1","1","2","105","2","left","in","Female","Left-handed","3","0","no","left","s","954.774430193","1416.81641366","21","green","3"
"100","85","18","1060.21657216","1","1","2","106","3","right","out","Female","Left-handed","3","0","no","right","d","868.418174639","1177.40007575","21","green","1"
"100","86","18","1061.64084384","1","1","2","107","0","left","in","Female","Left-handed","3","0","no","left","s","1486.12219804","696.978900505","21","red","3"
"100","86","18","1060.69585922","1","1","2","108","1","right","out","Female","Left-handed","3","0","no","right","d","1150.44465476","929.367740024","21","red","3"
"100","87","18","1055.27498818","1","1","2","109","1","right","in","Female","Left-handed","3","0","no","right","s","636.15441382","1225.03549509","21","red","1"
"100","88","18","1058.2102714","1","1","2","110","3","right","out","Female","Left-handed","3","0","no","right","d","496.663445625","1760.65069145","21","red","3"
"100","88","18","1053.8456074","1","1","2","111","2","left","in","Female","Left-handed","3","0","no","left","d","872.232754133","1017.22526064","21","red","3"
"100","88","18","1043.58085623","1","1","2","112","0","right","in","Female","Left-handed","3","0","no","right","d","728.691801927","824.702849899","21","red","1"
"100","89","18","1073.3716094","1","1","2","113","2","right","out","Female","Left-handed","3","0","no","right","s","1491.32675462","2264.11713524","21","green","1"
"100","89","18","1064.66207469","1","1","2","114","0","right","in","Female","Left-handed","3","0","no","right","s","752.745076468","888.845129164","21","green","1"
"100","90","18","1064.08879476","1","1","2","115","2","right","out","Female","Left-handed","3","0","no","right","d","710.427105259","1384.50024807","21","green","3"
"100","87","18","1086.2717007","1","0","2","116","1","left","out","Female","Left-handed","3","0","no","left","d","1702.83963917","1800.67811896","21","red","2"
"100","87","18","1077.26218752","1","1","2","117","0","left","in","Female","Left-handed","3","0","no","left","d","747.368296143","848.566261404","21","green","2"
"100","87","18","1079.69299663","1","1","2","118","1","left","in","Female","Left-handed","3","0","no","left","d","1274.01086004","1040.94691628","21","green","2"
"100","88","18","1087.93824637","1","1","2","119","2","left","in","Female","Left-handed","3","0","no","left","s","1391.57841937","1328.48455615","21","red","0"
"100","85","18","1092.16944141","1","0","2","120","1","right","out","Female","Left-handed","3","0","no","right","d","1175.06848059","1296.99166495","21","red","2"
"100","86","18","1087.10974779","1","1","2","121","1","left","out","Female","Left-handed","3","0","no","left","d","971.486547467","848.554394961","21","green","3"
"100","86","18","1076.74705228","1","1","2","122","1","right","out","Female","Left-handed","3","0","no","right","d","638.101472177","769.278555708","21","green","1"
"100","84","18","1067.67040997","1","0","2","123","0","right","in","Female","Left-handed","3","0","no","right","s","478.769815753","984.899473613","21","red","3"
"100","84","18","1062.23953708","1","1","2","124","1","right","in","Female","Left-handed","3","0","no","right","s","775.397790341","936.334944072","21","green","0"
"100","85","18","1064.10651958","1","1","2","125","0","left","in","Female","Left-handed","3","0","no","left","d","1337.04731534","936.790358806","21","red","2"
"100","82","18","1076.79721991","1","0","2","126","0","left","out","Female","Left-handed","3","0","no","left","s","992.483411839","2176.36705401","21","green","0"
"100","80","18","1071.85037986","1","0","2","127","1","left","out","Female","Left-handed","3","0","no","left","d","729.141123083","1008.91875241","21","red","0"
"100","81","18","1064.3092485","1","1","2","128","2","left","out","Female","Left-handed","3","0","no","left","d","494.607665016","1000.55579841","21","red","2"
"100","81","18","1060.49923835","1","1","2","129","3","right","out","Female","Left-handed","3","0","no","right","s","792.087778304","1001.24982481","21","green","2"
"100","82","18","1057.64744506","1","1","2","130","2","right","in","Female","Left-handed","3","0","no","right","s","511.648835469","1352.68824584","21","green","3"
"100","82","18","1052.76098252","1","1","2","131","1","right","out","Female","Left-handed","3","0","no","right","s","617.383308792","1048.35702719","21","green","3"
"100","80","18","1062.81425468","1","0","2","132","3","left","in","Female","Left-handed","3","0","no","left","s","1345.79063686","1704.73891105","21","green","0"
"100","81","18","1060.80468924","1","1","2","133","3","left","in","Female","Left-handed","3","0","no","left","s","988.431182825","944.279044797","21","red","1"
"100","81","18","1056.31756618","1","1","2","134","0","right","in","Female","Left-handed","3","0","no","right","s","592.893862387","1088.97745601","21","green","0"
"100","82","18","1054.99944356","1","1","2","135","0","left","out","Female","Left-handed","3","0","no","left","d","1100.37469087","880.448179418","21","green","3"
"100","80","18","1055.57110288","1","0","2","136","1","right","in","Female","Left-handed","3","0","no","right","s","544.109964059","1624.1981734","21","red","1"
"100","80","18","1051.60388941","1","1","2","137","3","right","in","Female","Left-handed","3","0","no","right","d","545.788905008","1152.76310063","21","red","3"
"100","81","18","1041.9462055","1","1","2","138","3","left","out","Female","Left-handed","3","0","no","left","s","607.295551657","472.197732099","21","red","3"
"100","81","18","1045.92638467","1","1","2","139","3","left","in","Female","Left-handed","3","0","no","left","s","664.88787657","1848.86388455","21","red","2"
"100","81","18","1040.73440495","1","1","2","140","3","left","out","Female","Left-handed","3","0","no","left","s","528.421247083","992.313753814","21","red","3"
"100","82","18","1040.85376014","1","1","2","141","3","right","out","Female","Left-handed","3","0","no","right","d","1213.96891698","880.867674117","21","green","1"
"100","82","18","1045.74980314","1","1","2","142","3","left","out","Female","Left-handed","3","0","no","left","d","831.410916548","1808.44550594","21","red","2"
"100","82","18","1048.73778178","1","1","2","143","2","right","out","Female","Left-handed","3","0","no","right","s","1062.14005799","1375.96507033","21","red","1"
"100","83","18","1050.9717291","1","1","2","144","1","right","in","Female","Left-handed","3","0","no","right","d","1384.50634165","976.575005363","21","green","3"
"100","81","18","1052.6663838","1","0","2","145","0","right","out","Female","Left-handed","3","0","no","right","s","745.104051042","1560.19797071","21","red","2"
"100","81","18","1053.82148616","1","1","2","146","0","left","in","Female","Left-handed","3","0","no","left","d","917.581799062","1328.67345705","21","green","2"
"100","82","18","1057.68095595","1","1","2","147","3","left","in","Female","Left-handed","3","0","no","left","d","1282.06496587","1304.1522599","21","green","1"
"100","82","18","1055.35555946","1","1","2","148","0","left","in","Female","Left-handed","3","0","no","left","d","909.708576259","912.653377749","21","red","3"
"100","81","18","1051.88598277","1","0","2","149","3","left","out","Female","Left-handed","3","0","no","left","s","842.352736676","824.252566599","21","red","2"
"100","100","18","1120.17512942","1","1","3","150","3","right","in","Female","Left-handed","3","0","no","right","d","1239.15527622","1001.19498261","21","red","1"
"100","100","18","1263.46095316","1","1","3","151","3","right","in","Female","Left-handed","3","0","no","right","s","1100.8211256","1712.6724282","21","red","1"
"100","100","18","1196.55977997","1","1","3","152","1","right","in","Female","Left-handed","3","0","no","right","s","900.279566918","1225.23530028","21","green","2"
"100","100","18","1194.25807808","1","1","3","153","1","right","in","Female","Left-handed","3","0","no","right","d","629.869369732","1744.83657506","21","red","1"
"100","100","18","1118.4881706","1","1","3","154","1","right","in","Female","Left-handed","3","0","no","right","d","949.491939962","681.325141428","21","red","3"
"100","100","18","1125.55011909","1","1","3","155","1","left","in","Female","Left-handed","3","0","no","left","s","1120.92768624","1200.79203678","21","red","3"
"100","100","18","1100.41542163","1","1","3","156","3","right","in","Female","Left-handed","3","0","no","right","d","730.636935994","1168.57753773","21","green","0"
"100","100","18","1050.25892493","1","1","3","157","2","right","out","Female","Left-handed","3","0","no","right","d","661.114348546","737.212547509","21","red","2"
"100","100","18","1022.85971733","1","1","3","158","3","left","out","Female","Left-handed","3","0","no","left","d","734.632077812","872.70003531","21","green","3"
"100","100","18","1034.56158474","1","1","3","159","3","right","in","Female","Left-handed","3","0","no","right","s","734.364281117","1545.39250176","21","red","2"
"100","100","18","1064.72398266","1","1","3","160","1","right","out","Female","Left-handed","3","0","no","right","s","1195.86618119","1536.82974256","21","red","3"
"100","100","18","1034.02589514","1","1","3","161","0","right","out","Female","Left-handed","3","0","no","right","s","696.210789032","696.483075728","21","red","3"
"100","100","18","1047.14032233","1","1","3","162","2","left","out","Female","Left-handed","3","0","no","left","s","960.080653309","1448.94624407","21","red","1"
"100","100","18","1059.56769779","1","1","3","163","3","left","in","Female","Left-handed","3","0","no","left","d","569.742758023","1872.5043994","21","red","3"
"100","100","18","1081.52590877","1","1","3","164","0","right","in","Female","Left-handed","3","0","no","right","s","1344.85928166","1433.02244328","21","green","1"
"100","100","18","1117.43383137","1","1","3","165","0","left","in","Female","Left-handed","3","0","no","left","s","791.578483513","2520.52685712","21","green","1"
"100","100","18","1107.97307069","1","1","3","166","0","left","out","Female","Left-handed","3","0","no","left","s","1016.08993094","897.111868781","21","red","1"
"100","100","18","1108.6732436","1","1","3","167","2","left","in","Female","Left-handed","3","0","no","left","s","968.549443125","1272.60292293","21","red","1"
"100","100","18","1097.43237914","1","1","3","168","0","left","out","Female","Left-handed","3","0","no","left","d","990.02000297","800.173634885","21","red","3"
"100","100","18","1095.69484743","1","1","3","169","1","left","out","Female","Left-handed","3","0","no","left","s","588.713988964","1536.64950095","21","green","3"
"100","95","18","1078.77399726","1","0","3","170","0","right","out","Female","Left-handed","3","0","no","right","d","680.395389794","800.318597889","21","red","3"
"100","95","18","1083.23097921","1","1","3","171","1","left","in","Female","Left-handed","3","0","no","left","s","1048.79480263","1304.86039774","21","green","2"
"100","95","18","1084.97377342","1","1","3","172","1","left","in","Female","Left-handed","3","0","no","left","d","926.511776481","1320.11871572","21","green","1"
"100","95","18","1077.51796242","1","1","3","173","0","left","out","Female","Left-handed","3","0","no","left","s","1099.09824675","712.970372064","21","red","2"
"100","96","18","1090.99462258","1","1","3","174","3","left","in","Female","Left-handed","3","0","no","left","d","1164.52466728","1664.34426532","21","green","1"
"100","96","18","1081.05826","1","1","3","175","2","left","out","Female","Left-handed","3","0","no","left","d","560.262755061","1105.0356362","21","green","2"
"100","96","18","1086.33592581","1","1","3","176","1","right","out","Female","Left-handed","3","0","no","right","s","918.506739978","1528.6037337","21","green","3"
"100","96","18","1086.69243318","1","1","3","177","3","right","out","Female","Left-handed","3","0","no","right","s","432.342849042","1760.29341538","21","red","3"
"100","96","18","1080.77963132","1","1","3","178","2","right","out","Female","Left-handed","3","0","no","right","d","549.678211006","1280.76414744","21","green","3"
"100","96","18","1082.44616191","1","1","3","179","0","right","out","Female","Left-handed","3","0","no","right","s","1221.30494282","1040.24615487","21","red","1"
"100","96","18","1084.50790488","1","1","3","180","1","right","in","Female","Left-handed","3","0","no","right","s","755.771339467","1536.94904839","21","green","2"
"100","96","18","1080.5680485","1","1","3","181","1","left","out","Female","Left-handed","3","0","no","left","s","884.449414807","1032.41558711","21","red","1"
"100","96","18","1076.49121041","1","1","3","182","3","right","out","Female","Left-handed","3","0","no","right","s","811.128604309","1080.93617875","21","green","2"
"100","97","18","1068.01049356","1","1","3","183","2","right","in","Female","Left-handed","3","0","no","right","d","791.65353073","784.640143782","21","red","3"
"100","97","18","1066.65425348","1","1","3","184","2","left","out","Female","Left-handed","3","0","no","left","s","824.958780155","1216.12540197","21","green","3"
"100","94","18","1064.22464501","1","0","3","185","0","right","out","Female","Left-handed","3","0","no","right","d","1061.70933828","896.667358342","21","red","2"
"100","94","18","1055.56409542","1","1","3","186","2","left","in","Female","Left-handed","3","0","no","left","s","703.312051781","784.256569117","21","green","3"
"100","94","18","1050.13717048","1","1","3","187","3","left","out","Female","Left-handed","3","0","no","left","d","569.878741015","1128.80315404","21","green","3"
"100","94","18","1046.74624632","1","1","3","188","2","right","out","Female","Left-handed","3","0","no","right","d","811.371705982","1024.41055061","21","green","0"
"100","95","18","1043.65120587","1","1","3","189","1","left","in","Female","Left-handed","3","0","no","left","d","1069.8817878","776.007468805","21","red","0"
"100","95","18","1040.89457331","1","1","3","190","2","left","in","Female","Left-handed","3","0","no","left","d","1092.62911248","768.629429349","21","red","0"
"100","95","18","1054.37728701","1","1","3","191","3","right","out","Female","Left-handed","3","0","no","right","d","766.21059981","2448.12649754","21","green","1"
"100","95","18","1048.37243268","1","1","3","192","0","left","in","Female","Left-handed","3","0","no","left","d","671.608451084","920.728650748","21","red","3"
"100","95","18","1051.44911686","1","1","3","193","3","left","in","Female","Left-handed","3","0","no","left","d","1583.31091004","784.18216333","21","green","2"
"100","95","18","1044.46755371","1","1","3","194","3","right","in","Female","Left-handed","3","0","no","right","d","529.833674198","944.723875953","21","green","3"
"100","95","18","1037.32580439","1","1","3","195","0","left","in","Female","Left-handed","3","0","no","left","d","695.421831107","736.472338205","21","green","3"
"100","95","18","1035.30995111","1","1","3","196","1","left","out","Female","Left-handed","3","0","no","left","s","917.034980663","968.126420568","21","red","1"
"100","93","18","1048.39896397","1","0","3","197","2","right","in","Female","Left-handed","3","0","no","right","d","1006.55252007","2320.61261621","21","green","1"
"100","93","18","1042.60779576","1","1","3","198","2","left","out","Female","Left-handed","3","0","no","left","d","793.151909358","736.111534276","21","green","3"
"100","92","18","1046.79927788","1","0","3","199","0","right","out","Female","Left-handed","3","0","no","right","d","679.644276191","1824.71952706","21","red","0"
"100","92","18","1037.78831763","1","1","3","200","0","right","out","Female","Left-handed","3","0","no","right","d","622.27741364","552.203197072","21","green","0"
"100","92","18","1033.98159952","1","1","3","201","3","right","out","Female","Left-handed","3","0","no","right","d","927.904960714","751.772990508","21","green","0"
"100","90","18","1033.75338454","1","0","3","202","1","right","in","Female","Left-handed","3","0","no","right","s","1219.3453766","824.427035343","21","green","2"
"100","90","18","1033.23876944","1","1","3","203","1","left","in","Female","Left-handed","3","0","no","left","d","796.078750831","1215.84958742","21","red","3"
"100","90","18","1028.14594567","1","1","3","204","3","right","in","Female","Left-handed","3","0","no","right","d","569.623131476","936.643792233","21","red","3"
"100","91","18","1031.25448285","1","1","3","205","3","left","out","Female","Left-handed","3","0","no","left","d","1220.32099042","1184.12706456","21","green","2"
"100","91","18","1041.76918914","1","1","3","206","1","left","out","Female","Left-handed","3","0","no","left","s","1292.66939424","1968.51608881","21","red","0"
"100","91","18","1039.68928096","1","1","3","207","2","right","in","Female","Left-handed","3","0","no","right","s","946.125078055","896.143952108","21","green","1"
"100","91","18","1043.63924471","1","1","3","208","2","left","in","Female","Left-handed","3","0","no","left","d","1161.71424521","1383.76003877","21","green","2"
"100","91","18","1042.48279981","1","1","3","209","0","left","out","Female","Left-handed","3","0","no","left","d","532.253145168","1416.25195596","21","red","3"
"100","91","18","1040.01952006","1","1","3","210","0","left","out","Female","Left-handed","3","0","no","left","s","1120.72723961","663.718230415","21","green","2"
"100","91","18","1038.87948649","1","1","3","211","0","left","in","Female","Left-handed","3","0","no","left","d","802.366360629","1136.30851718","21","red","2"
"100","92","18","1037.29914911","1","1","3","212","2","right","out","Female","Left-handed","3","0","no","right","s","582.798087387","1295.83837523","21","green","2"
"100","92","18","1037.55190916","1","1","3","213","2","right","in","Female","Left-handed","3","0","no","right","s","634.598627275","1472.35295797","21","red","3"
"100","100","18","887.690877305","1","1","4","214","3","left","out","Female","Left-handed","3","0","no","left","d","495.192327737","1280.18942687","21","red","3"
"100","50","18","914.016013922","1","0","4","215","0","right","out","Female","Left-handed","3","0","no","right","d","1103.8605379","776.821763182","21","red","2"
"100","66","18","982.648912334","1","1","4","216","3","right","out","Female","Left-handed","3","0","no","right","s","831.448760869","1408.38065745","21","green","0"
"100","75","18","941.590614544","1","1","4","217","0","right","out","Female","Left-handed","3","0","no","right","s","731.835767183","904.995675162","21","red","3"
"100","80","18","921.700351856","1","1","4","218","2","left","out","Female","Left-handed","3","0","no","left","d","867.685662484","816.592939725","21","green","0"
"100","83","18","933.955081354","1","1","4","219","3","left","in","Female","Left-handed","3","0","no","left","d","630.257434405","1360.20002329","21","red","3"
"100","71","18","909.216233529","1","0","4","220","1","right","in","Female","Left-handed","3","0","no","right","d","680.803659485","840.76263367","21","green","1"
"100","75","18","887.114793699","1","1","4","221","2","left","in","Female","Left-handed","3","0","no","left","d","576.37064602","888.438783761","21","red","2"
"100","77","18","902.036548423","1","1","4","222","3","right","in","Female","Left-handed","3","0","no","right","s","1017.93692634","1024.88424608","21","red","1"
"100","80","18","898.088059892","1","1","4","223","1","right","in","Female","Left-handed","3","0","no","right","s","1044.52256339","680.580762833","21","red","3"
"100","81","18","869.181985624","1","1","4","224","3","left","out","Female","Left-handed","3","0","no","left","s","552.184595628","608.057890269","21","red","3"
"100","83","18","855.808571761","1","1","4","225","1","left","out","Female","Left-handed","3","0","no","left","s","544.588149529","872.813888997","21","red","1"
"100","84","18","857.656041038","1","1","4","226","3","right","in","Female","Left-handed","3","0","no","right","d","623.250141034","1136.4012037","21","green","0"
"100","85","18","902.495659013","1","1","4","227","1","left","out","Female","Left-handed","3","0","no","left","s","1153.90997605","1816.91140933","21","green","3"
"100","86","18","902.884785096","1","1","4","228","2","left","out","Female","Left-handed","3","0","no","left","d","744.344598861","1072.32050165","21","red","3"
"100","87","18","894.949701126","1","1","4","229","1","left","out","Female","Left-handed","3","0","no","left","s","503.868619904","1047.97826325","21","red","1"
"100","88","18","880.958870258","1","1","4","230","2","left","in","Female","Left-handed","3","0","no","left","s","641.702776458","672.508376261","21","red","3"
"100","88","18","881.302964012","1","1","4","231","3","right","in","Female","Left-handed","3","0","no","right","d","934.097318281","840.207797406","21","green","1"
"100","89","18","872.671854625","1","1","4","232","1","left","in","Female","Left-handed","3","0","no","left","d","753.806962519","680.816808781","21","green","3"
"100","90","18","881.124638675","1","1","4","233","2","right","in","Female","Left-handed","3","0","no","right","d","715.222750721","1368.23232053","21","green","2"
"100","90","18","885.847486125","1","1","4","234","3","left","in","Female","Left-handed","3","0","no","left","d","1040.94435056","919.664519697","21","green","1"
"100","90","18","886.965654119","1","1","4","235","2","left","in","Female","Left-handed","3","0","no","left","s","764.515943847","1056.37842014","21","green","0"
"100","91","18","882.926613067","1","1","4","236","3","right","out","Female","Left-handed","3","0","no","right","s","515.950901161","1072.18451866","21","red","3"
"100","87","18","878.02081085","1","0","4","237","0","right","out","Female","Left-handed","3","0","no","right","s","857.704382597","672.670337139","21","green","2"
"100","88","18","873.490340237","1","1","4","238","0","right","out","Female","Left-handed","3","0","no","right","s","929.185894842","600.332196187","21","green","3"
"100","88","18","885.48500843","1","1","4","239","0","right","out","Female","Left-handed","3","0","no","right","d","930.778884278","1439.92454227","21","green","1"
"100","88","18","877.740344444","1","1","4","240","3","right","in","Female","Left-handed","3","0","no","right","s","544.366215025","808.391946597","21","red","3"
"100","89","18","895.018530202","1","1","4","241","2","left","in","Female","Left-handed","3","0","no","left","d","1131.03693125","1592.0221601","21","red","1"
"100","89","18","897.741221425","1","1","4","242","3","right","out","Female","Left-handed","3","0","no","right","d","979.487735393","968.465415902","21","green","2"
"100","90","18","904.617435051","1","1","4","243","1","left","out","Female","Left-handed","3","0","no","left","d","1392.12395491","815.931305496","21","red","0"
"100","90","18","899.28070646","1","1","4","244","0","right","out","Female","Left-handed","3","0","no","right","d","717.731380351","760.626317136","21","green","1"
"100","90","18","896.357242353","1","1","4","245","2","right","out","Female","Left-handed","3","0","no","right","d","787.257174947","824.202535121","21","green","1"
"100","90","18","899.172406656","1","1","4","246","1","right","out","Female","Left-handed","3","0","no","right","s","994.580564631","983.934764085","21","red","2"
"100","91","18","892.797361251","1","1","4","247","1","right","in","Female","Left-handed","3","0","no","right","d","548.368091848","816.473633891","21","green","1"
"100","91","18","891.316762071","1","1","4","248","2","right","out","Female","Left-handed","3","0","no","right","d","514.057081429","1167.89569848","21","red","2"
"100","91","18","897.976314906","1","1","4","249","0","right","in","Female","Left-handed","3","0","no","right","s","997.503557527","1264.61777073","21","red","3"
"100","91","18","895.725402215","1","1","4","250","0","left","out","Female","Left-handed","3","0","no","left","s","589.167158698","1040.21793199","21","green","0"
"100","92","18","893.867161159","1","1","4","251","2","left","in","Female","Left-handed","3","0","no","left","s","922.62086691","727.603617277","21","green","1"
"100","92","18","908.903520931","1","1","4","252","0","right","in","Female","Left-handed","3","0","no","right","s","1416.37863823","1544.19174628","21","red","2"
"100","90","18","908.688391126","1","0","4","253","2","left","in","Female","Left-handed","3","0","no","left","s","928.680769342","871.915888106","21","red","3"
"100","90","18","911.545617776","1","1","4","254","3","left","in","Female","Left-handed","3","0","no","left","s","1107.3415742","944.327793419","21","red","2"
"100","88","18","914.968353028","1","0","4","255","3","right","in","Female","Left-handed","3","0","no","right","d","990.807678037","1119.79331868","21","green","1"
"100","88","18","918.714298265","1","1","4","256","2","right","in","Female","Left-handed","3","0","no","right","d","807.619665833","1344.46833055","21","red","3"
"100","88","18","908.551332282","1","1","4","257","0","left","in","Female","Left-handed","3","0","no","left","s","559.085091034","384.002499006","21","green","3"
"100","88","18","916.018938981","1","1","4","258","1","right","in","Female","Left-handed","3","0","no","right","d","1433.68407751","1055.50318999","21","green","2"
"100","86","18","915.96687205","1","0","4","259","0","left","out","Female","Left-handed","3","0","no","left","s","835.089192336","992.158527948","21","green","0"
"100","85","18","920.440877631","1","0","4","260","0","left","in","Female","Left-handed","3","0","no","left","d","1132.78033583","1119.70993289","21","red","1"
"100","85","18","922.520072324","1","1","4","261","2","left","in","Female","Left-handed","3","0","no","left","d","512.23542248","1528.24902334","21","green","3"
"100","85","18","918.610373338","1","1","4","262","1","right","out","Female","Left-handed","3","0","no","right","d","613.896499628","847.993144401","21","red","3"
"100","86","18","915.645766872","1","1","4","263","3","left","in","Female","Left-handed","3","0","no","left","d","764.385092287","776.375007739","21","green","2"
"100","86","18","922.112006029","1","1","4","264","0","left","out","Female","Left-handed","3","0","no","left","d","634.748400996","1856.09952672","21","red","3"
"100","86","18","920.863094929","1","1","4","265","1","left","in","Female","Left-handed","3","0","no","left","s","762.748485668","951.588772038","21","red","0"
"100","84","18","921.113145201","1","0","4","266","2","left","out","Female","Left-handed","3","0","no","left","d","548.08907014","1320.1424486","21","red","3"
"100","85","18","924.170209464","1","1","4","267","1","right","in","Female","Left-handed","3","0","no","right","d","1332.6958596","839.693371181","21","red","2"
"100","85","18","927.672465954","1","1","4","268","0","left","in","Female","Left-handed","3","0","no","left","d","1401.31082473","832.27780812","21","green","2"
"100","85","18","939.156488063","1","1","4","269","1","right","out","Female","Left-handed","3","0","no","right","s","1109.89253816","2031.66286994","21","green","3"
"100","85","18","938.245649145","1","1","4","270","1","right","out","Female","Left-handed","3","0","no","right","s","574.351106163","1200.12623327","21","red","3"
"100","86","18","934.437242583","1","1","4","271","0","right","in","Female","Left-handed","3","0","no","right","s","578.963623586","855.752513518","21","green","3"
"100","86","18","931.321546977","1","1","4","272","2","left","out","Female","Left-handed","3","0","no","left","s","533.642801543","967.579602169","21","green","2"
"100","86","18","930.768014726","1","1","4","273","0","left","out","Female","Left-handed","3","0","no","left","s","1076.02058603","720.198637798","21","green","1"
"100","86","18","927.437132748","1","1","4","274","3","left","out","Female","Left-handed","3","0","no","left","s","655.65193742","799.516490664","21","green","2"
"100","87","18","928.419115368","1","1","4","275","2","left","out","Female","Left-handed","3","0","no","left","d","633.324748873","1343.31536155","21","green","1"
"100","87","18","931.601677594","1","1","4","276","3","right","in","Female","Left-handed","3","0","no","right","d","1153.92344606","1103.9176251","21","red","3"
"100","87","18","934.770034701","1","1","4","277","1","right","out","Female","Left-handed","3","0","no","right","d","1213.44358646","1055.30947837","21","red","2"
"100","100","18","946.388224385","1","1","5","278","2","right","out","Female","Left-handed","3","0","no","right","d","948.87328149","943.903167281","21","red","1"
"100","100","18","834.70016552","1","1","5","279","2","left","in","Female","Left-handed","3","0","no","left","s","781.572187887","664.452025423","21","green","3"
"100","100","18","757.525594896","1","1","5","280","2","left","out","Female","Left-handed","3","0","no","left","s","582.297772605","624.055134689","21","red","3"
"100","100","18","728.218066366","1","1","5","281","3","left","in","Female","Left-handed","3","0","no","left","s","791.774760852","488.816200704","21","green","2"
"100","100","18","758.836890005","1","1","5","282","2","left","in","Female","Left-handed","3","0","no","left","d","898.44379653","864.180572586","21","green","1"
"100","100","18","811.014403186","1","1","5","283","0","left","in","Female","Left-handed","3","0","no","left","s","751.897427774","1391.90651041","21","green","3"
"100","100","18","792.41628169","1","1","5","284","2","left","in","Female","Left-handed","3","0","no","left","d","593.358577847","768.296527589","21","green","3"
"100","100","18","808.118156551","1","1","5","285","0","left","out","Female","Left-handed","3","0","no","left","s","788.131442954","1047.9311182","21","red","2"
"100","100","18","815.227693292","1","1","5","286","1","left","out","Female","Left-handed","3","0","no","left","d","559.629343719","1184.57863072","21","red","3"
"100","90","18","874.720216598","1","0","5","287","3","right","in","Female","Left-handed","3","0","no","right","s","1460.20076093","1360.10509176","21","red","2"
"100","90","18","856.537885272","1","1","5","288","3","left","in","Female","Left-handed","3","0","no","left","s","548.74108293","800.68806111","21","red","3"
"100","91","18","843.937922054","1","1","5","289","2","left","in","Female","Left-handed","3","0","no","left","d","498.349763009","912.326890284","21","red","2"
"100","84","18","885.626856799","1","0","5","290","1","right","out","Female","Left-handed","3","0","no","right","d","1531.944297","1239.84385047","21","red","0"
"100","85","18","889.724127712","1","1","5","291","2","right","in","Female","Left-handed","3","0","no","right","d","893.575348848","992.40195033","21","red","0"
"100","86","18","893.043849918","1","1","5","292","0","left","in","Female","Left-handed","3","0","no","left","d","927.031013424","952.008908167","21","red","1"
"100","87","18","913.887206919","1","1","5","293","0","right","in","Female","Left-handed","3","0","no","right","s","1268.5612775","1184.51384637","21","red","2"
"100","88","18","914.188459334","1","1","5","294","1","right","in","Female","Left-handed","3","0","no","right","s","845.89855733","992.118438618","21","green","3"
"100","88","18","916.137113404","1","1","5","295","0","right","out","Female","Left-handed","3","0","no","right","s","522.801044375","1375.72742081","21","green","0"
"100","89","18","904.637377873","1","1","5","296","3","right","out","Female","Left-handed","3","0","no","right","d","411.186910227","984.097366388","21","red","3"
"100","90","18","911.049692483","1","1","5","297","1","right","out","Female","Left-handed","3","0","no","right","d","625.929070116","1439.83827004","21","green","3"
"100","90","18","895.380910978","1","1","5","298","1","right","in","Female","Left-handed","3","0","no","right","s","611.500120107","552.510441663","21","green","0"
"100","90","18","896.862790158","1","1","5","299","2","left","out","Female","Left-handed","3","0","no","left","d","759.950250751","1096.01425512","21","green","3"
"100","91","18","911.546933284","1","1","5","300","3","left","in","Female","Left-handed","3","0","no","left","s","509.52121479","1959.67494934","21","red","3"
"100","91","18","921.802496785","1","1","5","301","0","right","in","Female","Left-handed","3","0","no","right","d","611.258622011","1704.10229256","21","red","0"
"96","88","18","950.436912711","0","0","5","302","3","left","out","Female","Left-handed","3","0","no","right","d","552.722754732","2722.60303518","21","red","1"
"96","88","18","950.423326007","1","1","5","303","0","left","in","Female","Left-handed","3","0","no","left","d","868.150377945","1032.01693886","21","red","2"
"96","85","18","960.249889653","1","0","5","304","1","right","in","Female","Left-handed","3","0","no","right","s","1119.71602646","1311.76506244","21","green","3"
"96","85","18","962.251553278","1","1","5","305","1","right","out","Female","Left-handed","3","0","no","right","s","648.261069386","1384.33187291","21","green","3"
"96","86","18","961.769204636","1","1","5","306","3","right","in","Female","Left-handed","3","0","no","right","s","424.780077978","1471.74680736","21","green","3"
"96","86","18","959.509877529","1","1","5","307","2","right","out","Female","Left-handed","3","0","no","right","d","979.474586092","808.504196713","21","green","1"
"96","87","18","965.474938445","1","1","5","308","0","left","in","Female","Left-handed","3","0","no","left","s","1128.96319063","1159.89034126","21","green","1"
"96","87","18","957.790345135","1","1","5","309","2","left","out","Female","Left-handed","3","0","no","left","d","519.546111864","919.589793193","21","green","2"
"96","87","18","955.120724217","1","1","5","310","0","right","in","Female","Left-handed","3","0","no","right","d","787.219330621","952.166379036","21","green","3"
"97","88","18","947.786360834","1","1","5","311","3","left","out","Female","Left-handed","3","0","no","left","s","619.754672571","791.75006583","21","red","3"
"97","88","18","963.754338295","1","1","5","312","1","left","in","Female","Left-handed","3","0","no","left","s","1173.20993946","1840.12120446","21","green","2"
"97","88","18","956.71365777","1","1","5","313","2","right","in","Female","Left-handed","3","0","no","right","s","556.724310838","863.855367978","21","red","2"
"97","89","18","957.339180544","1","1","5","314","1","left","in","Female","Left-handed","3","0","no","left","s","976.408554485","983.30744632","21","red","2"
"97","89","18","954.60586935","1","1","5","315","2","left","out","Female","Left-handed","3","0","no","left","s","874.969091128","831.977619251","21","green","3"
"97","89","18","952.323763563","1","1","5","316","2","left","out","Female","Left-handed","3","0","no","left","d","700.678343459","1030.52914382","21","green","3"
"97","90","18","956.417839974","1","1","5","317","1","left","out","Female","Left-handed","3","0","no","left","d","800.009749725","1432.16389029","21","green","1"
"97","90","18","950.548702401","1","1","5","318","0","left","out","Female","Left-handed","3","0","no","left","s","583.645736082","847.920662906","21","green","3"
"97","88","18","950.484093495","1","0","5","319","1","left","out","Female","Left-handed","3","0","no","left","s","952.377729966","943.292526678","21","green","1"
"97","86","18","947.029381358","1","0","5","320","3","right","out","Female","Left-handed","3","0","no","right","s","723.861839997","880.001103262","21","green","2"
"97","84","18","946.937648591","1","0","5","321","1","left","out","Female","Left-handed","3","0","no","left","d","862.520233084","1023.46604611","21","red","2"
"97","84","18","947.207044404","1","1","5","322","3","right","out","Female","Left-handed","3","0","no","right","d","1086.05253883","832.068381485","21","red","1"
"97","82","18","944.520051363","1","0","5","323","0","right","out","Female","Left-handed","3","0","no","right","s","711.622729297","935.587999756","21","green","3"
"97","82","18","944.500934948","1","1","5","324","0","left","in","Female","Left-handed","3","0","no","left","s","1031.18308089","856.060078826","21","green","1"
"97","83","18","951.326617917","1","1","5","325","3","right","in","Female","Left-handed","3","0","no","right","s","568.686644834","1975.58079009","21","red","3"
"97","83","18","949.090902712","1","1","5","326","1","left","out","Female","Left-handed","3","0","no","left","s","876.228858091","807.324287685","21","green","2"
"98","84","18","950.256699969","1","1","5","327","3","right","out","Female","Left-handed","3","0","no","right","d","894.936140911","1119.82539014","21","green","1"
"98","84","18","948.936305055","1","1","5","328","3","left","out","Female","Left-handed","3","0","no","left","s","926.482912164","839.350206555","21","red","0"
"98","84","18","959.013614236","1","1","5","329","3","left","in","Female","Left-handed","3","0","no","left","d","1433.97464494","1511.93812004","21","red","2"
"98","84","18","964.767522062","1","1","5","330","1","right","in","Female","Left-handed","3","0","no","right","s","592.466991249","1935.47446679","21","green","1"
"98","85","18","959.133057469","1","1","5","331","0","right","in","Female","Left-handed","3","0","no","right","s","537.12319642","783.889671613","21","green","3"
"98","85","18","957.786296022","1","1","5","332","0","right","out","Female","Left-handed","3","0","no","right","s","802.676491654","967.445864179","21","red","1"
"98","83","18","955.418863237","1","0","5","333","2","left","in","Female","Left-handed","3","0","no","left","s","899.298180233","751.121939862","21","red","0"
"98","84","18","959.469317822","1","1","5","334","3","right","out","Female","Left-handed","3","0","no","right","d","884.792579432","1487.7969697","21","red","1"
"98","82","18","956.6999122","1","0","5","335","1","right","out","Female","Left-handed","3","0","no","right","d","678.350513481","919.337070085","21","red","3"
"98","83","18","954.448649387","1","1","5","336","2","right","in","Female","Left-handed","3","0","no","right","d","967.925973938","679.824838513","21","green","1"
"98","83","18","952.199161417","1","1","5","337","0","right","in","Female","Left-handed","3","0","no","right","d","551.478702786","1087.48003953","21","red","3"
"98","83","18","952.662124952","1","1","5","338","1","right","out","Female","Left-handed","3","0","no","right","d","1129.90288441","830.976989691","21","green","1"
"98","83","18","956.353225422","1","1","5","339","2","right","in","Female","Left-handed","3","0","no","right","d","635.555318939","1727.46538928","21","red","2"
"98","84","18","959.118170966","1","1","5","340","3","left","out","Female","Left-handed","3","0","no","left","d","877.939870505","1383.14971888","21","red","0"
"98","84","18","959.681919866","1","1","5","341","0","right","out","Female","Left-handed","3","0","no","right","s","1030.85146199","959.544739206","21","red","2"
"100","100","18","1009.82380902","1","1","6","342","3","right","out","Female","Left-handed","3","0","no","right","s","419.360963325","1600.28665471","21","red","3"
"100","50","18","875.816739828","1","0","6","343","2","right","in","Female","Left-handed","3","0","no","right","s","475.857727153","1007.76161412","21","red","2"
"100","66","18","949.308544661","1","1","6","344","3","left","in","Female","Left-handed","3","0","no","left","d","752.27426743","1440.31004122","21","green","2"
"100","75","18","913.357386395","1","1","6","345","1","left","in","Female","Left-handed","3","0","no","left","s","683.040964555","927.966858635","21","red","2"
"100","60","18","865.386459494","1","0","6","346","1","right","out","Female","Left-handed","3","0","no","right","d","635.463915278","711.541588505","21","green","1"
"100","66","18","860.82846355","1","1","6","347","0","left","out","Female","Left-handed","3","0","no","left","s","1004.11797551","671.958992149","21","red","2"
"100","71","18","842.606765548","1","1","6","348","1","left","in","Female","Left-handed","3","0","no","left","d","682.835065778","783.718089297","21","red","0"
"100","75","18","816.128284399","1","1","6","349","3","left","in","Female","Left-handed","3","0","no","left","s","845.262580271","416.295252431","21","green","1"
"100","77","18","796.413559058","1","1","6","350","3","right","out","Female","Left-handed","3","0","no","right","d","597.691432144","679.700080531","21","green","2"
"100","80","18","805.973453811","1","1","6","351","2","right","out","Female","Left-handed","3","0","no","right","d","592.450314092","1191.57469908","21","green","3"
"100","81","18","859.523825699","1","1","6","352","1","left","in","Female","Left-handed","3","0","no","left","s","1150.10373514","1639.95135401","21","red","3"
"100","83","18","887.070494994","1","1","6","353","0","left","out","Female","Left-handed","3","0","no","left","d","780.634739102","1599.53297539","21","red","1"
"100","84","18","902.34626416","1","1","6","354","2","right","out","Female","Left-handed","3","0","no","right","d","595.198196814","1576.11279148","21","red","2"
"100","85","18","899.578690971","1","1","6","355","1","left","in","Female","Left-handed","3","0","no","left","d","823.542825183","903.657653838","21","green","1"
"100","86","18","894.0925546","1","1","6","356","0","left","out","Female","Left-handed","3","0","no","left","s","666.297096541","968.276194286","21","red","1"
"100","87","18","911.140897703","1","1","6","357","3","right","in","Female","Left-handed","3","0","no","right","d","1125.94270048","1207.789388","21","green","0"
"100","88","18","910.510730649","1","1","6","358","2","left","in","Female","Left-handed","3","0","no","left","s","897.42648981","903.429625756","21","red","3"
"100","83","18","931.174129393","1","0","6","359","0","right","out","Female","Left-handed","3","0","no","right","d","1500.98026419","1063.9235519","21","red","3"
"100","84","18","915.269252654","1","1","6","360","1","left","out","Female","Left-handed","3","0","no","left","d","570.367830787","687.595111925","21","green","3"
"100","85","18","908.534568384","1","1","6","361","0","right","in","Female","Left-handed","3","0","no","right","d","760.993856067","800.157278441","21","red","1"
"100","85","18","898.087520786","1","1","6","362","1","left","in","Female","Left-handed","3","0","no","left","d","474.675573125","903.617564512","21","green","1"
"100","86","18","903.420915438","1","1","6","363","3","left","out","Female","Left-handed","3","0","no","left","s","991.432750798","1039.41165547","21","green","2"
"100","86","18","903.005376111","1","1","6","364","3","left","out","Female","Left-handed","3","0","no","left","s","971.840616388","815.886405453","21","red","1"
"100","87","18","910.959650522","1","1","6","365","1","right","in","Female","Left-handed","3","0","no","right","d","980.422618464","1207.39330547","21","green","3"
"100","88","18","914.738189445","1","1","6","366","0","left","out","Female","Left-handed","3","0","no","left","s","1027.07119896","983.775048211","21","green","2"
"100","84","18","905.889494429","1","0","6","367","1","right","in","Female","Left-handed","3","0","no","right","d","713.706732797","655.637505264","21","green","2"
"100","85","18","917.064373562","1","1","6","368","0","right","in","Female","Left-handed","3","0","no","right","d","647.181544027","1768.04091805","21","red","3"
"100","85","18","928.726007284","1","1","6","369","3","right","out","Female","Left-handed","3","0","no","right","d","879.541519233","1607.63871628","21","green","1"
"100","86","18","929.916654127","1","1","6","370","0","right","in","Female","Left-handed","3","0","no","right","s","1055.23250686","871.277024613","21","red","2"
"100","86","18","917.663522488","1","1","6","371","3","right","in","Female","Left-handed","3","0","no","right","d","484.797967441","639.847442479","21","red","3"
"100","87","18","909.431535745","1","1","6","372","0","left","out","Female","Left-handed","3","0","no","left","d","509.523139077","815.420727849","21","green","3"
"100","84","18","908.060759663","1","0","6","373","2","left","in","Female","Left-handed","3","0","no","left","s","707.161268452","1023.97213375","21","red","1"
"100","84","18","907.09181236","1","1","6","374","1","right","in","Female","Left-handed","3","0","no","right","d","1064.59192113","687.579076195","21","red","2"
"100","85","18","901.80256511","1","1","6","375","2","right","in","Female","Left-handed","3","0","no","right","d","543.220301748","911.294509977","21","green","3"
"100","85","18","894.715722928","1","1","6","376","2","right","in","Female","Left-handed","3","0","no","right","s","555.850042834","751.676134696","21","green","2"
"100","86","18","897.525675253","1","1","6","377","2","left","in","Female","Left-handed","3","0","no","left","s","608.29265336","1383.45535989","21","red","2"
"100","86","18","900.201299555","1","1","6","378","1","left","in","Female","Left-handed","3","0","no","left","s","1009.07461971","983.97292912","21","red","2"
"100","86","18","901.671556918","1","1","6","379","1","left","out","Female","Left-handed","3","0","no","left","d","1120.59382233","791.54833634","21","green","3"
"100","87","18","897.453688873","1","1","6","380","3","left","out","Female","Left-handed","3","0","no","left","d","779.183184804","695.166221569","21","green","2"
"100","85","18","903.461212135","1","0","6","381","1","right","in","Female","Left-handed","3","0","no","right","d","1403.77006431","871.739174359","21","red","3"
"100","85","18","899.957960574","1","1","6","382","2","left","out","Female","Left-handed","3","0","no","left","d","824.300353074","695.355443186","21","red","0"
"100","85","18","896.671218371","1","1","6","383","0","left","out","Female","Left-handed","3","0","no","left","s","739.940545929","783.889030183","21","green","2"
"100","86","18","898.668714427","1","1","6","384","2","left","in","Female","Left-handed","3","0","no","left","d","701.623489392","1263.5036082","21","green","0"
"100","86","18","897.894849752","1","1","6","385","0","right","out","Female","Left-handed","3","0","no","right","d","594.131500042","1135.10583742","21","red","3"
"100","86","18","899.523849283","1","1","6","386","0","right","out","Female","Left-handed","3","0","no","right","s","630.747807034","1311.65185018","21","red","3"
"100","86","18","892.865384326","1","1","6","387","0","right","out","Female","Left-handed","3","0","no","right","s","539.291868572","647.177054023","21","red","0"
"100","87","18","896.735892323","1","1","6","388","1","left","out","Female","Left-handed","3","0","no","left","d","1397.83908915","751.719431166","21","red","3"
"100","87","18","889.073785312","1","1","6","389","2","left","out","Female","Left-handed","3","0","no","left","s","626.404689872","431.504821783","21","red","3"
"100","85","18","892.457743544","1","0","6","390","2","right","out","Female","Left-handed","3","0","no","right","d","1062.78116649","1046.99431084","21","green","1"
"100","86","18","891.218590415","1","1","6","391","3","left","out","Female","Left-handed","3","0","no","left","d","909.443024571","751.557149579","21","green","1"
"100","86","18","887.992603718","1","1","6","392","1","left","out","Female","Left-handed","3","0","no","left","s","742.226599617","711.159938128","21","red","1"
"100","86","18","883.873584073","1","1","6","393","1","left","in","Female","Left-handed","3","0","no","left","s","675.800190954","671.806973427","21","green","0"
"100","86","18","882.004746564","1","1","6","394","0","right","in","Female","Left-handed","3","0","no","right","d","458.373649831","1111.27674239","21","green","0"
"100","87","18","878.383377225","1","1","6","395","2","left","in","Female","Left-handed","3","0","no","left","s","557.946233479","814.955370959","21","red","3"
"100","87","18","877.556776908","1","1","6","396","3","right","in","Female","Left-handed","3","0","no","right","d","658.470698068","1007.37002159","21","green","0"
"100","87","18","883.531801648","1","1","6","397","3","right","out","Female","Left-handed","3","0","no","right","s","833.090819641","1591.22550502","21","green","3"
"100","87","18","885.209359314","1","1","6","398","0","right","out","Female","Left-handed","3","0","no","right","s","686.671774583","1271.63340268","21","green","1"
"100","87","18","885.433593924","1","1","6","399","3","right","in","Female","Left-handed","3","0","no","right","d","645.253087117","1151.1768462","21","green","3"
"100","88","18","882.042152738","1","1","6","400","3","left","in","Female","Left-handed","3","0","no","left","s","571.835420815","798.841707136","21","green","3"
"100","88","18","876.557451585","1","1","6","401","3","right","out","Female","Left-handed","3","0","no","right","s","474.528044408","631.392122672","21","green","3"
"100","88","18","885.205812314","1","1","6","402","2","right","out","Female","Left-handed","3","0","no","right","d","993.138952487","1815.07595965","21","red","1"
"100","88","18","883.856431611","1","1","6","403","2","left","in","Female","Left-handed","3","0","no","left","s","979.662845566","623.425571921","21","green","1"
"100","88","18","885.917279732","1","1","6","404","2","right","in","Female","Left-handed","3","0","no","right","d","668.162372673","1359.21735374","21","red","3"
"100","89","18","880.813728918","1","1","6","405","0","right","out","Female","Left-handed","3","0","no","right","s","583.767928347","534.812126989","21","red","3"
"100","100","18","1133.7317357","1","1","7","406","3","left","in","Female","Left-handed","3","0","no","left","d","1372.31341386","895.150057553","21","green","2"
"100","100","18","891.515719666","1","1","7","407","2","left","in","Female","Left-handed","3","0","no","left","s","530.721412222","767.877995033","21","green","2"
"100","100","18","768.6228547","1","1","7","408","3","right","out","Female","Left-handed","3","0","no","right","s","622.329369406","423.344880128","21","green","2"
"100","100","18","797.822516218","1","1","7","409","1","right","out","Female","Left-handed","3","0","no","right","d","578.817698446","1192.0253031","21","red","1"
"100","100","18","834.062905604","1","1","7","410","2","left","out","Female","Left-handed","3","0","no","left","d","1006.46079568","951.588130611","21","red","3"
"100","100","18","868.381265735","1","1","7","411","1","left","out","Female","Left-handed","3","0","no","left","d","528.984742643","1550.96139013","21","green","1"
"100","100","18","875.354590084","1","1","7","412","1","left","out","Female","Left-handed","3","0","no","left","d","850.716332101","983.672740255","21","green","3"
"100","100","18","925.599864595","1","1","7","413","1","right","in","Female","Left-handed","3","0","no","right","s","675.327778343","1879.305794","21","green","3"
"100","100","18","901.179919717","1","1","7","414","3","right","in","Female","Left-handed","3","0","no","right","s","539.749849024","871.890872364","21","green","3"
"100","100","18","911.603550567","1","1","7","415","1","right","out","Female","Left-handed","3","0","no","right","s","1067.481239","943.351217447","21","green","2"
"100","100","18","914.273482147","1","1","7","416","2","left","out","Female","Left-handed","3","0","no","left","d","753.979827692","1127.96576821","21","red","3"
"100","100","18","915.952782686","1","1","7","417","2","left","in","Female","Left-handed","3","0","no","left","d","1085.47589397","783.374283241","21","green","1"
"100","100","18","926.50937112","1","1","7","418","3","right","in","Female","Left-handed","3","0","no","right","s","602.17309801","1504.20376666","21","red","3"
"100","100","18","924.880358562","1","1","7","419","1","left","in","Female","Left-handed","3","0","no","left","s","919.732190476","887.674200145","21","green","3"
"100","100","18","900.664178563","1","1","7","420","3","left","out","Female","Left-handed","3","0","no","left","s","636.073914451","487.201402677","21","green","3"
"100","100","18","890.558186128","1","1","7","421","0","left","out","Female","Left-handed","3","0","no","left","d","718.055622816","759.880976395","21","red","1"
"100","100","18","873.053708056","1","1","7","422","0","left","in","Female","Left-handed","3","0","no","left","s","466.565021521","719.399096292","21","red","0"
"100","100","18","885.664718254","1","1","7","423","3","left","out","Female","Left-handed","3","0","no","left","d","1081.14175682","1118.96202643","21","red","1"
"100","100","18","907.399557714","1","1","7","424","0","left","in","Female","Left-handed","3","0","no","left","s","773.678760066","1823.57457593","21","red","0"
"100","100","18","900.967467673","1","1","7","425","3","right","in","Female","Left-handed","3","0","no","right","d","622.215515723","935.299998044","21","green","0"
"100","100","18","890.484828389","1","1","7","426","3","left","in","Female","Left-handed","3","0","no","left","s","553.873478729","807.790606719","21","red","3"
"100","100","18","902.480871779","1","1","7","427","1","right","out","Female","Left-handed","3","0","no","right","d","789.372287756","1519.42327817","21","red","0"
"100","100","18","904.728959138","1","1","7","428","0","left","out","Female","Left-handed","3","0","no","left","d","1044.68773142","863.686030665","21","green","2"
"100","100","18","898.138275781","1","1","7","429","0","right","out","Female","Left-handed","3","0","no","right","d","669.565499062","823.539618035","21","red","1"
"100","100","18","888.240325564","1","1","7","430","2","right","out","Female","Left-handed","3","0","no","right","d","518.190451236","783.188589488","21","green","2"
"100","100","18","907.601283954","1","1","7","431","3","right","out","Female","Left-handed","3","0","no","right","d","1063.6952031","1719.5552843","21","green","0"
"100","96","18","912.239281745","1","0","7","432","0","right","in","Female","Left-handed","3","0","no","right","d","898.375805034","1167.27864358","21","green","3"
"100","96","18","913.71839077","1","1","7","433","3","right","in","Female","Left-handed","3","0","no","right","s","1099.55462363","807.754045254","21","green","2"
"100","96","18","918.981828897","1","1","7","434","1","left","out","Female","Left-handed","3","0","no","left","d","1133.38392072","999.332272197","21","green","3"
"100","96","18","909.829180988","1","1","7","435","1","left","out","Female","Left-handed","3","0","no","left","s","489.960189698","798.84459357","21","red","1"
"100","96","18","922.300948921","1","1","7","436","3","right","out","Female","Left-handed","3","0","no","right","d","1065.42674125","1527.48123258","21","green","1"
"100","96","18","927.244579282","1","1","7","437","2","right","in","Female","Left-handed","3","0","no","right","d","1306.13427615","854.859964776","21","red","2"
"100","93","18","931.028512004","1","0","7","438","1","left","in","Female","Left-handed","3","0","no","left","d","1032.60320516","1071.6255131","21","green","2"
"100","91","18","956.826267899","1","0","7","439","0","left","out","Female","Left-handed","3","0","no","left","None","616.223604786","3000.08082008","21","green","3"
"100","88","18","985.156127763","1","0","7","440","3","right","out","Female","Left-handed","3","0","no","right","None","896.655491902","3000.08723437","21","red","2"
"100","86","18","1010.53675313","1","0","7","441","1","right","in","Female","Left-handed","3","0","no","right","d","1358.97777993","2438.73950181","21","red","1"
"100","83","18","1031.04438916","1","0","7","442","2","right","out","Female","Left-handed","3","0","no","right","s","875.302955032","2663.33561789","21","red","0"
"100","84","18","1039.69864863","1","1","7","443","0","right","out","Female","Left-handed","3","0","no","right","d","616.893256876","2102.91924053","21","green","1"
"100","84","18","1040.97471155","1","1","7","444","2","right","in","Female","Left-handed","3","0","no","right","d","1251.48611129","927.444093832","21","red","1"
"100","82","18","1043.01017355","1","0","7","445","0","left","in","Female","Left-handed","3","0","no","left","d","1341.97926452","902.807118709","21","red","2"
"100","82","18","1036.72744633","1","1","7","446","2","right","out","Female","Left-handed","3","0","no","right","s","819.36808319","751.468632348","21","red","3"
"100","83","18","1031.36715199","1","1","7","447","2","left","in","Female","Left-handed","3","0","no","left","s","760.195276707","862.994890696","21","red","1"
"100","83","18","1024.6546107","1","1","7","448","1","left","out","Female","Left-handed","3","0","no","left","s","638.73937352","846.716379568","21","green","0"
"100","84","18","1021.96246315","1","1","7","449","1","left","in","Female","Left-handed","3","0","no","left","s","1117.10284387","695.297393843","21","green","2"
"100","84","18","1019.55936094","1","1","7","450","3","left","out","Female","Left-handed","3","0","no","left","s","1012.87989848","814.765828629","21","red","1"
"100","84","18","1023.33862828","1","1","7","451","2","right","in","Female","Left-handed","3","0","no","right","d","1107.39673711","1279.41458039","21","green","3"
"100","85","18","1019.25450382","1","1","7","452","2","right","in","Female","Left-handed","3","0","no","right","s","559.90804471","1102.86151191","21","green","3"
"100","85","18","1017.18818803","1","1","7","453","1","left","in","Female","Left-handed","3","0","no","left","d","841.594888068","998.547804276","21","red","2"
"100","85","18","1008.17828457","1","1","7","454","0","right","out","Female","Left-handed","3","0","no","right","d","488.169640062","663.23619636","21","red","3"
"100","86","18","998.850122689","1","1","7","455","2","left","out","Female","Left-handed","3","0","no","left","s","492.75842461","590.781956725","21","green","2"
"100","86","18","992.459506024","1","1","7","456","0","right","in","Female","Left-handed","3","0","no","right","d","650.438080112","695.41926539","21","red","1"
"100","86","18","997.777435463","1","1","7","457","0","left","in","Female","Left-handed","3","0","no","left","s","835.003561537","1702.98011217","21","green","2"
"100","86","18","999.348441053","1","1","7","458","2","right","out","Female","Left-handed","3","0","no","right","s","1011.64129868","1150.44016476","21","red","1"
"100","87","18","999.22429531","1","1","7","459","1","right","in","Female","Left-handed","3","0","no","right","d","866.133724521","1119.15541733","21","red","3"
"100","85","18","1005.91321632","1","0","7","460","0","left","in","Female","Left-handed","3","0","no","left","d","1543.59104783","1190.63885387","21","red","3"
"100","85","18","1003.24884466","1","1","7","461","0","right","out","Female","Left-handed","3","0","no","right","s","1122.31156975","591.105237043","21","green","2"
"100","85","18","1000.31204968","1","1","7","462","0","left","out","Female","Left-handed","3","0","no","left","d","696.865046823","974.83801507","21","red","3"
"100","86","18","1000.6912478","1","1","7","463","2","right","in","Female","Left-handed","3","0","no","right","s","1149.22337355","895.387707074","21","red","0"
"100","86","18","995.526034","1","1","7","464","2","left","in","Female","Left-handed","3","0","no","left","s","753.037568185","638.84969935","21","red","3"
"100","86","18","993.949668226","1","1","7","465","3","right","out","Female","Left-handed","3","0","no","right","s","571.39796609","1230.49020906","21","green","3"
"100","86","18","989.131631405","1","1","7","466","3","right","in","Female","Left-handed","3","0","no","right","d","400.948417224","999.150427018","21","green","3"
"100","87","18","983.834212296","1","1","7","467","3","left","in","Female","Left-handed","3","0","no","left","s","954.750697314","366.632596084","21","green","1"
"100","85","18","979.721538884","1","0","7","468","0","right","in","Female","Left-handed","3","0","no","right","s","674.171922914","775.299651672","21","red","3"
"100","84","18","977.521273801","1","0","7","469","1","left","out","Female","Left-handed","3","0","no","left","s","582.798408105","1095.01073913","21","red","3"
"100","100","18","564.912315023","1","1","8","470","3","left","out","Female","Left-handed","3","0","no","left","s","465.80653148","664.018098567","21","green","3"
"100","100","18","621.517159675","1","1","8","471","1","right","in","Female","Left-handed","3","0","no","right","s","764.705165464","591.53884319","21","green","3"
"100","100","18","666.293568678","1","1","8","472","0","left","out","Female","Left-handed","3","0","no","left","d","624.405355037","887.287418332","21","green","1"
"100","100","18","650.912016118","1","1","8","473","2","left","in","Female","Left-handed","3","0","no","left","s","561.780697277","647.754019595","21","red","3"
"100","100","18","651.099618125","1","1","8","474","0","left","in","Female","Left-handed","3","0","no","left","d","608.377322013","695.322730295","21","red","3"
"100","100","18","655.347445631","1","1","8","475","3","right","out","Female","Left-handed","3","0","no","right","s","754.099454239","599.073712081","21","red","2"
"100","100","18","707.224999025","1","1","8","476","0","left","in","Female","Left-handed","3","0","no","left","d","781.400284861","1255.58035392","21","green","3"
"100","100","18","696.77282133","1","1","8","477","1","left","in","Female","Left-handed","3","0","no","left","d","472.121081308","775.094073611","21","red","3"
"100","100","18","714.662408859","1","1","8","478","3","right","in","Female","Left-handed","3","0","no","right","s","915.779062274","799.779155924","21","red","1"
"100","90","18","701.583223676","1","0","8","479","1","right","out","Female","Left-handed","3","0","no","right","d","504.346163947","663.394950094","21","red","3"
"100","81","18","710.981781165","1","0","8","480","0","right","out","Female","Left-handed","3","0","no","right","s","482.946802746","1126.98790938","21","red","3"
"100","83","18","712.853992752","1","1","8","481","3","left","out","Female","Left-handed","3","0","no","left","s","803.393930219","663.502710198","21","red","1"
"100","76","18","721.528086174","1","0","8","482","2","right","out","Female","Left-handed","3","0","no","right","s","748.184194094","903.050220379","21","green","1"
"100","71","18","744.577907281","1","0","8","483","1","right","in","Female","Left-handed","3","0","no","right","d","712.799110464","1375.65205288","21","green","0"
"100","73","18","729.757141004","1","1","8","484","3","right","out","Female","Left-handed","3","0","no","right","s","477.292604289","567.240221975","21","red","3"
"100","75","18","736.395206343","1","1","8","485","1","right","in","Female","Left-handed","3","0","no","right","d","993.016118795","678.916254041","21","green","3"
"100","76","18","728.046627904","1","1","8","486","2","right","in","Female","Left-handed","3","0","no","right","s","517.436451202","671.502294554","21","red","2"
"100","77","18","725.771864727","1","1","8","487","1","left","out","Female","Left-handed","3","0","no","left","s","487.057401821","887.14437962","21","green","1"
"100","78","18","735.42608277","1","1","8","488","0","right","out","Female","Left-handed","3","0","no","right","d","763.672143723","1054.73187137","21","green","1"
"100","75","18","761.918396093","1","0","8","489","0","right","in","Female","Left-handed","3","0","no","right","s","731.22448515","1799.32021333","21","red","0"
"100","76","18","772.169729132","1","1","8","490","3","right","out","Female","Left-handed","3","0","no","right","d","635.665324047","1318.72745577","21","green","0"
"100","77","18","772.628266671","1","1","8","491","0","right","in","Female","Left-handed","3","0","no","right","d","477.336862903","1087.17824708","21","green","0"
"100","73","18","802.987884615","1","0","8","492","1","right","in","Female","Left-handed","3","0","no","right","d","1207.00010936","1734.7988494","21","red","2"
"100","75","18","800.986045066","1","1","8","493","3","left","out","Female","Left-handed","3","0","no","left","d","486.283196766","1023.6042741","21","green","3"
"100","76","18","797.585718194","1","1","8","494","1","left","out","Female","Left-handed","3","0","no","left","d","577.081028868","854.874717651","21","red","1"
"100","73","18","795.224434969","1","0","8","495","2","right","out","Female","Left-handed","3","0","no","right","d","673.644668106","798.74004061","21","green","3"
"100","74","18","818.610953218","1","1","8","496","1","left","in","Female","Left-handed","3","0","no","left","d","934.274352741","1919.04650266","21","red","3"
"100","71","18","853.138076708","1","0","8","497","0","right","out","Female","Left-handed","3","0","no","right","None","570.602914591","3000.13790728","21","red","3"
"100","72","18","848.15534305","1","1","8","498","2","right","out","Female","Left-handed","3","0","no","right","s","402.194393457","1015.0832078","21","green","3"
"100","73","18","843.208200116","1","1","8","499","2","left","out","Female","Left-handed","3","0","no","left","s","984.720835579","414.761274482","21","red","1"
"100","74","18","842.118899518","1","1","8","500","0","right","in","Female","Left-handed","3","0","no","right","d","955.471663743","663.40809939","21","red","2"
"100","75","18","840.317692269","1","1","8","501","0","left","in","Female","Left-handed","3","0","no","left","s","754.012861297","814.947673807","21","green","1"
"100","75","18","832.565892443","1","1","8","502","2","right","in","Female","Left-handed","3","0","no","right","s","514.386134608","654.63046141","21","red","2"
"100","76","18","827.409567962","1","1","8","503","2","right","in","Female","Left-handed","3","0","no","right","d","443.18011621","871.321603946","21","green","2"
"100","77","18","838.84805912","1","1","8","504","0","left","in","Female","Left-handed","3","0","no","left","s","1288.78810611","1166.72541089","21","green","2"
"100","77","18","835.527711648","1","1","8","505","2","left","in","Female","Left-handed","3","0","no","left","s","751.281655735","687.349444539","21","red","3"
"100","75","18","848.765927911","1","0","8","506","1","left","out","Female","Left-handed","3","0","no","left","s","883.798364164","1766.88506262","21","red","3"
"100","73","18","847.388584717","1","0","8","507","1","right","out","Female","Left-handed","3","0","no","right","s","593.448377934","999.405395123","21","red","2"
"100","74","18","839.429764336","1","1","8","508","3","left","out","Female","Left-handed","3","0","no","left","s","554.88918188","519.099997852","21","green","2"
"100","72","18","841.121834026","1","0","8","509","3","right","in","Female","Left-handed","3","0","no","right","d","727.68956879","1086.53553502","21","green","0"
"100","73","18","842.193568363","1","1","8","510","2","left","out","Female","Left-handed","3","0","no","left","s","683.00728952","1087.11859417","21","red","3"
"100","73","18","846.169148822","1","1","8","511","3","left","in","Female","Left-handed","3","0","no","left","d","875.621103922","1142.71479139","21","green","1"
"100","74","18","852.741342755","1","1","8","512","2","right","out","Female","Left-handed","3","0","no","right","d","867.222550598","1390.32442527","21","red","1"
"100","75","18","853.073110655","1","1","8","513","1","right","in","Female","Left-handed","3","0","no","right","d","903.809351847","830.868908866","21","red","2"
"100","75","18","848.337313936","1","1","8","514","3","left","in","Female","Left-handed","3","0","no","left","d","617.40383453","662.520682083","21","red","3"
"100","76","18","845.362287652","1","1","8","515","0","right","in","Female","Left-handed","3","0","no","right","d","664.058508607","758.913701152","21","red","2"
"100","76","18","845.494310219","1","1","8","516","2","left","out","Female","Left-handed","3","0","no","left","d","728.439399532","974.695297071","21","green","1"
"100","77","18","843.863890433","1","1","8","517","2","right","out","Female","Left-handed","3","0","no","right","s","784.234439813","750.233881124","21","green","0"
"100","77","18","848.176220082","1","1","8","518","2","right","out","Female","Left-handed","3","0","no","right","d","959.777578009","1150.55850844","21","red","0"
"100","78","18","854.931262843","1","1","8","519","0","left","out","Female","Left-handed","3","0","no","left","d","1293.36887279","1078.48784347","21","green","2"
"100","78","18","860.53810364","1","1","8","520","3","right","out","Female","Left-handed","3","0","no","right","s","923.077564504","1358.68272249","21","green","2"
"100","78","18","856.700672324","1","1","8","521","0","left","in","Female","Left-handed","3","0","no","left","s","947.408577897","374.574772527","21","green","3"
"100","77","18","852.587368996","1","0","8","522","0","left","in","Female","Left-handed","3","0","no","left","s","622.139506362","655.251685595","21","green","3"
"100","77","18","856.451546634","1","1","8","523","0","left","out","Female","Left-handed","3","0","no","left","d","843.772540222","1278.73338257","21","red","1"
"100","78","18","857.002384979","1","1","8","524","3","right","in","Female","Left-handed","3","0","no","right","s","702.250486444","1071.24482487","21","green","3"
"100","76","18","857.534421038","1","0","8","525","1","left","out","Female","Left-handed","3","0","no","left","d","822.733341523","950.85946703","21","green","0"
"100","77","18","856.252276898","1","1","8","526","2","left","in","Female","Left-handed","3","0","no","left","d","578.426426626","990.477983425","21","red","3"
"100","77","18","854.143098521","1","1","8","527","2","left","in","Female","Left-handed","3","0","no","left","s","460.879072314","1006.96078975","21","green","2"
"100","77","18","851.269377257","1","1","8","528","3","left","out","Female","Left-handed","3","0","no","left","d","674.709119874","694.477968031","21","red","2"
"100","78","18","850.957854252","1","1","8","529","1","left","in","Female","Left-handed","3","0","no","left","d","802.996564823","862.159429154","21","green","2"
"100","78","18","849.741930159","1","1","8","530","3","right","in","Female","Left-handed","3","0","no","right","s","1250.74365699","302.829312161","21","green","1"
"100","79","18","844.12326492","1","1","8","531","1","right","out","Female","Left-handed","3","0","no","right","s","580.356487109","422.41288349","21","green","1"
"100","79","18","845.987110195","1","1","8","532","3","left","in","Female","Left-handed","3","0","no","left","s","716.077455142","1207.01357938","21","red","3"
"100","79","18","847.908448188","1","1","8","533","1","left","out","Female","Left-handed","3","0","no","left","s","1123.38596367","814.519519812","21","red","1"
dis_reply=No
dis_loc=0
tar_loc=3
