"acc_1","acc_2","age","avg_rt","correct_1","correct_2","count_block_loop","count_trial_sequence","cue_position","detection","dis_shape","gender","hand","high_loc","low_loc","practice","response_keyboard_response_1","response_keyboard_response_2","response_time_keyboard_response_1","response_time_keyboard_response_2","subject_nr","tar_color","tar_position"
"100","0","19","1028.78551084","1","0","0","0","1","left","in","Female","Right-handed","2","0","yes","left","d","1105.95289906","951.618122614","18","green","3"
"100","0","19","1017.37669366","1","0","0","1","0","right","in","Female","Right-handed","2","0","yes","right","s","1122.46622624","889.469526723","18","red","0"
"100","33","19","940.793970033","1","1","0","2","1","left","out","Female","Right-handed","2","0","yes","left","d","853.166762186","722.090283375","18","green","2"
"100","50","19","959.004043262","1","1","0","3","2","left","out","Female","Right-handed","2","0","yes","left","s","1145.70367736","881.564848541","18","green","0"
"100","60","19","935.138983723","1","1","0","4","3","right","in","Female","Right-handed","2","0","yes","right","s","822.185952848","857.171538283","18","red","0"
"100","66","19","918.476946052","1","1","0","5","3","right","in","Female","Right-handed","2","0","yes","right","s","1012.51817255","657.815342844","18","red","2"
"100","71","19","902.402155502","1","1","0","6","2","left","out","Female","Right-handed","2","0","yes","left","d","890.461179458","721.445644954","18","red","2"
"100","75","19","879.607380725","1","1","0","7","3","left","in","Female","Right-handed","2","0","yes","left","s","686.020999819","754.066914751","18","red","2"
"100","77","19","889.774277844","1","1","0","8","1","left","in","Female","Right-handed","2","0","yes","left","s","1212.70726649","729.5116431","18","green","0"
"100","80","19","918.610791375","1","1","0","9","2","right","out","Female","Right-handed","2","0","yes","right","d","1427.08931","929.189516319","18","red","3"
"100","72","19","912.116831923","1","0","0","10","0","right","out","Female","Right-handed","2","0","yes","right","s","884.740895444","809.613579357","18","green","2"
"100","75","19","913.083938978","1","1","0","11","2","left","out","Female","Right-handed","2","0","yes","left","d","1022.37985752","825.064375646","18","red","1"
"100","76","19","948.216267235","1","1","0","12","3","right","out","Female","Right-handed","2","0","yes","right","d","1417.80940319","1321.79900944","18","green","0"
"100","78","19","952.23201815","1","1","0","13","1","left","in","Female","Right-handed","2","0","yes","left","d","999.455745572","1009.41781453","18","green","1"
"100","80","19","941.752941844","1","1","0","14","0","left","in","Female","Right-handed","2","0","yes","left","s","867.979655083","722.112092038","18","red","2"
"100","81","19","958.590290029","1","1","0","15","3","right","in","Female","Right-handed","2","0","yes","right","s","1868.61884134","553.682184279","18","green","3"
"100","82","19","985.53014077","1","1","0","16","0","right","in","Female","Right-handed","2","0","yes","right","d","1952.0773874","881.058117842","18","red","1"
"100","77","19","1000.47493531","1","0","0","17","2","left","out","Female","Right-handed","2","0","yes","left","d","1083.61248956","1425.46039531","18","red","3"
"100","78","19","985.5339273","1","1","0","18","2","left","in","Female","Right-handed","2","0","yes","left","s","816.097808004","617.093758328","18","red","2"
"100","80","19","973.316467433","1","1","0","19","2","right","out","Female","Right-handed","2","0","yes","right","s","1096.70378095","385.665678969","18","green","1"
"100","80","19","975.392276071","1","1","0","20","0","right","out","Female","Right-handed","2","0","yes","right","d","1112.39767969","921.419217986","18","green","1"
"100","81","19","979.326356932","1","1","0","21","0","left","out","Female","Right-handed","2","0","yes","left","s","1385.96202021","737.922089835","18","green","3"
"100","0","19","1121.76899046","1","0","1","22","2","left","in","Female","Right-handed","2","0","no","left","s","1209.87246102","1033.6655199","18","green","1"
"100","50","19","1108.01149252","1","1","1","23","1","left","in","Female","Right-handed","2","0","no","left","s","875.267276389","1313.2407128","18","red","2"
"100","66","19","1288.76604767","1","1","1","24","0","left","out","Female","Right-handed","2","0","no","left","s","1690.90068816","1609.64962779","18","red","3"
"100","75","19","1180.80047094","1","1","1","25","2","right","in","Female","Right-handed","2","0","no","right","s","1264.41688927","449.390592192","18","red","1"
"100","80","19","1098.25216395","1","1","1","26","1","left","in","Female","Right-handed","2","0","no","left","d","606.112775802","930.00509617","18","red","2"
"100","83","19","1061.64162466","1","1","1","27","0","right","out","Female","Right-handed","2","0","no","right","d","979.628143054","777.549713328","18","red","1"
"100","71","19","1145.49312754","1","0","1","28","3","left","out","Female","Right-handed","2","0","no","left","d","1240.1874647","2057.01682506","18","red","1"
"100","75","19","1144.44332506","1","1","1","29","1","right","out","Female","Right-handed","2","0","no","right","s","1488.63784695","785.551568348","18","green","3"
"100","77","19","1151.96812671","1","1","1","30","3","left","in","Female","Right-handed","2","0","no","left","s","1279.12747388","1145.20560598","18","green","0"
"100","70","19","1143.33809489","1","0","1","31","0","right","out","Female","Right-handed","2","0","no","right","s","1121.67213433","1009.66348271","18","green","3"
"100","72","19","1130.28148307","1","1","1","32","2","right","in","Female","Right-handed","2","0","no","right","s","1006.20680963","993.223920128","18","red","3"
"100","75","19","1119.07798585","1","1","1","33","1","right","out","Female","Right-handed","2","0","no","right","d","1229.8716464","761.807386531","18","green","2"
"100","76","19","1091.94626059","1","1","1","34","1","left","in","Female","Right-handed","2","0","no","left","s","659.384604431","873.346510469","18","green","2"
"100","78","19","1082.55859509","1","1","1","35","3","right","out","Female","Right-handed","2","0","no","right","d","1008.05765954","912.98022756","18","green","0"
"100","80","19","1055.56782115","1","1","1","36","0","right","in","Female","Right-handed","2","0","no","right","s","737.712983242","617.680988651","18","red","2"
"100","81","19","1061.54124066","1","1","1","37","0","right","in","Female","Right-handed","2","0","no","right","d","1453.10030991","849.184756898","18","green","3"
"100","82","19","1041.48542539","1","1","1","38","2","right","out","Female","Right-handed","2","0","no","right","s","695.61296294","745.571799091","18","red","2"
"100","83","19","1052.05783087","1","1","1","39","2","right","in","Female","Right-handed","2","0","no","right","d","1798.27371604","665.303732136","18","green","1"
"100","84","19","1046.23292229","1","1","1","40","3","right","out","Female","Right-handed","2","0","no","right","d","929.868471312","952.900664426","18","red","1"
"100","80","19","1043.21752987","1","0","1","41","3","left","out","Female","Right-handed","2","0","no","left","s","906.445325842","1065.4048217","18","green","1"
"100","80","19","1047.11058353","1","1","1","42","2","right","out","Female","Right-handed","2","0","no","right","s","1336.94737088","912.995942628","18","green","3"
"100","81","19","1047.19816701","1","1","1","43","1","right","in","Female","Right-handed","2","0","no","right","s","1464.55434799","633.520492285","18","green","0"
"100","82","19","1050.04076505","1","1","1","44","0","right","in","Female","Right-handed","2","0","no","right","d","1248.10978224","977.0460615","18","green","1"
"100","79","19","1032.15125436","1","0","1","45","3","right","in","Female","Right-handed","2","0","no","right","s","847.73608439","393.648932482","18","red","2"
"100","80","19","1028.63404967","1","1","1","46","2","left","out","Female","Right-handed","2","0","no","left","s","711.198459794","1177.24381476","18","red","2"
"100","76","19","1038.350466","1","0","1","47","1","left","in","Female","Right-handed","2","0","no","left","s","889.791204501","1672.73054403","18","red","2"
"100","77","19","1039.64655759","1","1","1","48","2","left","out","Female","Right-handed","2","0","no","left","d","993.318851954","1153.37102597","18","green","3"
"100","78","19","1040.5296763","1","1","1","49","0","left","out","Female","Right-handed","2","0","no","left","d","1183.94677147","944.800991139","18","red","1"
"100","79","19","1025.60053919","1","1","1","50","0","right","out","Female","Right-handed","2","0","no","right","s","765.673613474","449.495786919","18","green","2"
"100","80","19","1026.24974597","1","1","1","51","3","left","in","Female","Right-handed","2","0","no","left","d","1177.00424018","913.1492447","18","red","3"
"100","80","19","1024.34162331","1","1","1","52","2","left","in","Female","Right-handed","2","0","no","left","d","956.635077246","977.56081009","18","green","0"
"100","81","19","1017.10182533","1","1","1","53","2","left","in","Female","Right-handed","2","0","no","left","d","728.092797144","857.243378585","18","red","2"
"100","81","19","1022.89493654","1","1","1","54","1","left","in","Female","Right-handed","2","0","no","left","s","1687.76954144","728.779449311","18","green","1"
"100","82","19","1040.81718136","1","1","1","55","3","left","in","Female","Right-handed","2","0","no","left","s","1231.30973529","2033.19278505","18","red","3"
"100","82","19","1038.10292763","1","1","1","56","0","right","in","Female","Right-handed","2","0","no","right","d","1162.78082262","728.855779633","18","red","0"
"100","83","19","1030.59817777","1","1","1","57","3","left","out","Female","Right-handed","2","0","no","left","d","758.478037553","777.385827641","18","green","2"
"100","83","19","1025.17508928","1","1","1","58","3","right","in","Female","Right-handed","2","0","no","right","s","930.943830826","728.94397643","18","red","3"
"100","84","19","1016.92576748","1","1","1","59","3","left","out","Female","Right-handed","2","0","no","left","d","678.750697156","744.65102451","18","red","2"
"100","84","19","1018.73790537","1","1","1","60","1","left","in","Female","Right-handed","2","0","no","left","s","1086.17147959","1089.02681086","18","red","1"
"100","85","19","1014.36300904","1","1","1","61","1","right","in","Female","Right-handed","2","0","no","right","s","814.798588979","872.685515553","18","red","2"
"100","85","19","1020.00835707","1","1","1","62","1","left","out","Female","Right-handed","2","0","no","left","s","1906.37573055","585.268825447","18","green","1"
"100","85","19","1012.60128371","1","1","1","63","2","right","out","Female","Right-handed","2","0","no","right","s","688.895253314","728.927299218","18","red","2"
"100","86","19","1011.01713016","1","1","1","64","1","right","out","Female","Right-handed","2","0","no","right","d","1119.55701474","769.408347009","18","green","0"
"100","86","19","1002.21101357","1","1","1","65","3","left","out","Female","Right-handed","2","0","no","left","s","742.061566498","505.034433634","18","red","2"
"100","86","19","1004.58615514","1","1","1","66","3","left","out","Female","Right-handed","2","0","no","left","s","1289.62481723","928.559951533","18","red","1"
"100","86","19","1000.43623252","1","1","1","67","2","right","out","Female","Right-handed","2","0","no","right","d","874.263757178","753.115672187","18","red","0"
"100","87","19","999.508735301","1","1","1","68","0","left","in","Female","Right-handed","2","0","no","left","d","1048.84755648","864.840169761","18","green","3"
"100","87","19","1001.16233024","1","1","1","69","2","right","out","Female","Right-handed","2","0","no","right","d","845.426931839","1312.33565328","18","red","3"
"100","87","19","995.992275282","1","1","1","70","2","left","in","Female","Right-handed","2","0","no","left","s","982.858711614","512.800562663","18","green","2"
"100","88","19","992.412586549","1","1","1","71","3","left","in","Female","Right-handed","2","0","no","left","s","649.653450724","984.362226498","18","green","2"
"100","86","19","990.721759651","1","0","1","72","0","left","out","Female","Right-handed","2","0","no","left","s","715.170843614","1097.18998585","18","red","2"
"100","86","19","990.271399683","1","1","1","73","0","right","in","Female","Right-handed","2","0","no","right","d","1141.7797216","792.826361028","18","green","1"
"100","86","19","987.289552378","1","1","1","74","2","left","out","Female","Right-handed","2","0","no","left","s","687.256075718","977.210909334","18","green","2"
"100","87","19","982.495480374","1","1","1","75","1","right","out","Female","Right-handed","2","0","no","right","s","783.967874557","672.851453819","18","green","3"
"100","87","19","984.62029762","1","1","1","76","0","right","out","Female","Right-handed","2","0","no","right","d","1262.37040282","936.350454951","18","red","0"
"100","85","19","983.369479894","1","0","1","77","0","right","in","Female","Right-handed","2","0","no","right","d","900.05538759","929.093622344","18","green","2"
"100","85","19","982.880810047","1","1","1","78","1","left","out","Female","Right-handed","2","0","no","left","d","862.598688209","1048.43190902","18","green","3"
"100","84","19","995.437491124","1","0","1","79","1","right","in","Female","Right-handed","2","0","no","right","d","901.204190984","2521.13243407","18","red","3"
"100","84","19","993.592753975","1","1","1","80","0","right","in","Female","Right-handed","2","0","no","right","s","1236.59961893","536.596379698","18","green","2"
"100","85","19","997.968429501","1","1","1","81","2","right","out","Female","Right-handed","2","0","no","right","d","1543.19831098","969.068260152","18","red","1"
"100","85","19","1001.30840937","1","1","1","82","1","left","out","Female","Right-handed","2","0","no","left","d","1594.69786503","808.716537735","18","green","1"
"100","85","19","997.832435642","1","1","1","83","3","left","out","Female","Right-handed","2","0","no","left","s","723.391426694","848.204649927","18","green","2"
"100","85","19","1005.21286098","1","1","1","84","3","right","in","Female","Right-handed","2","0","no","right","d","1948.87856968","976.719893702","18","green","3"
"100","85","19","1004.35628795","1","1","1","85","0","left","in","Female","Right-handed","2","0","no","left","s","900.347880246","1000.43649398","18","red","2"
"100","100","19","795.460879588","1","1","2","86","2","left","out","Female","Right-handed","2","0","no","left","d","781.56956306","809.352196116","18","green","2"
"100","100","19","840.014454653","1","1","2","87","3","right","in","Female","Right-handed","2","0","no","right","s","984.144781298","784.991278138","18","green","1"
"100","100","19","819.240553936","1","1","2","88","0","right","in","Female","Right-handed","2","0","no","right","d","745.837030918","809.548474084","18","red","3"
"100","100","19","884.870785276","1","1","2","89","2","right","out","Female","Right-handed","2","0","no","right","d","1434.2393443","729.283614286","18","red","1"
"100","100","19","900.541047271","1","1","2","90","3","left","out","Female","Right-handed","2","0","no","left","s","1029.87979257","896.564397936","18","red","3"
"100","100","19","862.852588084","1","1","2","91","1","right","in","Female","Right-handed","2","0","no","right","s","651.459079732","697.361504566","18","red","2"
"100","100","19","840.090933878","1","1","2","92","1","left","in","Female","Right-handed","2","0","no","left","s","942.095434068","464.946583208","18","green","1"
"100","100","19","842.776437632","1","1","2","93","0","right","in","Female","Right-handed","2","0","no","right","d","969.518865617","753.631062207","18","red","3"
"100","100","19","822.822715918","1","1","2","94","3","left","out","Female","Right-handed","2","0","no","left","s","661.185101988","665.200782418","18","red","2"
"100","100","19","808.172972845","1","1","2","95","3","right","out","Female","Right-handed","2","0","no","right","s","775.827470385","576.823099993","18","red","2"
"100","100","19","821.640065686","1","1","2","96","1","left","out","Female","Right-handed","2","0","no","left","d","1311.33502051","601.286967689","18","green","0"
"100","100","19","843.205454924","1","1","2","97","1","right","out","Female","Right-handed","2","0","no","right","s","1103.87786892","1056.97160416","18","green","1"
"100","100","19","839.845604041","1","1","2","98","2","right","out","Female","Right-handed","2","0","no","right","d","829.581013891","769.473772998","18","red","2"
"100","100","19","847.221427433","1","1","2","99","2","left","out","Female","Right-handed","2","0","no","left","d","829.140029899","1057.07423316","18","green","2"
"100","93","19","869.784888542","1","0","2","100","0","left","in","Female","Right-handed","2","0","no","left","s","1042.61957963","1328.72710852","18","green","1"
"100","93","19","865.432701914","1","1","2","101","2","right","in","Female","Right-handed","2","0","no","right","d","727.100502978","873.199301996","18","red","3"
"100","94","19","855.071652683","1","1","2","102","3","left","in","Female","Right-handed","2","0","no","left","d","521.726399418","856.863330562","18","green","2"
"100","94","19","842.950053921","1","1","2","103","3","left","out","Female","Right-handed","2","0","no","left","s","848.353141266","425.412608678","18","red","1"
"100","94","19","831.006932471","1","1","2","104","3","left","in","Female","Right-handed","2","0","no","left","s","743.061878553","488.999614179","18","red","1"
"100","95","19","844.762280763","1","1","2","105","3","left","in","Female","Right-handed","2","0","no","left","s","1371.62795575","840.59984086","18","red","0"
"100","95","19","845.561861487","1","1","2","106","2","left","in","Female","Right-handed","2","0","no","left","d","1010.09676953","713.0101824","18","red","1"
"100","95","19","844.3868802","1","1","2","107","0","right","out","Female","Right-handed","2","0","no","right","d","694.752162184","944.67238417","18","green","0"
"100","95","19","839.648828375","1","1","2","108","1","left","in","Female","Right-handed","2","0","no","left","d","789.419078155","681.404298295","18","red","2"
"100","95","19","857.180839037","1","1","2","109","0","left","in","Female","Right-handed","2","0","no","left","s","1263.94223013","1256.8919384","18","green","2"
"100","96","19","855.212267245","1","1","2","110","2","left","in","Female","Right-handed","2","0","no","left","s","735.392284929","880.540803528","18","red","2"
"100","96","19","846.421563528","1","1","2","111","3","left","out","Female","Right-handed","2","0","no","left","s","700.146278399","553.161662807","18","red","3"
"100","96","19","860.877811276","1","1","2","112","2","left","in","Female","Right-handed","2","0","no","left","d","1696.71686615","776.763639315","18","green","3"
"100","96","19","879.923065131","1","1","2","113","1","right","out","Female","Right-handed","2","0","no","right","d","2195.2519975","593.037840916","18","green","1"
"100","96","19","875.695193987","1","1","2","114","3","left","out","Female","Right-handed","2","0","no","left","d","713.902734003","800.726869908","18","red","3"
"100","96","19","873.068385873","1","1","2","115","3","left","in","Female","Right-handed","2","0","no","left","d","873.485701053","720.296200128","18","red","2"
"100","96","19","876.885540222","1","1","2","116","2","left","in","Female","Right-handed","2","0","no","left","s","1125.9963432","856.803998169","18","green","1"
"100","96","19","884.152081589","1","1","2","117","2","right","out","Female","Right-handed","2","0","no","right","d","1458.53932631","760.290401591","18","red","0"
"100","96","19","900.830129651","1","1","2","118","2","right","out","Female","Right-handed","2","0","no","right","s","2004.04005482","865.015280497","18","red","3"
"100","97","19","899.204778987","1","1","2","119","2","right","in","Female","Right-handed","2","0","no","right","d","1050.56851656","640.567897584","18","red","1"
"100","97","19","903.703495832","1","1","2","120","1","right","out","Female","Right-handed","2","0","no","right","s","1288.13797956","825.181757566","18","green","3"
"100","97","19","908.704972372","1","1","2","121","1","right","in","Female","Right-handed","2","0","no","right","d","1430.74707179","736.766230695","18","green","1"
"100","97","19","913.676804577","1","1","2","122","0","left","out","Female","Right-handed","2","0","no","left","s","1177.24124903","1008.08427894","18","green","1"
"100","97","19","912.378024882","1","1","2","123","0","left","in","Female","Right-handed","2","0","no","left","s","927.834492773","800.81185955","18","green","2"
"100","97","19","909.108536115","1","1","2","124","1","left","out","Female","Right-handed","2","0","no","left","s","817.331280326","752.404645629","18","green","2"
"100","97","19","908.818785886","1","1","2","125","0","left","out","Female","Right-handed","2","0","no","left","d","874.002694653","921.034359228","18","red","2"
"100","95","19","920.471417248","1","0","2","126","3","right","in","Female","Right-handed","2","0","no","right","s","1308.55088811","1464.60245533","18","green","1"
"100","95","19","927.261755744","1","1","2","127","0","right","out","Female","Right-handed","2","0","no","right","s","1594.15553489","817.175733244","18","green","3"
"100","95","19","932.406864684","1","1","2","128","0","right","in","Female","Right-handed","2","0","no","right","d","984.594424615","1312.40845573","18","red","2"
"100","95","19","935.198010706","1","1","2","129","0","right","in","Female","Right-handed","2","0","no","right","d","1358.17489714","752.259682164","18","green","1"
"100","95","19","934.855310746","1","1","2","130","2","right","in","Female","Right-handed","2","0","no","right","d","814.737653011","1024.81537203","18","red","2"
"100","95","19","933.680884265","1","1","2","131","1","right","out","Female","Right-handed","2","0","no","right","d","865.379613455","896.283771757","18","red","2"
"100","95","19","936.270071331","1","1","2","132","0","right","out","Female","Right-handed","2","0","no","right","s","1069.87591833","1040.86943442","18","green","1"
"100","95","19","936.470449369","1","1","2","133","1","right","out","Female","Right-handed","2","0","no","right","d","1107.39740227","784.379031999","18","red","3"
"100","95","19","943.032267337","1","1","2","134","1","right","in","Female","Right-handed","2","0","no","right","s","1570.99377266","945.005286998","18","red","0"
"100","96","19","948.249736131","1","1","2","135","1","right","in","Female","Right-handed","2","0","no","right","s","1607.56850406","800.24291002","18","green","3"
"100","96","19","948.040671798","1","1","2","136","1","right","out","Female","Right-handed","2","0","no","right","s","1083.12051178","792.054398502","18","red","3"
"100","96","19","944.6968079","1","1","2","137","2","right","out","Female","Right-handed","2","0","no","right","s","739.625410557","808.69408764","18","green","3"
"100","96","19","942.103645598","1","1","2","138","2","right","in","Female","Right-handed","2","0","no","right","s","990.329782262","624.188629541","18","green","0"
"100","96","19","935.248321621","1","1","2","139","3","right","out","Female","Right-handed","2","0","no","right","s","702.907960707","440.924340937","18","green","0"
"100","96","19","932.761547898","1","1","2","140","1","left","out","Female","Right-handed","2","0","no","left","s","860.471060705","736.480473068","18","green","2"
"100","96","19","929.054191504","1","1","2","141","3","left","out","Female","Right-handed","2","0","no","left","s","1058.14863053","392.150549049","18","red","2"
"100","96","19","927.767792362","1","1","2","142","0","left","out","Female","Right-handed","2","0","no","left","d","942.709283787","768.749597101","18","green","0"
"100","96","19","926.102573065","1","1","2","143","0","left","out","Female","Right-handed","2","0","no","left","d","742.194342769","920.17580348","18","green","2"
"100","96","19","923.513790036","1","1","2","144","1","left","in","Female","Right-handed","2","0","no","left","d","769.918926295","776.809822364","18","red","2"
"100","96","19","922.612654306","1","1","2","145","0","right","in","Female","Right-handed","2","0","no","right","d","906.513638272","832.377654204","18","green","2"
"100","96","19","939.96210729","1","1","2","146","3","right","in","Female","Right-handed","2","0","no","right","s","2656.93722344","1304.9213493","18","green","3"
"100","96","19","942.212508206","1","1","2","147","0","left","in","Female","Right-handed","2","0","no","left","d","1134.55528127","1024.41864679","18","red","3"
"100","96","19","939.280650415","1","1","2","148","2","left","out","Female","Right-handed","2","0","no","left","s","763.004297269","752.006637531","18","red","2"
"100","96","19","933.402509524","1","1","2","149","3","left","in","Female","Right-handed","2","0","no","left","s","581.597272892","544.561993849","18","green","2"
"100","100","19","1111.73411904","1","1","3","150","1","right","out","Female","Right-handed","2","0","no","right","s","1590.71072829","632.757509799","18","red","3"
"100","100","19","1129.2811127","1","1","3","151","1","right","out","Female","Right-handed","2","0","no","right","s","1548.31180102","745.344411707","18","green","1"
"100","100","19","1128.80586559","1","1","3","152","2","left","in","Female","Right-handed","2","0","no","left","d","1494.85203303","760.858709689","18","green","3"
"100","100","19","1021.96412988","1","1","3","153","2","left","out","Female","Right-handed","2","0","no","left","d","697.500374436","705.377471073","18","green","3"
"100","100","19","973.27040465","1","1","3","154","3","right","in","Female","Right-handed","2","0","no","right","s","1163.98126123","393.009746227","18","green","2"
"100","100","19","968.737923052","1","1","3","155","2","right","out","Female","Right-handed","2","0","no","right","s","1059.67587837","832.475151754","18","green","1"
"100","100","19","931.15976408","1","1","3","156","3","left","in","Female","Right-handed","2","0","no","left","s","842.177441054","569.204179437","18","red","1"
"100","100","19","888.112999823","1","1","3","157","0","right","out","Female","Right-handed","2","0","no","right","s","660.819486169","512.751813887","18","green","2"
"100","100","19","841.362734262","1","1","3","158","0","right","out","Female","Right-handed","2","0","no","right","s","574.431844239","360.289375299","18","red","0"
"100","100","19","858.47744423","1","1","3","159","1","left","out","Female","Right-handed","2","0","no","left","s","680.030352527","1344.98931536","18","green","2"
"100","100","19","878.851754651","1","1","3","160","1","left","out","Female","Right-handed","2","0","no","left","d","1092.65153894","1072.53817879","18","green","3"
"100","100","19","895.591814418","1","1","3","161","2","right","in","Female","Right-handed","2","0","no","right","s","646.245205702","1513.219738","18","green","2"
"100","100","19","886.023437257","1","1","3","162","0","right","in","Female","Right-handed","2","0","no","right","s","997.675132383","544.730690273","18","green","1"
"100","100","19","857.763144083","1","1","3","163","3","right","in","Female","Right-handed","2","0","no","right","s","596.344098369","384.414567288","18","green","2"
"100","100","19","861.609483604","1","1","3","164","0","left","out","Female","Right-handed","2","0","no","left","d","1022.00494095","808.911532839","18","red","0"
"100","100","19","848.860112501","1","1","3","165","1","left","in","Female","Right-handed","2","0","no","left","s","650.682627187","664.556464713","18","red","2"
"100","100","19","850.965200298","1","1","3","166","2","right","out","Female","Right-handed","2","0","no","right","d","1080.09006978","689.20314032","18","green","1"
"100","100","19","845.951079178","1","1","3","167","1","left","out","Female","Right-handed","2","0","no","left","s","632.76328268","888.658757605","18","green","2"
"100","100","19","844.17347387","1","1","3","168","1","left","out","Female","Right-handed","2","0","no","left","s","832.099914463","792.253242194","18","red","1"
"100","100","19","841.080505397","1","1","3","169","1","right","in","Female","Right-handed","2","0","no","right","s","779.945138383","784.683070417","18","red","1"
"100","100","19","853.955631008","1","1","3","170","0","left","out","Female","Right-handed","2","0","no","left","d","1342.49927919","880.417007294","18","green","3"
"100","100","19","860.160243525","1","1","3","171","3","right","out","Female","Right-handed","2","0","no","right","d","1299.95859561","680.955617127","18","red","3"
"100","100","19","853.918017638","1","1","3","172","2","right","out","Female","Right-handed","2","0","no","right","d","592.64913357","840.528962706","18","red","2"
"100","100","19","852.075219896","1","1","3","173","2","right","out","Female","Right-handed","2","0","no","right","s","843.175828817","776.20591483","18","green","1"
"100","100","19","855.519859193","1","1","3","174","3","right","in","Female","Right-handed","2","0","no","right","d","979.622049457","896.760355186","18","green","1"
"100","100","19","852.684153004","1","1","3","175","1","left","in","Female","Right-handed","2","0","no","left","s","851.343814535","712.239182021","18","red","2"
"100","100","19","846.61890712","1","1","3","176","2","right","in","Female","Right-handed","2","0","no","right","d","528.9293518","848.915676485","18","green","2"
"100","100","19","841.225494061","1","1","3","177","2","left","out","Female","Right-handed","2","0","no","left","d","470.55237174","920.654311203","18","red","2"
"100","100","19","851.498769951","1","1","3","178","3","left","in","Female","Right-handed","2","0","no","left","s","1726.19736776","552.103621938","18","green","0"
"100","100","19","852.689243337","1","1","3","179","1","left","in","Female","Right-handed","2","0","no","left","d","917.61841703","856.807526041","18","green","0"
"100","100","19","853.498770113","1","1","3","180","1","right","out","Female","Right-handed","2","0","no","right","s","923.297970157","832.271176614","18","red","0"
"100","100","19","875.195220608","1","1","3","181","3","left","out","Female","Right-handed","2","0","no","left","d","878.831709924","2216.73866198","18","red","2"
"100","100","19","866.985256829","1","1","3","182","0","right","in","Female","Right-handed","2","0","no","right","s","632.329354428","576.203477391","18","red","2"
"100","97","19","884.54373551","1","0","3","183","0","left","out","Female","Right-handed","2","0","no","left","d","1024.13256845","1903.81449551","18","green","3"
"100","97","19","882.943156041","1","1","3","184","0","right","in","Female","Right-handed","2","0","no","right","d","944.597336713","712.449571476","18","red","3"
"100","97","19","883.58533475","1","1","3","185","2","right","out","Female","Right-handed","2","0","no","right","d","964.032062584","848.091116593","18","red","0"
"100","97","19","879.899476279","1","1","3","186","3","right","in","Female","Right-handed","2","0","no","right","d","621.700517666","872.716624968","18","red","2"
"100","97","19","884.460927578","1","1","3","187","1","left","out","Female","Right-handed","2","0","no","left","s","642.268331865","1464.20091936","18","red","2"
"100","97","19","877.854542846","1","1","3","188","3","right","in","Female","Right-handed","2","0","no","right","s","836.754460433","416.869385672","18","red","0"
"100","97","19","872.856288608","1","1","3","189","2","right","in","Female","Right-handed","2","0","no","right","d","627.491038402","728.357708256","18","red","2"
"100","97","19","870.824164158","1","1","3","190","0","left","out","Female","Right-handed","2","0","no","left","d","811.043329644","768.035042673","18","green","2"
"100","97","19","872.200673695","1","1","3","191","0","left","in","Female","Right-handed","2","0","no","left","d","1280.68903829","576.586091142","18","red","3"
"100","97","19","869.155178564","1","1","3","192","3","left","in","Female","Right-handed","2","0","no","left","s","658.284549812","824.20421632","18","green","3"
"100","97","19","869.381586934","1","1","3","193","1","right","out","Female","Right-handed","2","0","no","right","d","1045.49255026","712.741743417","18","green","3"
"100","97","19","871.448216025","1","1","3","194","2","left","in","Female","Right-handed","2","0","no","left","d","804.323054292","1120.43673772","18","red","2"
"100","97","19","873.069694533","1","1","3","195","1","left","out","Female","Right-handed","2","0","no","left","s","956.063241274","936.00921352","18","green","1"
"100","97","19","878.801576302","1","1","3","196","1","left","out","Female","Right-handed","2","0","no","left","d","644.454650328","1640.48162508","18","red","2"
"100","97","19","880.972486768","1","1","3","197","2","left","out","Female","Right-handed","2","0","no","left","s","1254.0382107","711.972346615","18","red","3"
"100","97","19","882.36224578","1","1","3","198","2","right","in","Female","Right-handed","2","0","no","right","d","1201.69357097","696.447785731","18","red","3"
"100","98","19","878.2899218","1","1","3","199","3","right","in","Female","Right-handed","2","0","no","right","s","701.238956559","656.253137","18","red","2"
"100","98","19","874.290467759","1","1","3","200","1","left","in","Female","Right-handed","2","0","no","left","s","915.748644897","432.886886481","18","green","3"
"100","96","19","869.621608102","1","0","3","201","0","left","in","Female","Right-handed","2","0","no","left","s","606.527140401","656.492390861","18","green","2"
"100","96","19","870.647866938","1","1","3","202","3","left","in","Female","Right-handed","2","0","no","left","d","839.968672497","1008.05798025","18","green","3"
"100","96","19","870.332071579","1","1","3","203","2","right","in","Female","Right-handed","2","0","no","right","d","1194.57977753","512.610057578","18","green","1"
"100","96","19","868.62158783","1","1","3","204","3","right","out","Female","Right-handed","2","0","no","right","d","760.245501402","792.265429389","18","red","3"
"100","96","19","870.972035017","1","1","3","205","0","right","out","Female","Right-handed","2","0","no","right","d","1216.73641697","783.75684367","18","red","1"
"100","96","19","871.504800953","1","1","3","206","0","left","in","Female","Right-handed","2","0","no","left","d","914.307348847","888.372037831","18","red","1"
"100","96","19","870.056670342","1","1","3","207","3","right","in","Female","Right-handed","2","0","no","right","s","895.030735783","679.99571524","18","green","1"
"100","96","19","871.378009561","1","1","3","208","2","left","in","Female","Right-handed","2","0","no","left","s","1095.47928867","800.552079889","18","red","0"
"100","96","19","870.757397226","1","1","3","209","0","right","out","Female","Right-handed","2","0","no","right","d","868.125901412","800.156637515","18","green","1"
"100","96","19","871.115962166","1","1","3","210","0","left","out","Female","Right-handed","2","0","no","left","s","969.692372771","815.567344349","18","red","2"
"100","96","19","870.159266969","1","1","3","211","0","right","out","Female","Right-handed","2","0","no","right","s","743.351484769","880.250235165","18","green","2"
"100","95","19","865.845116922","1","0","3","212","3","left","in","Female","Right-handed","2","0","no","left","s","860.960152044","335.775475965","18","red","1"
"100","95","19","864.722627482","1","1","3","213","3","left","in","Female","Right-handed","2","0","no","left","d","644.602500233","943.409085297","18","green","2"
"100","100","19","1227.0916833","1","1","4","214","2","right","out","Female","Right-handed","2","0","no","right","d","1813.66550065","640.517865944","18","red","1"
"100","100","19","892.430373438","1","1","4","215","3","right","in","Female","Right-handed","2","0","no","right","s","675.325774921","440.212352234","18","red","3"
"100","100","19","831.401128555","1","1","4","216","3","left","out","Female","Right-handed","2","0","no","left","d","681.809362139","736.875915443","18","red","3"
"100","100","19","789.813959276","1","1","4","217","2","left","in","Female","Right-handed","2","0","no","left","d","681.555676074","648.549226802","18","green","3"
"100","100","19","921.174896818","1","1","4","218","1","right","out","Female","Right-handed","2","0","no","right","s","2108.2248486","785.012445371","18","red","1"
"100","100","19","899.576345341","1","1","4","219","0","left","in","Female","Right-handed","2","0","no","left","d","750.667329052","832.499846858","18","green","2"
"100","100","19","900.66685485","1","1","4","220","0","right","in","Female","Right-handed","2","0","no","right","s","1086.19681613","728.223007691","18","green","2"
"100","100","19","917.995017362","1","1","4","221","3","right","out","Female","Right-handed","2","0","no","right","d","1093.84524252","984.739067366","18","red","0"
"100","100","19","895.632986287","1","1","4","222","0","right","in","Female","Right-handed","2","0","no","right","d","809.157842443","624.315632931","18","green","3"
"100","100","19","906.269044495","1","1","4","223","0","right","in","Female","Right-handed","2","0","no","right","s","1242.98891575","760.998220991","18","red","3"
"100","100","19","920.743790865","1","1","4","224","1","right","out","Female","Right-handed","2","0","no","right","s","1666.46087414","464.521634995","18","green","1"
"100","100","19","917.978166428","1","1","4","225","1","right","in","Female","Right-handed","2","0","no","right","s","967.069560334","808.043034906","18","red","1"
"100","100","19","920.06811704","1","1","4","226","1","left","out","Female","Right-handed","2","0","no","left","d","1185.69819953","704.596849226","18","red","0"
"100","100","19","916.896875583","1","1","4","227","3","left","out","Female","Right-handed","2","0","no","left","s","871.266990311","880.074482999","18","red","2"
"100","100","19","904.431648603","1","1","4","228","2","left","out","Female","Right-handed","2","0","no","left","d","442.944849419","1016.89209234","18","red","2"
"100","100","19","892.053322101","1","1","4","229","2","right","in","Female","Right-handed","2","0","no","right","d","660.385878635","752.370970487","18","red","2"
"100","100","19","878.587447239","1","1","4","230","2","right","out","Female","Right-handed","2","0","no","right","s","582.094061405","744.172837503","18","green","2"
"100","100","19","876.455607985","1","1","4","231","1","right","out","Female","Right-handed","2","0","no","right","s","887.699817866","792.728863478","18","green","3"
"100","100","19","881.361835545","1","1","4","232","1","right","out","Female","Right-handed","2","0","no","right","s","1371.09396423","568.25389902","18","red","3"
"100","100","19","882.833920296","1","1","4","233","1","left","out","Female","Right-handed","2","0","no","left","d","940.704169658","880.902891477","18","red","1"
"100","95","19","901.789420651","1","0","4","234","2","left","out","Female","Right-handed","2","0","no","left","s","1601.47009631","960.32875918","18","green","3"
"100","90","19","893.818846166","1","0","4","235","0","right","in","Female","Right-handed","2","0","no","right","s","860.983885001","591.889678953","18","green","3"
"100","91","19","906.023577814","1","1","4","236","3","left","out","Female","Right-handed","2","0","no","left","s","980.566877708","1368.48847043","18","red","0"
"100","91","19","900.276280481","1","1","4","237","3","left","in","Female","Right-handed","2","0","no","left","d","568.054093181","968.122790469","18","red","3"
"100","92","19","906.530770901","1","1","4","238","2","right","out","Female","Right-handed","2","0","no","right","d","1272.57108422","840.705997734","18","red","1"
"100","92","19","905.36114048","1","1","4","239","1","left","in","Female","Right-handed","2","0","no","left","d","1024.00460291","728.236157031","18","red","2"
"100","92","19","903.043429802","1","1","4","240","3","left","out","Female","Right-handed","2","0","no","left","d","797.870255774","887.695648562","18","green","1"
"100","92","19","893.146016008","1","1","4","241","2","left","in","Female","Right-handed","2","0","no","left","d","475.427570063","776.40411709","18","red","2"
"100","93","19","892.436478094","1","1","4","242","1","left","in","Female","Right-handed","2","0","no","left","s","921.087277307","824.051555679","18","red","0"
"100","93","19","882.790612995","1","1","4","243","3","left","out","Female","Right-handed","2","0","no","left","s","597.69559404","608.425456225","18","green","2"
"100","93","19","891.157613452","1","1","4","244","3","right","in","Female","Right-handed","2","0","no","right","d","1604.19168917","680.143565147","18","green","2"
"100","93","19","900.721243353","1","1","4","245","3","right","in","Female","Right-handed","2","0","no","right","d","1561.70681011","832.680730475","18","green","1"
"100","93","19","903.262713986","1","1","4","246","1","right","out","Female","Right-handed","2","0","no","right","s","665.034972435","1304.14457604","18","green","2"
"100","94","19","901.354630197","1","1","4","247","3","right","in","Female","Right-handed","2","0","no","right","s","541.017765401","1135.75796489","18","red","2"
"100","94","19","901.75509797","1","1","4","248","0","right","out","Female","Right-handed","2","0","no","right","s","942.379267402","888.362737078","18","green","3"
"100","94","19","899.666417435","1","1","4","249","2","left","out","Female","Right-handed","2","0","no","left","s","829.076528203","824.048669238","18","red","3"
"100","94","19","898.071445024","1","1","4","250","2","left","in","Female","Right-handed","2","0","no","left","s","816.611273731","864.693602716","18","green","1"
"100","94","19","893.970956296","1","1","4","251","2","left","in","Female","Right-handed","2","0","no","left","s","1076.17990479","408.32584195","18","green","0"
"100","94","19","888.044784533","1","1","4","252","3","left","in","Female","Right-handed","2","0","no","left","s","805.83490778","519.865607321","18","red","1"
"100","95","19","884.131599887","1","1","4","253","0","left","out","Female","Right-handed","2","0","no","left","s","718.523925547","744.51087178","18","red","2"
"100","95","19","880.469999685","1","1","4","254","2","right","in","Female","Right-handed","2","0","no","right","s","724.096038937","743.915944282","18","green","2"
"100","95","19","880.771554606","1","1","4","255","3","right","in","Female","Right-handed","2","0","no","right","s","1034.58950163","751.681111164","18","red","1"
"100","93","19","876.944152989","1","0","4","256","0","left","out","Female","Right-handed","2","0","no","left","s","672.186931032","760.199639066","18","green","2"
"100","93","19","874.904700079","1","1","4","257","3","left","out","Female","Right-handed","2","0","no","left","s","702.778070876","871.638379012","18","green","3"
"100","93","19","878.049010551","1","1","4","258","1","right","out","Female","Right-handed","2","0","no","right","s","1192.47107225","840.326270427","18","red","2"
"100","93","19","883.186822531","1","1","4","259","2","left","in","Female","Right-handed","2","0","no","left","s","1028.84291893","1199.93380429","18","green","0"
"100","93","19","884.013624983","1","1","4","260","3","left","in","Female","Right-handed","2","0","no","left","d","884.512866629","959.580208895","18","green","2"
"100","91","19","902.42110636","1","0","4","261","0","right","out","Female","Right-handed","2","0","no","right","d","1247.17682047","2287.96864171","18","green","0"
"100","89","19","918.991832636","1","0","4","262","0","left","in","Female","Right-handed","2","0","no","left","s","1636.3357341","1792.43765368","18","green","0"
"100","90","19","916.912246109","1","1","4","263","2","right","out","Female","Right-handed","2","0","no","right","d","758.13102324","871.893989373","18","red","3"
"100","88","19","924.895259777","1","0","4","264","1","left","in","Female","Right-handed","2","0","no","left","d","1408.53911785","1239.55276847","18","red","3"
"100","86","19","923.986429436","1","0","4","265","0","left","out","Female","Right-handed","2","0","no","left","d","851.212641839","904.059522256","18","green","1"
"100","86","19","923.950629495","1","1","4","266","0","left","out","Female","Right-handed","2","0","no","left","d","740.68473429","1103.49333088","18","green","1"
"100","87","19","925.073353901","1","1","4","267","1","right","in","Female","Right-handed","2","0","no","right","d","1369.14561676","600.009878042","18","red","2"
"100","87","19","920.739665296","1","1","4","268","1","left","in","Female","Right-handed","2","0","no","left","d","645.768622273","727.67233895","18","red","2"
"100","87","19","917.88716814","1","1","4","269","1","right","in","Female","Right-handed","2","0","no","right","d","922.694062623","599.305586513","18","green","3"
"100","87","19","919.809945717","1","1","4","270","2","left","out","Female","Right-handed","2","0","no","left","s","751.134611726","1303.83636832","18","green","1"
"100","87","19","917.366237776","1","1","4","271","1","left","in","Female","Right-handed","2","0","no","left","d","740.522131464","815.627638889","18","red","2"
"100","88","19","914.830262094","1","1","4","272","2","right","in","Female","Right-handed","2","0","no","right","d","567.174370204","968.312974839","18","red","2"
"100","88","19","917.354738001","1","1","4","273","0","right","out","Female","Right-handed","2","0","no","right","d","988.834605987","1143.76302707","18","green","1"
"100","88","19","914.901492956","1","1","4","274","3","left","in","Female","Right-handed","2","0","no","left","d","704.260418526","831.153161918","18","green","2"
"100","88","19","915.328605702","1","1","4","275","0","right","in","Female","Right-handed","2","0","no","right","s","930.917211428","951.847755008","18","green","1"
"100","88","19","910.73563303","1","1","4","276","0","right","out","Female","Right-handed","2","0","no","right","d","732.409308835","519.533345927","18","red","2"
"100","89","19","910.899334339","1","1","4","277","0","right","out","Female","Right-handed","2","0","no","right","s","970.239513641","872.185519882","18","green","2"
"100","0","19","1021.26713463","1","0","5","278","1","left","in","Female","Right-handed","2","0","no","left","d","946.344595477","1096.18967379","18","green","3"
"100","50","19","1020.73121881","1","1","5","279","3","left","out","Female","Right-handed","2","0","no","left","s","751.777325853","1288.61328013","18","red","3"
"100","66","19","845.650844802","1","1","5","280","3","right","in","Female","Right-handed","2","0","no","right","s","630.516990392","360.463203173","18","green","2"
"100","75","19","797.273163446","1","1","5","281","3","left","in","Female","Right-handed","2","0","no","left","s","856.076935832","448.203302922","18","red","1"
"100","80","19","792.461995999","1","1","5","282","1","right","in","Female","Right-handed","2","0","no","right","s","1137.63832064","408.796331783","18","red","2"
"100","83","19","807.093128657","1","1","5","283","1","left","in","Female","Right-handed","2","0","no","left","d","944.225948011","816.271635878","18","red","0"
"100","85","19","800.91558815","1","1","5","284","0","right","in","Female","Right-handed","2","0","no","right","d","671.871026134","855.829664079","18","green","0"
"100","87","19","795.162754364","1","1","5","285","0","right","out","Female","Right-handed","2","0","no","right","d","981.43313063","528.352705093","18","red","3"
"100","88","19","801.867031798","1","1","5","286","2","left","out","Female","Right-handed","2","0","no","left","s","871.071995207","839.930507336","18","red","1"
"100","80","19","818.142851232","1","0","5","287","1","left","out","Female","Right-handed","2","0","no","left","d","848.625108121","1080.62534417","18","green","2"
"100","81","19","803.062889682","1","1","5","288","0","left","out","Female","Right-handed","2","0","no","left","d","592.214563891","712.311984469","18","green","2"
"100","83","19","796.711737369","1","1","5","289","2","left","in","Female","Right-handed","2","0","no","left","d","557.806587307","895.89153654","18","red","2"
"100","84","19","778.726529999","1","1","5","290","2","left","out","Female","Right-handed","2","0","no","left","d","469.368610342","656.439472783","18","green","2"
"100","85","19","795.035427394","1","1","5","291","0","right","out","Female","Right-handed","2","0","no","right","s","1102.0392062","912.062980853","18","green","1"
"100","80","19","807.836376444","1","0","5","292","3","right","in","Female","Right-handed","2","0","no","right","s","957.495557288","1016.60376899","18","red","0"
"100","81","19","813.917583138","1","1","5","293","2","right","out","Female","Right-handed","2","0","no","right","s","994.215893575","816.05547354","18","red","1"
"100","82","19","806.138295335","1","1","5","294","2","right","out","Female","Right-handed","2","0","no","right","s","611.695152095","751.644228867","18","green","2"
"100","83","19","807.868752687","1","1","5","295","2","right","in","Female","Right-handed","2","0","no","right","s","978.257083725","696.315971605","18","red","3"
"100","84","19","805.551817155","1","1","5","296","0","left","in","Female","Right-handed","2","0","no","left","d","919.864388603","607.829566581","18","green","1"
"100","85","19","800.471884945","1","1","5","297","2","left","out","Female","Right-handed","2","0","no","left","d","712.450212907","695.456132996","18","red","3"
"100","85","19","799.788196342","1","1","5","298","0","left","in","Female","Right-handed","2","0","no","left","s","836.116877757","736.111970806","18","green","1"
"100","86","19","799.308986099","1","1","5","299","3","left","in","Female","Right-handed","2","0","no","left","d","810.662319473","767.828822521","18","red","3"
"100","86","19","798.583171763","1","1","5","300","1","left","in","Female","Right-handed","2","0","no","left","d","763.857080134","801.373432623","18","green","0"
"100","87","19","797.453251955","1","1","5","301","2","left","in","Female","Right-handed","2","0","no","left","d","806.920209479","736.009983236","18","green","0"
"100","88","19","801.934960794","1","1","5","302","0","left","out","Female","Right-handed","2","0","no","left","d","978.496337588","840.495608281","18","green","3"
"100","88","19","805.956705709","1","1","5","303","3","right","out","Female","Right-handed","2","0","no","right","d","1012.96909873","800.031558418","18","red","1"
"100","88","19","819.147611733","1","1","5","304","0","right","in","Female","Right-handed","2","0","no","right","d","924.609376379","1399.61296037","18","red","3"
"100","89","19","814.150371144","1","1","5","305","2","right","out","Female","Right-handed","2","0","no","right","s","982.231712554","376.218037881","18","green","1"
"100","89","19","814.758101396","1","1","5","306","1","right","out","Female","Right-handed","2","0","no","right","d","935.794334046","727.754762867","18","green","3"
"100","90","19","811.827741282","1","1","5","307","0","left","in","Female","Right-handed","2","0","no","left","s","693.361539205","760.333056771","18","green","0"
"100","90","19","810.44461046","1","1","5","308","2","left","out","Female","Right-handed","2","0","no","left","s","1041.98937341","495.911998196","18","green","1"
"100","90","19","810.418345079","1","1","5","309","0","right","out","Female","Right-handed","2","0","no","right","d","891.636922964","727.571313526","18","red","2"
"100","90","19","809.196785096","1","1","5","310","3","right","in","Female","Right-handed","2","0","no","right","d","708.11060969","832.103121622","18","red","2"
"100","91","19","807.314845347","1","1","5","311","3","right","in","Female","Right-handed","2","0","no","right","d","826.813879419","663.607787872","18","red","2"
"100","91","19","819.471544025","1","1","5","312","3","right","in","Female","Right-handed","2","0","no","right","s","1602.33795281","863.260645274","18","red","0"
"100","91","19","815.082048146","1","1","5","313","0","right","out","Female","Right-handed","2","0","no","right","s","834.936644231","487.962740541","18","green","1"
"100","91","19","820.850219914","1","1","5","314","2","left","out","Female","Right-handed","2","0","no","left","s","1273.50180098","783.507006192","18","red","0"
"100","92","19","818.69664273","1","1","5","315","1","left","in","Female","Right-handed","2","0","no","left","d","790.059547271","687.969026567","18","red","2"
"100","92","19","817.310195329","1","1","5","316","2","right","out","Female","Right-handed","2","0","no","right","s","785.685627481","743.564760665","18","red","3"
"100","92","19","811.070201605","1","1","5","317","3","left","out","Female","Right-handed","2","0","no","left","s","704.249193481","431.171699283","18","red","2"
"100","92","19","814.589036514","1","1","5","318","1","right","in","Female","Right-handed","2","0","no","right","d","1142.81018093","767.874684856","18","green","1"
"100","92","19","810.763638887","1","1","5","319","2","right","in","Female","Right-handed","2","0","no","right","d","604.486106118","703.35856617","18","green","2"
"100","93","19","808.29458411","1","1","5","320","2","left","out","Female","Right-handed","2","0","no","left","s","593.027578018","816.160988985","18","green","2"
"100","93","19","803.1682229","1","1","5","321","0","left","in","Female","Right-handed","2","0","no","left","s","581.729087017","583.740294746","18","red","2"
"100","93","19","804.714102861","1","1","5","322","1","left","in","Female","Right-handed","2","0","no","left","d","1074.21648369","671.249158522","18","green","1"
"100","93","19","813.500203118","1","1","5","323","3","right","in","Female","Right-handed","2","0","no","right","d","1217.86212884","1199.88730053","18","green","1"
"100","93","19","812.316348932","1","1","5","324","3","right","out","Female","Right-handed","2","0","no","right","s","780.405686032","735.312426738","18","green","3"
"100","93","19","815.904573496","1","1","5","325","3","right","in","Female","Right-handed","2","0","no","right","s","1089.01237866","880.089877348","18","green","2"
"100","93","19","826.224194639","1","1","5","326","0","left","out","Female","Right-handed","2","0","no","left","d","891.635640102","1751.49637896","18","red","2"
"100","94","19","829.281144775","1","1","5","327","3","left","out","Female","Right-handed","2","0","no","left","s","686.031583434","1272.11181943","18","green","3"
"100","92","19","832.475110879","1","0","5","328","0","left","in","Female","Right-handed","2","0","no","left","d","880.654657576","1103.69217457","18","red","2"
"100","92","19","831.836828965","1","1","5","329","1","left","out","Female","Right-handed","2","0","no","left","d","783.320670413","815.248232295","18","green","2"
"100","90","19","830.288675959","1","0","5","330","0","right","out","Female","Right-handed","2","0","no","right","s","1083.80716395","415.762275312","18","green","3"
"100","90","19","831.984652831","1","1","5","331","2","left","in","Female","Right-handed","2","0","no","left","d","1084.44378448","759.29906957","18","green","3"
"100","89","19","832.201732932","1","0","5","332","3","right","in","Female","Right-handed","2","0","no","right","d","880.814373963","807.033742812","18","green","1"
"100","89","19","838.420752817","1","1","5","333","1","left","out","Female","Right-handed","2","0","no","left","d","1721.42159128","639.512101723","18","red","3"
"100","89","19","833.527732019","1","1","5","334","0","left","in","Female","Right-handed","2","0","no","left","s","664.03466038","455.002474322","18","red","2"
"100","89","19","831.19244682","1","1","5","335","2","right","in","Female","Right-handed","2","0","no","right","d","724.503989222","671.658391668","18","green","2"
"100","89","19","828.261040759","1","1","5","336","1","right","out","Female","Right-handed","2","0","no","right","s","741.136622613","575.34235592","18","green","3"
"100","90","19","824.486828263","1","1","5","337","3","right","out","Female","Right-handed","2","0","no","right","s","699.895478776","503.72110312","18","red","2"
"100","88","19","823.036398695","1","0","5","338","1","right","in","Female","Right-handed","2","0","no","right","s","696.577675562","775.443573773","18","red","2"
"100","88","19","829.755271109","1","1","5","339","1","right","out","Female","Right-handed","2","0","no","right","s","928.191769988","1551.02120668","18","red","1"
"100","88","19","828.553227196","1","1","5","340","1","right","out","Female","Right-handed","2","0","no","right","d","700.569623034","807.483386128","18","red","2"
"100","89","19","831.320638119","1","1","5","341","1","left","out","Female","Right-handed","2","0","no","left","s","1092.10568093","919.229371652","18","red","1"
"100","0","19","1187.05450594","1","0","6","342","2","left","out","Female","Right-handed","2","0","no","left","d","1214.13637534","1159.97263654","18","red","3"
"100","50","19","955.01794885","1","1","6","343","3","right","in","Female","Right-handed","2","0","no","right","d","750.390230746","695.572552771","18","red","2"
"100","66","19","863.274382593","1","1","6","344","1","left","out","Female","Right-handed","2","0","no","left","s","551.311454326","808.26304583","18","green","2"
"100","75","19","919.416789848","1","1","6","345","1","left","out","Female","Right-handed","2","0","no","left","s","1423.87670152","751.81132171","18","red","1"
"100","80","19","903.29188939","1","1","6","346","0","right","out","Female","Right-handed","2","0","no","right","d","1005.38866405","672.195911067","18","red","1"
"100","83","19","901.817399272","1","1","6","347","1","left","out","Female","Right-handed","2","0","no","left","d","580.974122419","1207.91577494","18","red","2"
"100","85","19","915.420644438","1","1","6","348","2","right","in","Female","Right-handed","2","0","no","right","s","1218.52504805","775.555182814","18","red","3"
"100","87","19","916.991598373","1","1","6","349","1","left","in","Female","Right-handed","2","0","no","left","d","1239.97418881","616.002363033","18","red","1"
"100","88","19","930.622919202","1","1","6","350","2","left","in","Female","Right-handed","2","0","no","left","s","1207.72142127","871.625550387","18","green","3"
"100","80","19","940.986335269","1","0","6","351","1","right","out","Female","Right-handed","2","0","no","right","d","972.28439651","1096.22976325","18","green","3"
"100","81","19","919.336738498","1","1","6","352","2","right","in","Female","Right-handed","2","0","no","right","s","821.913985992","583.767555574","18","green","2"
"100","83","19","890.633296847","1","1","6","353","3","right","in","Female","Right-handed","2","0","no","right","s","678.312278887","471.478598487","18","red","3"
"100","84","19","885.854481795","1","1","6","354","1","right","in","Female","Right-handed","2","0","no","right","d","1056.97256631","600.044836044","18","red","1"
"100","85","19","872.908470187","1","1","6","355","1","right","out","Female","Right-handed","2","0","no","right","s","673.618605611","735.602032953","18","green","2"
"100","86","19","857.232720136","1","1","6","356","2","right","out","Female","Right-handed","2","0","no","right","s","603.23916374","672.305275098","18","red","2"
"100","87","19","861.830915031","1","1","6","357","3","left","in","Female","Right-handed","2","0","no","left","d","1069.82909385","791.77858306","18","red","1"
"100","88","19","853.096270777","1","1","6","358","3","left","out","Female","Right-handed","2","0","no","left","d","731.215605252","695.468320191","18","red","1"
"100","88","19","853.89479558","1","1","6","359","3","right","in","Female","Right-handed","2","0","no","right","s","1134.91319992","600.026234539","18","green","0"
"100","89","19","853.695394387","1","1","6","360","0","right","out","Female","Right-handed","2","0","no","right","d","884.657188664","815.555157154","18","green","2"
"100","90","19","850.296309173","1","1","6","361","1","right","out","Female","Right-handed","2","0","no","right","s","796.281109817","775.146270382","18","green","0"
"100","90","19","841.959804954","1","1","6","362","2","left","out","Female","Right-handed","2","0","no","left","s","718.723731385","631.735709792","18","green","1"
"100","90","19","836.954922281","1","1","6","363","0","left","in","Female","Right-handed","2","0","no","left","s","736.369184744","727.335587537","18","red","2"
"100","91","19","844.344370167","1","1","6","364","1","right","in","Female","Right-handed","2","0","no","right","d","821.876141547","1191.94830577","18","green","2"
"100","91","19","847.936952599","1","1","6","365","2","left","in","Female","Right-handed","2","0","no","left","d","493.536457511","1367.59623954","18","red","2"
"100","92","19","848.524390584","1","1","6","366","3","right","out","Female","Right-handed","2","0","no","right","s","686.180395489","1039.06540899","18","red","3"
"100","92","19","849.874357184","1","1","6","367","1","right","in","Female","Right-handed","2","0","no","right","d","927.600370361","839.646674003","18","green","3"
"100","92","19","851.869081408","1","1","6","368","1","left","out","Female","Right-handed","2","0","no","left","s","976.223105188","831.240717287","18","green","0"
"100","92","19","844.099638741","1","1","6","369","3","left","out","Female","Right-handed","2","0","no","left","d","588.757890808","679.891482658","18","green","2"
"100","93","19","833.318523275","1","1","6","370","2","left","out","Female","Right-handed","2","0","no","left","s","487.457292703","575.437287747","18","green","2"
"100","93","19","831.031156348","1","1","6","371","2","left","in","Female","Right-handed","2","0","no","left","s","1018.17046485","511.224566048","18","green","1"
"100","93","19","829.601958691","1","1","6","372","2","left","out","Female","Right-handed","2","0","no","left","s","741.714872899","831.737185086","18","green","1"
"100","93","19","828.998824818","1","1","6","373","2","right","in","Female","Right-handed","2","0","no","right","s","909.304826417","711.298523073","18","green","2"
"100","93","19","823.846773889","1","1","6","374","2","right","in","Female","Right-handed","2","0","no","right","s","742.019552749","575.942735582","18","red","0"
"100","94","19","830.161485603","1","1","6","375","2","left","out","Female","Right-handed","2","0","no","left","d","1141.56195568","935.531988658","18","red","3"
"100","94","19","826.772204712","1","1","6","376","3","right","out","Female","Right-handed","2","0","no","right","d","695.982106633","727.091202225","18","green","2"
"100","94","19","828.714658518","1","1","6","377","0","right","in","Female","Right-handed","2","0","no","right","d","881.659459652","911.74162379","18","red","3"
"100","94","19","824.13448234","1","1","6","378","0","right","out","Female","Right-handed","2","0","no","right","s","823.338604831","495.15767503","18","red","1"
"100","94","19","822.521615516","1","1","6","379","0","right","in","Female","Right-handed","2","0","no","right","d","869.785604808","655.905481255","18","red","2"
"100","92","19","826.570797528","1","0","6","380","3","left","in","Female","Right-handed","2","0","no","left","s","1185.5189195","775.360508423","18","red","0"
"100","92","19","826.482071034","1","1","6","381","3","left","in","Female","Right-handed","2","0","no","left","s","791.0633872","854.98008837","18","green","2"
"100","92","19","826.499042269","1","1","6","382","0","right","out","Female","Right-handed","2","0","no","right","d","1022.75477409","631.601009227","18","red","1"
"100","90","19","827.253740907","1","0","6","383","1","left","in","Female","Right-handed","2","0","no","left","d","757.222115139","959.170655034","18","red","1"
"100","90","19","828.032363877","1","1","6","384","3","right","out","Female","Right-handed","2","0","no","right","d","841.709196233","879.759860963","18","green","2"
"100","90","19","829.348272744","1","1","6","385","0","left","out","Female","Right-handed","2","0","no","left","s","716.396939475","1055.46776856","18","green","0"
"100","91","19","830.239660458","1","1","6","386","0","right","in","Female","Right-handed","2","0","no","right","s","1108.01574201","630.905697737","18","green","1"
"100","91","19","831.431741792","1","1","6","387","2","right","in","Female","Right-handed","2","0","no","right","d","546.682244894","1223.4685588","18","red","2"
"100","91","19","831.573272102","1","1","6","388","0","left","out","Female","Right-handed","2","0","no","left","s","1189.12889465","487.038438088","18","red","3"
"100","91","19","830.845478701","1","1","6","389","3","left","in","Female","Right-handed","2","0","no","left","d","929.612540238","663.665837403","18","green","1"
"100","91","19","832.944663077","1","1","6","390","0","right","out","Female","Right-handed","2","0","no","right","s","924.307903684","943.103122583","18","green","3"
"100","92","19","834.293307916","1","1","6","391","1","left","in","Female","Right-handed","2","0","no","left","d","737.968272886","1062.78553714","18","red","2"
"100","92","19","831.963198422","1","1","6","392","0","right","out","Female","Right-handed","2","0","no","right","d","767.524142671","663.391304823","18","red","2"
"100","92","19","835.176416171","1","1","6","393","2","right","out","Female","Right-handed","2","0","no","right","d","807.063248651","1191.03779409","18","red","1"
"100","92","19","832.683898298","1","1","6","394","3","left","out","Female","Right-handed","2","0","no","left","d","670.582390723","735.563547078","18","red","1"
"100","92","19","831.628441699","1","1","6","395","3","left","in","Female","Right-handed","2","0","no","left","s","640.147760105","911.230723788","18","red","3"
"100","92","19","830.396366327","1","1","6","396","3","left","in","Female","Right-handed","2","0","no","left","d","760.792000839","766.936591634","18","green","2"
"100","92","19","832.807776818","1","1","6","397","0","right","in","Female","Right-handed","2","0","no","right","d","947.494681734","983.37602593","18","green","2"
"100","92","19","830.07328144","1","1","6","398","1","right","out","Female","Right-handed","2","0","no","right","s","802.917999106","550.965081446","18","red","2"
"100","91","19","829.384641922","1","0","6","399","0","left","out","Female","Right-handed","2","0","no","left","d","876.670727996","703.593650729","18","green","0"
"100","91","19","829.796681564","1","1","6","400","0","left","in","Female","Right-handed","2","0","no","left","d","964.186326803","743.203634862","18","green","3"
"100","91","19","829.152420211","1","1","6","401","0","right","out","Female","Right-handed","2","0","no","right","d","911.595698177","670.686302586","18","green","2"
"100","91","19","834.711646442","1","1","6","402","1","left","in","Female","Right-handed","2","0","no","left","s","929.229926489","1407.30051408","18","green","3"
"100","91","19","834.423460423","1","1","6","403","1","left","out","Female","Right-handed","2","0","no","left","d","954.846446166","678.841780394","18","red","3"
"100","92","19","836.288969692","1","1","6","404","3","left","in","Female","Right-handed","2","0","no","left","d","680.365500363","1223.53558837","18","green","3"
"100","90","19","839.222951024","1","0","6","405","2","right","in","Female","Right-handed","2","0","no","right","s","945.049225038","1103.07832485","18","green","0"
"100","0","19","1320.11781809","1","0","7","406","3","right","in","Female","Right-handed","2","0","no","right","d","1896.02719925","744.208436938","18","red","2"
"100","50","19","1084.67983119","1","1","7","407","2","left","in","Female","Right-handed","2","0","no","left","s","866.693906114","831.789782449","18","red","3"
"100","66","19","895.580816544","1","1","7","408","2","left","in","Female","Right-handed","2","0","no","left","s","459.43893366","575.326640854","18","green","2"
"100","50","19","936.780534614","1","0","7","409","0","right","out","Female","Right-handed","2","0","no","right","s","1304.84405683","815.91532081","18","red","0"
"100","60","19","857.721597664","1","1","7","410","3","left","out","Female","Right-handed","2","0","no","left","s","643.542855785","439.428843946","18","green","2"
"100","66","19","852.543584987","1","1","7","411","1","left","in","Female","Right-handed","2","0","no","left","d","846.2755454","807.031497804","18","green","0"
"100","71","19","880.484151402","1","1","7","412","1","left","in","Female","Right-handed","2","0","no","left","d","1312.58741505","783.667684725","18","green","1"
"100","75","19","864.323516923","1","1","7","413","3","left","out","Female","Right-handed","2","0","no","left","s","879.22554872","623.172602418","18","red","2"
"100","77","19","868.875556384","1","1","7","414","1","right","out","Female","Right-handed","2","0","no","right","d","986.757330836","823.826413307","18","green","2"
"100","80","19","950.266675048","1","1","7","415","3","right","out","Female","Right-handed","2","0","no","right","s","2326.37049006","1039.202996","18","red","1"
"100","81","19","947.141996584","1","1","7","416","1","left","out","Female","Right-handed","2","0","no","left","d","903.92546312","927.864960758","18","green","1"
"100","83","19","933.924642089","1","1","7","417","3","right","in","Female","Right-handed","2","0","no","right","s","1097.53764159","479.529843711","18","green","0"
"100","84","19","922.776400194","1","1","7","418","1","left","in","Female","Right-handed","2","0","no","left","s","931.061212748","646.933782164","18","red","1"
"100","85","19","913.90291498","1","1","7","419","0","right","out","Female","Right-handed","2","0","no","right","d","837.57998247","759.515231908","18","red","2"
"100","86","19","913.268283651","1","1","7","420","2","left","in","Female","Right-handed","2","0","no","left","s","649.401368238","1159.36552185","18","green","2"
"100","87","19","909.891655845","1","1","7","421","3","right","out","Female","Right-handed","2","0","no","right","d","702.712324173","1015.77215335","18","red","3"
"100","88","19","911.68206501","1","1","7","422","1","right","out","Female","Right-handed","2","0","no","right","s","993.289987548","887.367235755","18","red","3"
"100","88","19","907.036404752","1","1","7","423","1","right","in","Female","Right-handed","2","0","no","right","s","825.058282048","831.06207868","18","green","2"
"100","89","19","903.014976762","1","1","7","424","1","left","out","Female","Right-handed","2","0","no","left","s","605.615025142","1055.64352073","18","red","2"
"100","90","19","902.916932727","1","1","7","425","0","left","out","Female","Right-handed","2","0","no","left","d","794.945008494","1007.16318364","18","red","3"
"100","90","19","906.096814855","1","1","7","426","2","right","out","Female","Right-handed","2","0","no","right","s","891.773868539","1047.61504631","18","green","3"
"100","90","19","900.604831779","1","1","7","427","0","left","out","Female","Right-handed","2","0","no","left","s","819.313623648","751.232750711","18","green","2"
"100","91","19","888.728659669","1","1","7","428","2","left","in","Female","Right-handed","2","0","no","left","s","559.967569236","694.938177252","18","green","2"
"100","91","19","880.84383971","1","1","7","429","2","left","out","Female","Right-handed","2","0","no","left","s","543.502990833","855.482970481","18","green","2"
"100","92","19","872.374113502","1","1","7","430","3","right","out","Female","Right-handed","2","0","no","right","s","619.097910314","719.103458692","18","green","3"
"100","92","19","872.158333064","1","1","7","431","1","right","in","Female","Right-handed","2","0","no","right","d","813.718418731","919.809225514","18","red","2"
"100","92","19","866.476235227","1","1","7","432","3","left","in","Female","Right-handed","2","0","no","left","s","790.253259514","647.230123408","18","red","1"
"100","92","19","870.063522084","1","1","7","433","0","right","in","Female","Right-handed","2","0","no","right","s","694.891352769","1238.94918164","18","red","2"
"100","93","19","871.694498719","1","1","7","434","0","left","out","Female","Right-handed","2","0","no","left","d","1115.38771152","719.335977526","18","green","0"
"100","93","19","878.28926754","1","1","7","435","3","right","out","Female","Right-handed","2","0","no","right","s","1396.06488334","743.010243336","18","red","1"
"100","93","19","893.171076536","1","1","7","436","0","right","out","Female","Right-handed","2","0","no","right","d","935.620506172","1743.63018665","18","red","2"
"100","93","19","900.340408574","1","1","7","437","0","right","out","Female","Right-handed","2","0","no","right","d","742.143669699","1503.03573382","18","green","3"
"100","93","19","908.288886763","1","1","7","438","3","left","in","Female","Right-handed","2","0","no","left","d","693.621639582","1631.65873804","18","green","2"
"100","94","19","905.476269411","1","1","7","439","2","right","in","Female","Right-handed","2","0","no","right","d","770.113921399","855.205872176","18","red","1"
"100","94","19","907.11361475","1","1","7","440","1","left","out","Female","Right-handed","2","0","no","left","d","1254.87431636","670.692396185","18","red","3"
"100","94","19","902.326615517","1","1","7","441","1","left","out","Female","Right-handed","2","0","no","left","d","694.30604674","775.25723799","18","red","0"
"100","94","19","903.061450875","1","1","7","442","0","right","out","Female","Right-handed","2","0","no","right","s","956.068372725","902.962674794","18","red","1"
"100","94","19","901.390298889","1","1","7","443","1","right","in","Female","Right-handed","2","0","no","right","s","903.637139767","775.478211061","18","green","3"
"100","94","19","896.500851011","1","1","7","444","3","left","in","Female","Right-handed","2","0","no","left","s","638.247840703","783.155822575","18","red","3"
"100","95","19","895.206227368","1","1","7","445","3","right","out","Female","Right-handed","2","0","no","right","s","906.689711155","782.742099411","18","green","0"
"100","95","19","908.927535766","1","1","7","446","2","right","in","Female","Right-handed","2","0","no","right","d","1364.38395178","1551.17579161","18","red","1"
"100","95","19","906.067790091","1","1","7","447","2","left","in","Female","Right-handed","2","0","no","left","s","786.870351026","790.76608381","18","green","3"
"100","95","19","903.271848393","1","1","7","448","2","left","in","Female","Right-handed","2","0","no","left","d","668.407297305","903.27729683","18","red","3"
"100","95","19","900.346582806","1","1","7","449","1","left","out","Female","Right-handed","2","0","no","left","s","782.121835378","766.998489749","18","red","1"
"100","95","19","896.844240141","1","1","7","450","0","right","in","Female","Right-handed","2","0","no","right","d","766.690602743","718.7917231","18","green","1"
"100","95","19","892.982614382","1","1","7","451","2","right","in","Female","Right-handed","2","0","no","right","s","703.188266169","735.23064425","18","green","1"
"100","95","19","890.882927337","1","1","7","452","3","right","out","Female","Right-handed","2","0","no","right","s","757.826022672","830.768623875","18","green","1"
"100","95","19","891.687428995","1","1","7","453","0","left","out","Female","Right-handed","2","0","no","left","d","907.534476127","951.46353768","18","green","2"
"100","95","19","896.111583461","1","1","7","454","1","right","out","Female","Right-handed","2","0","no","right","d","1025.93402815","1191.00796754","18","green","2"
"100","96","19","900.681123031","1","1","7","455","0","right","in","Female","Right-handed","2","0","no","right","s","1162.65510209","1086.52202178","18","red","1"
"100","96","19","896.131387812","1","1","7","456","0","left","in","Female","Right-handed","2","0","no","left","d","658.190580134","679.098673617","18","red","1"
"100","96","19","891.586058699","1","1","7","457","1","right","in","Female","Right-handed","2","0","no","right","d","712.667016675","606.881531172","18","red","2"
"100","96","19","886.129802899","1","1","7","458","2","left","out","Female","Right-handed","2","0","no","left","d","589.424658607","615.38434401","18","red","2"
"100","96","19","885.571516266","1","1","7","459","2","right","in","Female","Right-handed","2","0","no","right","d","968.887697252","743.076952187","18","green","1"
"100","96","19","887.098814265","1","1","7","460","3","left","in","Female","Right-handed","2","0","no","left","d","588.543973481","1350.60183892","18","red","2"
"100","94","19","887.312888773","1","0","7","461","3","left","out","Female","Right-handed","2","0","no","left","s","679.152233128","1119.02174035","18","red","2"
"100","94","19","890.24730433","1","1","7","462","3","left","out","Female","Right-handed","2","0","no","left","s","1094.58096418","1014.56818687","18","green","3"
"100","94","19","888.832347706","1","1","7","463","0","right","in","Female","Right-handed","2","0","no","right","d","881.11039449","735.249245758","18","green","3"
"100","94","19","887.017867715","1","1","7","464","0","right","out","Female","Right-handed","2","0","no","right","s","860.777023419","702.779033023","18","green","2"
"100","95","19","884.348435726","1","1","7","465","2","left","in","Female","Right-handed","2","0","no","left","d","623.240594132","830.463302595","18","green","2"
"100","93","19","891.326796206","1","0","7","466","2","left","in","Female","Right-handed","2","0","no","left","s","1077.04359199","1543.01325806","18","red","0"
"100","93","19","897.449606703","1","1","7","467","2","right","in","Female","Right-handed","2","0","no","right","d","1031.52025303","1510.361841","18","red","0"
"100","93","19","895.196695941","1","1","7","468","0","left","out","Female","Right-handed","2","0","no","left","s","856.015679146","655.016778237","18","green","3"
"100","93","19","895.601867683","1","1","7","469","1","right","in","Female","Right-handed","2","0","no","right","d","947.521621847","894.733753108","18","green","3"
"100","0","19","917.251999422","1","0","8","470","2","left","in","Female","Right-handed","2","0","no","left","s","1338.77929858","495.724700268","18","red","3"
"100","50","19","813.780156491","1","1","8","471","3","right","in","Female","Right-handed","2","0","no","right","d","797.379240143","623.237386975","18","green","3"
"100","66","19","781.986226119","1","1","8","472","1","right","out","Female","Right-handed","2","0","no","right","d","797.971601912","638.825128839","18","green","2"
"100","75","19","771.393857398","1","1","8","473","3","right","in","Female","Right-handed","2","0","no","right","d","815.577286534","663.656215935","18","red","2"
"100","80","19","783.537538321","1","1","8","474","0","left","out","Female","Right-handed","2","0","no","left","s","905.04668497","759.177839061","18","green","3"
"100","83","19","752.752835901","1","1","8","475","2","left","out","Female","Right-handed","2","0","no","left","d","565.864246844","631.794400753","18","red","3"
"100","85","19","773.178657071","1","1","8","476","0","right","out","Female","Right-handed","2","0","no","right","s","616.207941751","1175.25922643","18","red","0"
"100","87","19","761.037769236","1","1","8","477","3","left","out","Female","Right-handed","2","0","no","left","s","673.027526702","679.075582091","18","red","2"
"100","88","19","753.879224836","1","1","8","478","0","right","in","Female","Right-handed","2","0","no","right","s","777.658435927","615.563303332","18","red","2"
"100","80","19","770.557647512","1","0","8","479","3","right","out","Female","Right-handed","2","0","no","right","s","1050.17371562","791.153187576","18","red","0"
"100","81","19","771.942423263","1","1","8","480","0","right","in","Female","Right-handed","2","0","no","right","d","859.80846221","711.771899345","18","green","3"
"100","83","19","776.8446601","1","1","8","481","0","left","in","Female","Right-handed","2","0","no","left","d","1022.23617692","639.3023537","18","red","3"
"100","84","19","774.809469627","1","1","8","482","2","right","in","Female","Right-handed","2","0","no","right","d","701.949020968","798.825346927","18","green","3"
"100","85","19","772.895339172","1","1","8","483","1","right","in","Female","Right-handed","2","0","no","right","d","808.57061212","687.452674399","18","green","2"
"100","86","19","763.074106371","1","1","8","484","2","right","out","Female","Right-handed","2","0","no","right","d","588.09753732","663.056156987","18","red","2"
"100","87","19","774.056067747","1","1","8","485","2","right","in","Female","Right-handed","2","0","no","right","d","1270.7981682","606.772808575","18","red","0"
"100","88","19","775.032623854","1","1","8","486","1","left","out","Female","Right-handed","2","0","no","left","d","902.146453509","679.168589624","18","red","3"
"100","88","19","802.633568884","1","1","8","487","3","left","in","Female","Right-handed","2","0","no","left","s","1224.90311983","1318.79614897","18","green","3"
"100","89","19","830.404636954","1","1","8","488","3","left","in","Female","Right-handed","2","0","no","left","d","1789.31837345","871.249350952","18","green","3"
"100","90","19","841.327368236","1","1","8","489","2","right","out","Female","Right-handed","2","0","no","right","s","1074.79088539","1022.92763982","18","red","1"
"100","90","19","845.594566845","1","1","8","490","1","left","in","Female","Right-handed","2","0","no","left","s","1078.44319501","783.433883029","18","green","1"
"100","90","19","849.935122143","1","1","8","491","2","right","out","Female","Right-handed","2","0","no","right","d","1075.11448746","807.059079347","18","green","0"
"100","91","19","847.788284344","1","1","8","492","1","left","in","Female","Right-handed","2","0","no","left","s","738.568973264","862.546732276","18","green","2"
"100","91","19","841.019503947","1","1","8","493","3","left","in","Female","Right-handed","2","0","no","left","s","691.395873096","679.279236516","18","red","3"
"100","88","19","859.688719822","1","0","8","494","2","left","out","Female","Right-handed","2","0","no","left","d","1416.82352334","1198.6762783","18","red","1"
"100","88","19","858.270038664","1","1","8","495","1","right","out","Female","Right-handed","2","0","no","right","d","1006.2985343","639.307485151","18","red","2"
"100","88","19","854.070835796","1","1","8","496","1","right","in","Female","Right-handed","2","0","no","right","s","714.904970355","774.878152113","18","green","0"
"100","89","19","849.231667287","1","1","8","497","3","right","out","Female","Right-handed","2","0","no","right","d","646.549885554","790.598349533","18","green","2"
"100","89","19","849.625602654","1","1","8","498","1","right","in","Female","Right-handed","2","0","no","right","d","842.21881337","879.092772449","18","red","0"
"100","90","19","854.09317067","1","1","8","499","1","right","in","Female","Right-handed","2","0","no","right","s","976.566591631","990.738694694","18","red","1"
"100","90","19","855.776890839","1","1","8","500","0","left","in","Female","Right-handed","2","0","no","left","d","878.301246268","934.275745527","18","red","1"
"100","90","19","849.970580354","1","1","8","501","2","left","in","Female","Right-handed","2","0","no","left","d","580.953596618","758.996314016","18","green","2"
"100","90","19","847.68316631","1","1","8","502","1","right","out","Female","Right-handed","2","0","no","right","s","774.435243826","774.536589967","18","green","1"
"100","91","19","853.990774973","1","1","8","503","3","left","out","Female","Right-handed","2","0","no","left","d","1357.14315495","767.140566775","18","red","2"
"100","88","19","861.695053589","1","0","8","504","0","left","out","Female","Right-handed","2","0","no","left","d","840.719788508","1406.56126454","18","green","1"
"100","88","19","862.234306253","1","1","8","505","3","left","out","Female","Right-handed","2","0","no","left","d","843.061974767","919.154324192","18","green","1"
"100","89","19","867.124345498","1","1","8","506","1","right","out","Female","Right-handed","2","0","no","right","d","1359.69893782","726.632578872","18","green","3"
"100","89","19","866.853487461","1","1","8","507","2","right","out","Female","Right-handed","2","0","no","right","s","691.381761606","1022.28171854","18","red","2"
"100","89","19","864.557458931","1","1","8","508","3","left","in","Female","Right-handed","2","0","no","left","s","907.875396846","646.741352786","18","red","2"
"100","90","19","859.80511875","1","1","8","509","2","left","out","Female","Right-handed","2","0","no","left","s","726.404229341","622.523473978","18","red","1"
"100","90","19","851.3492667","1","1","8","510","0","left","out","Female","Right-handed","2","0","no","left","s","523.243705073","502.986664324","18","green","0"
"100","90","19","845.576480774","1","1","8","511","2","left","out","Female","Right-handed","2","0","no","left","s","666.963756248","550.820759411","18","green","2"
"100","90","19","846.80160481","1","1","8","512","0","left","out","Female","Right-handed","2","0","no","left","d","973.36456676","823.149061891","18","red","3"
"100","90","19","845.50910793","1","1","8","513","1","right","in","Female","Right-handed","2","0","no","right","s","1028.97665736","550.88682683","18","red","3"
"100","91","19","844.588823495","1","1","8","514","3","right","out","Female","Right-handed","2","0","no","right","d","921.654943975","686.537672702","18","green","1"
"100","89","19","854.270637504","1","0","8","515","3","right","in","Female","Right-handed","2","0","no","right","s","884.85346663","1695.05106915","18","red","0"
"100","89","19","855.467832021","1","1","8","516","2","right","out","Female","Right-handed","2","0","no","right","s","990.583147612","830.494412012","18","red","3"
"100","89","19","855.669850812","1","1","8","517","2","left","in","Female","Right-handed","2","0","no","left","d","620.137670392","1110.19179757","18","green","2"
"100","89","19","856.77506831","1","1","8","518","0","right","in","Female","Right-handed","2","0","no","right","d","828.802957769","990.848058726","18","green","2"
"100","90","19","859.376795005","1","1","8","519","0","right","in","Female","Right-handed","2","0","no","right","s","1343.33217769","630.390628432","18","green","1"
"100","90","19","861.641336326","1","1","8","520","0","left","out","Female","Right-handed","2","0","no","left","d","814.894803669","1134.84200105","18","red","2"
"100","90","19","859.878214776","1","1","8","521","3","left","in","Female","Right-handed","2","0","no","left","s","829.456255509","710.461775988","18","green","1"
"100","90","19","857.627111813","1","1","8","522","0","left","in","Female","Right-handed","2","0","no","left","s","738.025360268","743.1141552","18","red","2"
"100","90","19","854.821773631","1","1","8","523","3","left","in","Female","Right-handed","2","0","no","left","s","845.644697753","566.633002216","18","green","1"
"100","90","19","859.046823812","1","1","8","524","2","right","in","Female","Right-handed","2","0","no","right","d","1096.2656834","1078.13338371","18","green","1"
"100","91","19","860.971669172","1","1","8","525","1","left","in","Female","Right-handed","2","0","no","left","s","734.876574194","1198.79975382","18","red","2"
"100","91","19","861.549939652","1","1","8","526","1","right","out","Female","Right-handed","2","0","no","right","s","1013.45081361","774.415359456","18","green","3"
"100","91","19","861.929647753","1","1","8","527","1","right","out","Female","Right-handed","2","0","no","right","d","712.100953584","1055.04506536","18","green","2"
"100","91","19","859.263001022","1","1","8","528","3","left","out","Female","Right-handed","2","0","no","left","s","618.621006167","790.573975146","18","green","2"
"100","91","19","857.396696693","1","1","8","529","2","right","in","Female","Right-handed","2","0","no","right","s","592.212960311","902.356522249","18","red","2"
"100","91","19","855.839051583","1","1","8","530","0","left","out","Female","Right-handed","2","0","no","left","s","957.871436007","566.889254007","18","green","1"
"100","91","19","855.548761155","1","1","8","531","0","left","in","Female","Right-handed","2","0","no","left","d","813.403796696","862.278293293","18","red","2"
"100","92","19","856.477489293","1","1","8","532","1","left","out","Female","Right-handed","2","0","no","left","s","950.046936734","878.070331013","18","green","1"
"100","92","19","853.809666738","1","1","8","533","0","right","out","Female","Right-handed","2","0","no","right","s","676.760015227","694.713676308","18","red","2"
dis_reply=Yes
dis_loc=0
tar_loc=2
