"acc_1","acc_2","age","avg_rt","correct_1","correct_2","count_block_loop","count_trial_sequence","cue_position","detection","dis_shape","gender","hand","high_loc","low_loc","practice","response_keyboard_response_1","response_keyboard_response_2","response_time_keyboard_response_1","response_time_keyboard_response_2","subject_nr","tar_color","tar_position"
"100","100","18","1905.47910454","1","1","0","0","0","left","in","Female","Right-handed","2","1","yes","left","s","2299.16492573","1511.79328336","7","red","0"
"100","100","18","2123.58685536","1","1","0","1","0","right","out","Female","Right-handed","2","1","yes","right","d","1793.81381801","2889.57539433","7","red","2"
"100","100","18","1978.54136854","1","1","0","2","1","right","out","Female","Right-handed","2","1","yes","right","d","1335.04380628","2041.85698351","7","red","2"
"100","100","18","1740.56063477","1","1","0","3","0","right","out","Female","Right-handed","2","1","yes","right","s","827.71165018","1225.52521675","7","red","0"
"100","100","18","1567.78059079","1","1","0","4","2","right","in","Female","Right-handed","2","1","yes","right","d","640.150273601","1113.17055618","7","red","0"
"100","100","18","1491.35569734","1","1","0","5","2","left","out","Female","Right-handed","2","1","yes","left","s","1040.77874412","1177.68371602","7","red","3"
"100","100","18","1411.41157452","1","1","0","6","1","left","out","Female","Right-handed","2","1","yes","left","s","758.167775587","1105.32589962","7","red","3"
"100","87","18","1371.53518983","1","0","0","7","0","right","out","Female","Right-handed","2","1","yes","right","s","1158.87514167","1025.92585228","7","green","2"
"100","77","18","1345.68576317","1","0","0","8","3","right","in","Female","Right-handed","2","1","yes","right","d","1132.5038181","1145.27688174","7","green","1"
"100","80","18","1316.8137032","1","1","0","9","1","right","in","Female","Right-handed","2","1","yes","right","d","935.997095617","1177.93323126","7","red","0"
"100","81","18","1292.23883688","1","1","0","10","3","left","in","Female","Right-handed","2","1","yes","left","d","1043.48973684","1049.49061047","7","red","3"
"100","83","18","1274.10085782","1","1","0","11","0","left","out","Female","Right-handed","2","1","yes","left","s","924.038003288","1225.12817322","7","red","1"
"100","84","18","1244.95225042","1","1","0","12","1","left","out","Female","Right-handed","2","1","yes","left","d","788.655459221","1001.68246395","7","green","3"
"100","85","18","1222.90086255","1","1","0","13","3","right","in","Female","Right-handed","2","1","yes","right","d","727.192607165","1145.27303318","7","green","0"
"100","86","18","1216.7803169","1","1","0","14","1","left","in","Female","Right-handed","2","1","yes","left","s","1084.54301187","1177.64234396","7","red","1"
"100","87","18","1190.78778625","1","1","0","15","2","right","in","Female","Right-handed","2","1","yes","right","d","680.417158695","921.382494037","7","green","2"
"100","88","18","1166.4778009","1","1","0","16","2","right","in","Female","Right-handed","2","1","yes","right","d","665.048879971","889.987190696","7","green","1"
"100","88","18","1148.12024012","1","1","0","17","1","right","out","Female","Right-handed","2","1","yes","right","d","814.614665723","857.468748056","7","green","1"
"100","84","18","1138.33492447","1","0","0","18","1","left","in","Female","Right-handed","2","1","yes","left","d","867.238007393","1057.16047807","7","red","2"
"100","85","18","1135.2531361","1","1","0","19","3","left","out","Female","Right-handed","2","1","yes","left","s","887.788377721","1265.60993648","7","green","1"
"100","85","18","1125.73085684","1","1","0","20","3","left","out","Female","Right-handed","2","1","yes","left","s","677.234716871","1193.33582635","7","green","0"
"100","86","18","1112.62086751","1","1","0","21","3","right","in","Female","Right-handed","2","1","yes","right","d","728.769556318","945.852626934","7","red","3"
"100","100","18","889.737034027","1","1","1","22","2","left","out","Female","Right-handed","2","1","no","left","s","874.327383239","905.146684815","7","red","1"
"100","100","18","844.34121562","1","1","1","23","3","left","out","Female","Right-handed","2","1","no","left","s","651.958309788","945.932484639","7","green","2"
"100","100","18","778.738083616","1","1","1","24","2","right","out","Female","Right-handed","2","1","no","right","s","605.390363067","689.673276148","7","green","3"
"100","100","18","814.427609471","1","1","1","25","1","left","out","Female","Right-handed","2","1","no","left","d","721.901152196","1121.09122187","7","red","2"
"100","100","18","811.071228583","1","1","1","26","1","right","in","Female","Right-handed","2","1","no","right","d","657.700367473","937.591042595","7","red","2"
"100","100","18","807.768417571","1","1","1","27","0","left","in","Female","Right-handed","2","1","no","left","s","693.268155762","889.240569254","7","red","2"
"100","100","18","807.345690217","1","1","1","28","3","right","in","Female","Right-handed","2","1","no","right","d","559.835550855","1049.78310134","7","green","0"
"100","100","18","812.73335929","1","1","1","29","0","left","out","Female","Right-handed","2","1","no","left","s","763.412727074","937.481358517","7","green","2"
"100","100","18","829.592137013","1","1","1","30","3","left","in","Female","Right-handed","2","1","no","left","d","864.030229189","1064.89448841","7","red","0"
"100","100","18","832.388136673","1","1","1","31","2","left","in","Female","Right-handed","2","1","no","left","s","873.492565536","841.611701688","7","green","1"
"100","100","18","828.550389338","1","1","1","32","0","right","in","Female","Right-handed","2","1","no","right","s","723.244942505","857.100889468","7","green","2"
"100","100","18","836.028263641","1","1","1","33","2","left","in","Female","Right-handed","2","1","no","left","s","794.859665316","1041.71009664","7","red","0"
"100","100","18","834.939154941","1","1","1","34","1","right","out","Female","Right-handed","2","1","no","right","d","618.466501135","1025.27319995","7","green","2"
"100","100","18","828.040771139","1","1","1","35","1","right","in","Female","Right-handed","2","1","no","right","d","635.85720031","840.8663631","7","green","2"
"100","100","18","835.87687075","1","1","1","36","1","right","in","Female","Right-handed","2","1","no","right","s","569.603527337","1321.56100327","7","green","2"
"100","100","18","831.549991565","1","1","1","37","0","left","out","Female","Right-handed","2","1","no","left","s","844.139566895","689.154040704","7","red","1"
"100","100","18","821.557579179","1","1","1","38","1","left","in","Female","Right-handed","2","1","no","left","d","673.633743697","649.724218309","7","green","0"
"100","94","18","826.34868832","1","0","1","39","3","left","in","Female","Right-handed","2","1","no","left","d","694.148835521","1121.44625191","7","red","1"
"100","94","18","839.795238496","1","1","1","40","2","right","out","Female","Right-handed","2","1","no","right","s","922.828271296","1240.83801201","7","green","2"
"100","95","18","839.098332738","1","1","1","41","2","left","in","Female","Right-handed","2","1","no","left","d","586.342857033","1065.37138965","7","green","0"
"100","90","18","856.88430083","1","0","1","42","3","right","out","Female","Right-handed","2","1","no","right","d","696.050988343","1729.15633701","7","red","2"
"100","90","18","860.93636994","1","1","1","43","3","right","in","Female","Right-handed","2","1","no","right","d","746.508550547","1145.55109193","7","green","2"
"100","91","18","862.488753757","1","1","1","44","1","right","in","Female","Right-handed","2","1","no","right","s","616.13683698","1177.14555847","7","red","0"
"100","91","18","867.848672962","1","1","1","45","2","left","out","Female","Right-handed","2","1","no","left","s","884.638007265","1097.61562209","7","red","2"
"100","92","18","867.22531996","1","1","1","46","1","left","out","Female","Right-handed","2","1","no","left","s","631.290558254","1073.23913759","7","green","0"
"100","88","18","890.551332222","1","0","1","47","0","left","in","Female","Right-handed","2","1","no","left","d","986.707059485","1960.69621808","7","green","2"
"100","88","18","898.15207986","1","1","1","48","0","left","in","Female","Right-handed","2","1","no","left","s","774.171067394","1417.3719695","7","green","3"
"100","89","18","893.481234493","1","1","1","49","2","right","in","Female","Right-handed","2","1","no","right","s","653.852444768","880.884374381","7","red","2"
"100","89","18","901.966150684","1","1","1","50","1","right","in","Female","Right-handed","2","1","no","right","d","717.578573248","1561.50903482","7","red","1"
"100","90","18","901.503441578","1","1","1","51","3","right","out","Female","Right-handed","2","1","no","right","d","719.102283931","1057.0674711","7","green","2"
"100","90","18","904.407698428","1","1","1","52","3","left","out","Female","Right-handed","2","1","no","left","s","846.516375961","1136.55443185","7","red","1"
"100","90","18","904.677545849","1","1","1","53","2","left","out","Female","Right-handed","2","1","no","left","d","777.122595368","1048.96303647","7","red","2"
"100","90","18","907.073022364","1","1","1","54","2","right","in","Female","Right-handed","2","1","no","right","s","702.691685754","1264.76485594","7","red","3"
"100","91","18","906.288807534","1","1","1","55","0","left","out","Female","Right-handed","2","1","no","left","d","735.440400815","1025.37903546","7","green","2"
"100","91","18","902.59450951","1","1","1","56","2","left","out","Female","Right-handed","2","1","no","left","d","721.009888886","832.966864505","7","green","2"
"100","88","18","902.913083315","1","0","1","57","0","right","in","Female","Right-handed","2","1","no","right","d","651.511234921","1176.61509804","7","green","0"
"100","89","18","913.86275944","1","1","1","58","3","right","out","Female","Right-handed","2","1","no","right","s","719.143976708","1896.95822319","7","red","0"
"100","89","18","913.106684358","1","1","1","59","0","left","out","Female","Right-handed","2","1","no","left","s","769.669530212","1000.59428244","7","green","2"
"100","89","18","911.989612758","1","1","1","60","1","left","in","Female","Right-handed","2","1","no","left","d","761.994210477","977.087573435","7","red","3"
"100","90","18","908.574143871","1","1","1","61","2","right","out","Female","Right-handed","2","1","no","right","d","517.827831918","1032.9138826","7","green","0"
"100","90","18","913.518864527","1","1","1","62","3","right","out","Female","Right-handed","2","1","no","right","s","589.394126963","1633.22125459","7","red","0"
"100","90","18","907.490651273","1","1","1","63","2","right","out","Female","Right-handed","2","1","no","right","d","535.828849222","784.838966455","7","red","0"
"100","90","18","921.699545611","1","1","1","64","0","right","out","Female","Right-handed","2","1","no","right","d","676.632737297","2360.31347838","7","red","3"
"100","90","18","918.227287363","1","1","1","65","1","left","in","Female","Right-handed","2","1","no","left","d","673.023104855","864.817260553","7","green","3"
"100","91","18","921.844621065","1","1","1","66","3","left","out","Female","Right-handed","2","1","no","left","d","953.392605496","1208.62200237","7","green","2"
"100","91","18","919.331937931","1","1","1","67","3","left","in","Female","Right-handed","2","1","no","left","d","619.233006825","993.289387007","7","red","3"
"100","89","18","923.062341102","1","0","1","68","1","right","out","Female","Right-handed","2","1","no","right","s","588.672200474","1600.64957348","7","red","3"
"100","89","18","934.5663919","1","1","1","69","1","right","in","Female","Right-handed","2","1","no","right","d","877.250046985","2073.26351183","7","red","0"
"100","89","18","942.376015397","1","1","1","70","2","right","in","Female","Right-handed","2","1","no","right","d","825.78608526","1808.68980124","7","red","3"
"100","90","18","946.516061662","1","1","1","71","0","right","in","Female","Right-handed","2","1","no","right","d","673.468576153","1625.28808106","7","red","0"
"100","90","18","942.396999941","1","1","1","72","0","left","out","Female","Right-handed","2","1","no","left","s","631.970150537","840.917677289","7","green","0"
"100","90","18","951.879444444","1","1","1","73","0","left","in","Female","Right-handed","2","1","no","left","d","870.486195521","2000.48203266","7","green","1"
"100","90","18","954.928106946","1","1","1","74","0","left","in","Female","Right-handed","2","1","no","left","d","777.90930602","1449.0078081","7","red","3"
"100","88","18","959.384849548","1","0","1","75","3","right","out","Female","Right-handed","2","1","no","right","d","1118.60729444","1272.57712041","7","red","3"
"100","89","18","970.725258412","1","1","1","76","1","right","out","Female","Right-handed","2","1","no","right","d","1309.06920552","1857.14546867","7","red","1"
"100","89","18","975.18600477","1","1","1","77","0","left","in","Female","Right-handed","2","1","no","left","s","784.707794561","1656.34631433","7","red","3"
"100","89","18","970.438692199","1","1","1","78","0","right","in","Female","Right-handed","2","1","no","right","d","536.157580741","873.020795716","7","green","0"
"100","89","18","969.667909502","1","1","1","79","1","right","in","Female","Right-handed","2","1","no","right","d","1074.70415767","776.762433909","7","green","2"
"100","88","18","982.346704271","1","0","1","80","3","right","out","Female","Right-handed","2","1","no","right","s","939.260036574","2496.17356511","7","green","3"
"100","88","18","981.910877304","1","1","1","81","2","left","in","Female","Right-handed","2","1","no","left","s","711.732925043","1200.66124746","7","green","3"
"100","88","18","979.795025159","1","1","1","82","1","right","out","Female","Right-handed","2","1","no","right","s","681.22952644","1024.45826649","7","green","3"
"100","88","18","980.94966703","1","1","1","83","3","right","out","Female","Right-handed","2","1","no","right","s","661.906848071","1440.85879426","7","green","2"
"100","88","18","979.229469913","1","1","1","84","2","left","out","Female","Right-handed","2","1","no","left","s","800.637642934","944.516854465","7","red","2"
"100","89","18","974.585463039","1","1","1","85","3","left","out","Female","Right-handed","2","1","no","left","d","619.012997243","745.013062668","7","red","3"
"100","100","18","868.921914558","1","1","2","86","1","right","in","Female","Right-handed","2","1","no","right","s","800.422444056","937.42138506","7","red","2"
"100","100","18","806.931729038","1","1","2","87","2","left","out","Female","Right-handed","2","1","no","left","s","680.837293612","809.045793423","7","green","0"
"100","100","18","819.47791448","1","1","2","88","3","left","out","Female","Right-handed","2","1","no","left","d","559.553964246","1129.58660648","7","green","0"
"100","100","18","878.77616302","1","1","2","89","2","right","out","Female","Right-handed","2","1","no","right","s","720.113173443","1393.22864384","7","green","2"
"100","100","18","839.969391087","1","1","2","90","3","right","out","Female","Right-handed","2","1","no","right","s","552.721800769","816.762805937","7","red","2"
"100","100","18","825.949916497","1","1","2","91","1","right","out","Female","Right-handed","2","1","no","right","d","590.294049543","921.411037554","7","green","2"
"100","100","18","819.373025836","1","1","2","92","0","left","out","Female","Right-handed","2","1","no","left","d","718.91306286","840.910300874","7","red","2"
"100","87","18","850.326494542","1","0","2","93","3","right","in","Female","Right-handed","2","1","no","right","d","732.562316271","1401.4392347","7","green","3"
"100","88","18","877.916311833","1","1","2","94","3","right","in","Female","Right-handed","2","1","no","right","d","804.149136991","1393.12056333","7","green","2"
"100","80","18","868.336291383","1","0","2","95","0","left","in","Female","Right-handed","2","1","no","left","d","682.58197602","881.650238643","7","red","1"
"100","81","18","860.952121355","1","1","2","96","2","right","in","Female","Right-handed","2","1","no","right","s","621.161458169","953.059383985","7","red","3"
"100","83","18","867.605197828","1","1","2","97","0","left","out","Female","Right-handed","2","1","no","left","d","768.761910504","1112.81616756","7","red","0"
"100","84","18","892.239439503","1","1","2","98","0","left","in","Female","Right-handed","2","1","no","left","d","694.445174959","1681.25550425","7","green","3"
"100","85","18","885.18306016","1","1","2","99","3","left","in","Female","Right-handed","2","1","no","left","d","721.929695714","864.970561692","7","red","2"
"100","86","18","886.628634301","1","1","2","100","1","right","out","Female","Right-handed","2","1","no","right","s","708.291025854","1105.44231868","7","red","2"
"100","87","18","871.372367502","1","1","2","101","1","right","out","Female","Right-handed","2","1","no","right","s","572.089379054","712.967351989","7","red","3"
"100","88","18","867.297933687","1","1","2","102","2","right","in","Female","Right-handed","2","1","no","right","d","715.61227769","888.601707608","7","red","1"
"100","88","18","859.129287666","1","1","2","103","3","right","out","Female","Right-handed","2","1","no","right","d","503.388660719","937.135949887","7","green","0"
"100","89","18","865.200015448","1","1","2","104","0","left","in","Female","Right-handed","2","1","no","left","d","675.940637181","1273.00559389","7","green","0"
"100","90","18","885.911144351","1","1","2","105","1","left","out","Female","Right-handed","2","1","no","left","s","1317.45201963","1241.39316739","7","green","2"
"100","85","18","880.774277957","1","0","2","106","2","left","in","Female","Right-handed","2","1","no","left","s","619.083233538","936.990666591","7","red","3"
"100","86","18","899.038685534","1","1","2","107","3","right","in","Female","Right-handed","2","1","no","right","d","668.538565499","1896.64392379","7","red","0"
"100","86","18","900.889001582","1","1","2","108","0","left","in","Female","Right-handed","2","1","no","left","d","1058.14186192","825.05004737","7","red","3"
"100","83","18","911.913001765","1","0","2","109","3","left","out","Female","Right-handed","2","1","no","left","d","666.48054583","1664.44946611","7","green","0"
"100","80","18","908.985050253","1","0","2","110","0","right","in","Female","Right-handed","2","1","no","right","s","644.200887351","1033.22754058","7","green","3"
"100","80","18","916.57133247","1","1","2","111","3","left","in","Female","Right-handed","2","1","no","left","s","1187.73392054","1024.72285528","7","green","1"
"100","81","18","911.396634184","1","1","2","112","0","left","out","Female","Right-handed","2","1","no","left","d","728.288165088","825.420792381","7","green","0"
"100","82","18","910.696692278","1","1","2","113","1","left","in","Female","Right-handed","2","1","no","left","d","678.708716934","1104.88780473","7","red","1"
"100","82","18","933.532654304","1","1","2","114","3","right","out","Female","Right-handed","2","1","no","right","s","985.558583805","2160.32059822","7","red","2"
"100","83","18","942.112357119","1","1","2","115","1","right","out","Female","Right-handed","2","1","no","right","s","972.933369169","1408.91410839","7","green","3"
"100","83","18","945.496024361","1","1","2","116","1","left","in","Female","Right-handed","2","1","no","left","s","1261.4765786","832.535504607","7","red","0"
"100","84","18","947.185678346","1","1","2","117","0","left","out","Female","Right-handed","2","1","no","left","s","1030.11597648","969.013927313","7","red","2"
"100","84","18","941.686512526","1","1","2","118","2","left","out","Female","Right-handed","2","1","no","left","d","658.68976917","872.736643398","7","red","2"
"100","85","18","942.552968977","1","1","2","119","0","left","in","Female","Right-handed","2","1","no","left","d","862.145074191","1080.14698949","7","red","1"
"100","85","18","937.817044942","1","1","2","120","1","right","in","Female","Right-handed","2","1","no","right","d","568.718036873","984.873218676","7","green","3"
"100","86","18","932.307088763","1","1","2","121","2","right","in","Female","Right-handed","2","1","no","right","d","598.545371043","880.371873924","7","green","2"
"100","86","18","931.161574147","1","1","2","122","0","right","in","Female","Right-handed","2","1","no","right","d","787.001538784","992.844557137","7","red","2"
"100","86","18","926.290860737","1","1","2","123","0","left","out","Female","Right-handed","2","1","no","left","s","643.636431277","848.512497892","7","green","0"
"100","87","18","925.99228853","1","1","2","124","1","left","out","Female","Right-handed","2","1","no","left","d","781.185396238","1048.10769309","7","green","1"
"100","87","18","932.70004676","1","1","2","125","0","left","in","Female","Right-handed","2","1","no","left","d","763.800790624","1624.80444484","7","green","2"
"100","85","18","954.479476773","1","0","2","126","3","left","out","Female","Right-handed","2","1","no","left","None","651.224516893","3000.08883769","7","red","3"
"100","85","18","951.291006947","1","1","2","127","1","right","out","Female","Right-handed","2","1","no","right","s","608.430408018","1032.69708016","7","green","0"
"100","86","18","948.048061227","1","1","2","128","2","right","out","Female","Right-handed","2","1","no","right","s","807.326768111","816.36191384","7","red","2"
"100","86","18","944.615222453","1","1","2","129","2","right","out","Female","Right-handed","2","1","no","right","s","609.080173929","984.926136433","7","red","0"
"100","86","18","940.836077039","1","1","2","130","1","left","in","Female","Right-handed","2","1","no","left","s","732.602726194","816.504631426","7","green","0"
"100","86","18","936.549197241","1","1","2","131","2","right","in","Female","Right-handed","2","1","no","right","s","622.173309823","865.105902863","7","green","1"
"100","87","18","932.529825929","1","1","2","132","0","left","out","Female","Right-handed","2","1","no","left","s","686.659209004","808.618282091","7","red","3"
"100","85","18","926.315137215","1","0","2","133","2","right","out","Female","Right-handed","2","1","no","right","d","476.283544245","792.165991136","7","red","0"
"100","85","18","927.865937023","1","1","2","134","1","right","out","Female","Right-handed","2","1","no","right","d","547.769340157","1456.83931539","7","green","0"
"100","86","18","925.11838504","1","1","2","135","1","left","in","Female","Right-handed","2","1","no","left","d","748.511086751","832.465589026","7","green","2"
"100","86","18","923.048343764","1","1","2","136","0","left","out","Female","Right-handed","2","1","no","left","d","671.025700069","968.066859821","7","green","2"
"100","86","18","919.071465196","1","1","2","137","2","left","out","Female","Right-handed","2","1","no","left","s","599.664982492","832.836334037","7","red","0"
"100","86","18","923.735080143","1","1","2","138","3","right","in","Female","Right-handed","2","1","no","right","s","700.208399749","1632.27771495","7","red","2"
"100","87","18","921.874605418","1","1","2","139","2","right","in","Female","Right-handed","2","1","no","right","d","741.82933799","904.709552072","7","red","3"
"100","87","18","920.509657185","1","1","2","140","3","left","in","Female","Right-handed","2","1","no","left","s","669.375307484","1024.22959764","7","green","1"
"100","87","18","922.910499992","1","1","2","141","3","right","out","Female","Right-handed","2","1","no","right","d","596.975156877","1512.9385519","7","red","3"
"100","87","18","921.440554465","1","1","2","142","3","left","in","Female","Right-handed","2","1","no","left","s","629.712646959","1048.53456299","7","red","3"
"100","86","18","925.322290151","1","0","2","143","0","right","out","Female","Right-handed","2","1","no","right","d","821.076725616","1472.08572292","7","green","2"
"100","86","18","929.776418971","1","1","2","144","1","right","in","Female","Right-handed","2","1","no","right","s","879.588370409","1496.64341065","7","green","2"
"100","86","18","929.648325158","1","1","2","145","1","right","out","Female","Right-handed","2","1","no","right","d","564.062236414","1280.11934397","7","green","3"
"100","86","18","928.051054105","1","1","2","146","2","right","in","Female","Right-handed","2","1","no","right","d","839.647651125","824.781930734","7","green","2"
"100","87","18","926.755343033","1","1","2","147","2","left","out","Female","Right-handed","2","1","no","left","d","607.312720852","1088.12121438","7","red","3"
"100","87","18","927.043612244","1","1","2","148","3","right","in","Female","Right-handed","2","1","no","right","d","633.877755492","1255.95485121","7","red","2"
"100","87","18","930.338245591","1","1","2","149","2","left","in","Female","Right-handed","2","1","no","left","s","803.238951575","1472.5613413","7","green","2"
"100","100","18","736.893394132","1","1","3","150","0","right","in","Female","Right-handed","2","1","no","right","d","688.942048962","784.844739302","7","red","1"
"100","100","18","689.473872419","1","1","3","151","2","left","out","Female","Right-handed","2","1","no","left","d","595.608275183","688.500426229","7","red","3"
"100","100","18","761.517041977","1","1","3","152","2","left","in","Female","Right-handed","2","1","no","left","d","730.138041581","1081.0687206","7","green","1"
"100","100","18","749.0711731","1","1","3","153","0","left","out","Female","Right-handed","2","1","no","left","d","686.624251214","736.842881728","7","green","2"
"100","100","18","860.785697196","1","1","3","154","0","right","in","Female","Right-handed","2","1","no","right","s","1254.14185679","1361.14573037","7","green","2"
"100","83","18","899.541812404","1","0","3","155","2","right","in","Female","Right-handed","2","1","no","right","d","785.794693215","1400.85008367","7","green","3"
"100","71","18","888.854796516","1","0","3","156","0","right","in","Female","Right-handed","2","1","no","right","d","760.246962361","889.21844001","7","green","2"
"100","75","18","956.588777876","1","1","3","157","3","left","out","Female","Right-handed","2","1","no","left","s","724.800724556","2136.65257023","7","red","2"
"100","77","18","930.057015052","1","1","3","158","2","right","out","Female","Right-handed","2","1","no","right","s","587.359840106","848.245984825","7","red","2"
"100","80","18","909.453292222","1","1","3","159","1","right","out","Female","Right-handed","2","1","no","right","s","462.979058038","985.060515463","7","green","3"
"100","72","18","893.013488693","1","0","3","160","1","left","in","Female","Right-handed","2","1","no","left","s","712.590834131","744.64007266","7","green","0"
"100","75","18","893.609905584","1","1","3","161","3","left","in","Female","Right-handed","2","1","no","left","s","576.054362251","1224.28662053","7","red","3"
"100","76","18","881.778450103","1","1","3","162","3","left","out","Female","Right-handed","2","1","no","left","s","766.758732873","712.843235796","7","red","0"
"100","78","18","899.896876808","1","1","3","163","2","left","in","Female","Right-handed","2","1","no","left","d","1030.40269451","1240.47015342","7","red","2"
"100","80","18","883.238252418","1","1","3","164","0","right","out","Female","Right-handed","2","1","no","right","s","506.989313178","793.045708755","7","green","3"
"100","81","18","874.852892645","1","1","3","165","2","left","in","Female","Right-handed","2","1","no","left","s","817.537329469","680.60766262","7","red","2"
"100","76","18","880.047424875","1","0","3","166","3","right","in","Female","Right-handed","2","1","no","right","d","845.103632211","1081.21624889","7","green","2"
"100","77","18","874.471846934","1","1","3","167","0","right","out","Female","Right-handed","2","1","no","right","s","670.778429824","888.595614048","7","red","2"
"100","78","18","871.795669467","1","1","3","168","1","right","out","Female","Right-handed","2","1","no","right","d","478.968879869","1168.28007027","7","red","0"
"100","80","18","865.04695569","1","1","3","169","2","right","out","Female","Right-handed","2","1","no","right","d","680.754549484","792.888238339","7","red","0"
"100","80","18","863.157513819","1","1","3","170","1","right","in","Female","Right-handed","2","1","no","right","d","794.308037791","856.429315026","7","green","1"
"100","81","18","863.717868644","1","1","3","171","3","left","in","Female","Right-handed","2","1","no","left","d","829.911104583","921.059535363","7","green","0"
"100","82","18","861.671463753","1","1","3","172","0","left","out","Female","Right-handed","2","1","no","left","d","440.679515312","1192.62159699","7","green","0"
"100","83","18","864.259639691","1","1","3","173","1","left","out","Female","Right-handed","2","1","no","left","d","655.278979207","1192.29639332","7","red","3"
"100","84","18","862.62320697","1","1","3","174","3","right","out","Female","Right-handed","2","1","no","right","d","573.859718555","1072.83792478","7","red","0"
"100","84","18","866.381627863","1","1","3","175","1","right","out","Female","Right-handed","2","1","no","right","s","928.356412959","992.327887401","7","green","2"
"100","85","18","864.070936069","1","1","3","176","2","left","in","Female","Right-handed","2","1","no","left","s","655.019842555","952.966056306","7","red","2"
"100","85","18","862.393226399","1","1","3","177","1","left","out","Female","Right-handed","2","1","no","left","d","809.655470124","824.53466049","7","green","2"
"100","86","18","855.16516677","1","1","3","178","2","right","out","Female","Right-handed","2","1","no","right","d","577.231060735","728.327933583","7","red","2"
"100","86","18","854.934201313","1","1","3","179","0","left","in","Female","Right-handed","2","1","no","left","s","655.769991848","1040.70241427","7","green","1"
"100","87","18","854.190655964","1","1","3","180","2","right","in","Female","Right-handed","2","1","no","right","s","807.419454364","856.349136607","7","green","2"
"100","87","18","864.494577493","1","1","3","181","1","left","out","Female","Right-handed","2","1","no","left","s","759.069301735","1608.7629881","7","red","2"
"100","84","18","868.752684641","1","0","3","182","0","right","in","Female","Right-handed","2","1","no","right","s","649.578935013","1360.4452917","7","red","3"
"100","85","18","869.584358092","1","1","3","183","3","left","in","Female","Right-handed","2","1","no","left","d","825.970495624","968.088668352","7","green","2"
"100","85","18","864.587033949","1","1","3","184","0","right","in","Female","Right-handed","2","1","no","right","d","412.680890532","976.675135646","7","red","3"
"100","86","18","872.230735389","1","1","3","185","1","left","out","Female","Right-handed","2","1","no","left","d","719.312030676","1560.20854086","7","red","3"
"100","86","18","871.542132303","1","1","3","186","2","left","out","Female","Right-handed","2","1","no","left","s","564.692118076","1128.81272438","7","red","3"
"100","86","18","877.19547924","1","1","3","187","2","right","out","Female","Right-handed","2","1","no","right","s","676.439988377","1496.29864345","7","green","0"
"100","87","18","878.329688464","1","1","3","188","0","left","out","Female","Right-handed","2","1","no","left","s","875.007616949","967.851660945","7","green","2"
"100","87","18","873.711176006","1","1","3","189","0","right","out","Female","Right-handed","2","1","no","right","s","594.503095849","792.675284457","7","green","2"
"100","87","18","866.576582366","1","1","3","190","0","right","in","Female","Right-handed","2","1","no","right","s","490.1354887","672.250184892","7","green","0"
"100","88","18","859.818693533","1","1","3","191","0","right","out","Female","Right-handed","2","1","no","right","d","452.662340453","712.828162253","7","red","0"
"100","88","18","863.434455052","1","1","3","192","3","right","out","Female","Right-handed","2","1","no","right","d","894.220931956","1136.37194576","7","red","2"
"100","88","18","861.183742231","1","1","3","193","3","left","in","Female","Right-handed","2","1","no","left","s","536.923765717","991.882416103","7","red","3"
"100","86","18","857.289066436","1","0","3","194","3","right","out","Female","Right-handed","2","1","no","right","s","603.508094492","768.338568449","7","green","2"
"100","86","18","861.828526305","1","1","3","195","3","left","out","Female","Right-handed","2","1","no","left","d","1164.01906835","968.189372447","7","green","3"
"100","87","18","857.402643508","1","1","3","196","1","right","in","Female","Right-handed","2","1","no","right","d","522.775802538","784.848267152","7","green","2"
"100","87","18","859.827433458","1","1","3","197","1","left","in","Female","Right-handed","2","1","no","left","s","795.267933828","1152.31718839","7","red","1"
"100","87","18","858.348534398","1","1","3","198","3","right","in","Female","Right-handed","2","1","no","right","s","566.829354025","1007.89340504","7","red","1"
"100","88","18","861.320237097","1","1","3","199","0","left","in","Female","Right-handed","2","1","no","left","d","629.480129543","1384.38720917","7","green","3"
"100","88","18","857.824278033","1","1","3","200","1","right","in","Female","Right-handed","2","1","no","right","s","494.071286954","871.981362687","7","red","3"
"100","88","18","858.049150383","1","1","3","201","1","left","in","Female","Right-handed","2","1","no","left","s","818.496263365","920.539017064","7","green","2"
"100","88","18","852.24832209","1","1","3","202","3","right","in","Female","Right-handed","2","1","no","right","s","437.109330651","664.101171054","7","red","0"
"100","87","18","848.036707272","1","0","3","203","2","left","out","Female","Right-handed","2","1","no","left","s","569.725719249","679.916524644","7","green","0"
"100","87","18","845.862286247","1","1","3","204","2","left","in","Female","Right-handed","2","1","no","left","d","728.366419225","728.520682505","7","red","1"
"100","87","18","840.784059953","1","1","3","205","2","right","out","Female","Right-handed","2","1","no","right","d","466.945644805","656.017582807","7","green","0"
"100","85","18","838.441230361","1","0","3","206","1","right","in","Female","Right-handed","2","1","no","right","d","638.685574235","775.799972162","7","red","2"
"100","86","18","839.162220561","1","1","3","207","1","left","out","Female","Right-handed","2","1","no","left","d","568.218364963","1192.29895903","7","green","0"
"100","86","18","836.511139305","1","1","3","208","0","left","out","Female","Right-handed","2","1","no","left","s","517.510004664","847.986848173","7","red","0"
"100","86","18","837.258393024","1","1","3","209","3","left","out","Female","Right-handed","2","1","no","left","d","626.521225152","1136.17149971","7","green","1"
"100","85","18","840.229906807","1","0","3","210","2","right","out","Female","Right-handed","2","1","no","right","s","565.133740811","1471.90772683","7","green","3"
"100","85","18","839.38102943","1","1","3","211","1","left","in","Female","Right-handed","2","1","no","left","s","598.655055122","976.543963751","7","green","0"
"100","85","18","838.059471902","1","1","3","212","3","right","in","Female","Right-handed","2","1","no","right","d","760.170953218","752.074857139","7","red","2"
"100","84","18","834.179264935","1","0","3","213","3","left","in","Female","Right-handed","2","1","no","left","d","499.647856382","679.80459557","7","red","3"
"100","100","18","1278.56227907","1","1","4","214","3","right","in","Female","Right-handed","2","1","no","right","d","701.011146083","1856.11341205","7","green","1"
"100","100","18","1040.64380384","1","1","4","215","3","right","out","Female","Right-handed","2","1","no","right","d","660.716358899","944.734298339","7","green","2"
"100","100","18","1098.48309914","1","1","4","216","0","left","in","Female","Right-handed","2","1","no","left","s","644.130009628","1784.19336982","7","green","2"
"100","100","18","986.936490033","1","1","4","217","2","right","out","Female","Right-handed","2","1","no","right","s","615.751018427","688.84230701","7","green","2"
"100","100","18","973.536984381","1","1","4","218","3","left","in","Female","Right-handed","2","1","no","left","d","519.435890298","1320.44203325","7","green","3"
"100","100","18","920.367916317","1","1","4","219","1","right","in","Female","Right-handed","2","1","no","right","s","579.930187047","729.114964949","7","red","2"
"100","100","18","874.887532586","1","1","4","220","2","right","in","Female","Right-handed","2","1","no","right","s","483.411085019","720.599375379","7","red","3"
"100","100","18","849.429298028","1","1","4","221","3","right","in","Female","Right-handed","2","1","no","right","d","534.362867001","808.080445253","7","green","3"
"100","100","18","833.67738784","1","1","4","222","0","right","out","Female","Right-handed","2","1","no","right","s","814.4757967","600.848415963","7","red","1"
"100","100","18","812.186061399","1","1","4","223","2","left","in","Female","Right-handed","2","1","no","left","d","413.341881423","824.186365435","7","green","3"
"100","100","18","815.403519325","1","1","4","224","3","right","in","Female","Right-handed","2","1","no","right","s","599.119127813","1096.03706937","7","red","0"
"100","100","18","815.550722044","1","1","4","225","0","left","in","Female","Right-handed","2","1","no","left","d","609.634367165","1024.70553674","7","red","3"
"100","100","18","833.362588177","1","1","4","226","3","right","out","Female","Right-handed","2","1","no","right","d","733.991095706","1360.21886784","7","red","2"
"100","92","18","843.568788182","1","0","4","227","3","left","out","Female","Right-handed","2","1","no","left","s","999.744391199","952.754385278","7","green","1"
"100","86","18","887.281714253","1","0","4","228","0","right","out","Female","Right-handed","2","1","no","right","s","590.318744496","2408.20661401","7","red","0"
"100","87","18","872.000886132","1","1","4","229","0","right","in","Female","Right-handed","2","1","no","right","d","532.897846921","752.679081707","7","green","3"
"100","88","18","902.734106741","1","1","4","230","2","left","out","Female","Right-handed","2","1","no","left","s","1020.47083334","1768.46043965","7","green","0"
"100","88","18","900.211159667","1","1","4","231","0","left","in","Female","Right-handed","2","1","no","left","d","674.697230253","1039.94488856","7","red","2"
"100","89","18","896.885303032","1","1","4","232","1","left","in","Female","Right-handed","2","1","no","left","d","649.540449372","1024.49931784","7","red","3"
"100","90","18","905.044729937","1","1","4","233","1","right","in","Female","Right-handed","2","1","no","right","s","736.014157584","1384.13352465","7","red","2"
"100","90","18","906.926134112","1","1","4","234","2","left","in","Female","Right-handed","2","1","no","left","s","624.45518764","1264.65324758","7","red","1"
"100","90","18","919.690284761","1","1","4","235","0","left","out","Female","Right-handed","2","1","no","left","d","1023.27162588","1352.20327089","7","red","2"
"100","86","18","911.347146927","1","0","4","236","2","left","in","Female","Right-handed","2","1","no","left","s","551.804238937","903.791990239","7","green","0"
"100","87","18","905.555875378","1","1","4","237","1","left","out","Female","Right-handed","2","1","no","left","s","648.283893182","896.42936634","7","green","2"
"100","88","18","895.555325354","1","1","4","238","0","right","in","Female","Right-handed","2","1","no","right","d","471.163029667","839.921219893","7","green","3"
"100","88","18","909.15371851","1","1","4","239","3","left","out","Female","Right-handed","2","1","no","left","s","553.654436144","1944.57265865","7","red","2"
"100","88","18","914.407066572","1","1","4","240","3","right","out","Female","Right-handed","2","1","no","right","d","1125.94041268","976.047819692","7","green","2"
"100","89","18","912.327744684","1","1","4","241","1","left","out","Female","Right-handed","2","1","no","left","s","695.533677181","1016.83843022","7","green","0"
"100","89","18","905.981049095","1","1","4","242","0","left","in","Female","Right-handed","2","1","no","left","s","560.291284991","896.255860241","7","red","0"
"100","90","18","905.910774462","1","1","4","243","2","left","in","Female","Right-handed","2","1","no","left","d","743.849192731","1063.89642744","7","green","2"
"100","87","18","905.394074035","1","0","4","244","3","left","out","Female","Right-handed","2","1","no","left","d","571.347889031","1208.43823343","7","green","3"
"100","84","18","912.052086267","1","0","4","245","2","left","in","Female","Right-handed","2","1","no","left","s","772.890457678","1464.01047323","7","red","2"
"100","84","18","911.534552943","1","1","4","246","1","left","in","Female","Right-handed","2","1","no","left","s","757.404156321","1032.54281688","7","green","0"
"100","85","18","909.198774791","1","1","4","247","0","right","out","Female","Right-handed","2","1","no","right","s","624.070331227","1040.16586029","7","red","2"
"100","82","18","907.081793259","1","0","4","248","1","left","out","Female","Right-handed","2","1","no","left","s","654.632099719","1015.57674261","7","green","2"
"100","83","18","899.755180542","1","1","4","249","1","right","out","Female","Right-handed","2","1","no","right","d","550.250701882","736.396769003","7","green","0"
"100","81","18","890.245460554","1","0","4","250","0","right","out","Female","Right-handed","2","1","no","right","d","399.731113652","696.059968326","7","red","0"
"100","81","18","902.340305097","1","1","4","251","3","right","out","Female","Right-handed","2","1","no","right","s","1659.44440845","1040.25469798","7","green","2"
"100","82","18","893.713727386","1","1","4","252","1","left","out","Female","Right-handed","2","1","no","left","s","492.006211582","639.801337119","7","red","3"
"100","82","18","887.111030434","1","1","4","253","2","left","in","Female","Right-handed","2","1","no","left","s","563.51862673","695.693071879","7","red","0"
"100","80","18","881.587535208","1","0","4","254","2","right","in","Female","Right-handed","2","1","no","right","s","625.182245548","696.113206796","7","green","3"
"100","78","18","887.76221283","1","0","4","255","1","left","in","Female","Right-handed","2","1","no","left","d","769.945664688","1511.90232601","7","green","3"
"100","79","18","887.088923565","1","1","4","256","1","right","out","Female","Right-handed","2","1","no","right","s","517.389095607","1200.23245327","7","green","3"
"100","79","18","885.108483297","1","1","4","257","2","left","out","Female","Right-handed","2","1","no","left","d","591.89312794","1008.00597554","7","red","2"
"100","77","18","887.395236205","1","0","4","258","2","left","in","Female","Right-handed","2","1","no","left","s","680.477132153","1295.54759615","7","green","1"
"100","78","18","899.529980858","1","1","4","259","0","left","out","Female","Right-handed","2","1","no","left","d","683.150601371","2208.03637919","7","red","2"
"100","76","18","898.308325423","1","0","4","260","2","left","out","Female","Right-handed","2","1","no","left","d","572.617594481","1111.60675628","7","red","2"
"100","75","18","897.732950513","1","0","4","261","0","right","out","Female","Right-handed","2","1","no","right","d","645.062645003","1096.31801455","7","green","2"
"100","75","18","893.823387716","1","1","4","262","3","left","in","Female","Right-handed","2","1","no","left","s","628.670006792","783.658740121","7","red","0"
"100","74","18","889.964779224","1","0","4","263","1","right","out","Female","Right-handed","2","1","no","right","s","449.314410371","952.471515815","7","red","0"
"100","72","18","887.247717346","1","0","4","264","3","right","in","Female","Right-handed","2","1","no","right","d","486.989287521","1015.79995933","7","red","0"
"100","73","18","884.425506699","1","1","4","265","3","right","in","Female","Right-handed","2","1","no","right","s","681.583594341","799.401933134","7","green","2"
"100","73","18","885.84291645","1","1","4","266","1","left","out","Female","Right-handed","2","1","no","left","d","574.967142884","1344.12930406","7","green","1"
"100","74","18","884.710408378","1","1","4","267","3","left","out","Female","Right-handed","2","1","no","left","d","593.725685894","1055.64927522","7","red","0"
"100","74","18","888.299032617","1","1","4","268","0","right","out","Female","Right-handed","2","1","no","right","d","812.016243506","1352.15323956","7","red","3"
"100","73","18","884.424566585","1","0","4","269","1","right","in","Female","Right-handed","2","1","no","right","d","670.785485525","671.872384178","7","red","1"
"100","73","18","885.92265966","1","1","4","270","2","right","out","Female","Right-handed","2","1","no","right","s","828.289255514","1111.34248821","7","green","3"
"100","74","18","885.525853316","1","1","4","271","1","left","out","Female","Right-handed","2","1","no","left","s","989.926704097","735.88907925","7","red","2"
"100","74","18","882.662207167","1","1","4","272","3","right","out","Female","Right-handed","2","1","no","right","s","553.546997061","879.594463969","7","red","3"
"98","75","18","885.736109516","0","1","4","273","0","left","out","Female","Right-handed","2","1","no","right","d","716.027601902","1418.16509442","7","green","1"
"98","75","18","884.718267177","1","1","4","274","1","right","in","Female","Right-handed","2","1","no","right","d","671.683483822","975.611969804","7","red","2"
"98","75","18","884.629839412","1","1","4","275","2","right","in","Female","Right-handed","2","1","no","right","d","695.296669774","1063.17482167","7","green","0"
"98","76","18","883.673794319","1","1","4","276","0","right","in","Female","Right-handed","2","1","no","right","s","632.913369464","1015.88462774","7","green","0"
"98","76","18","882.920901223","1","1","4","277","2","right","in","Female","Right-handed","2","1","no","right","d","527.541287075","1143.43598523","7","red","2"
"100","100","18","1077.62778355","1","1","5","278","3","left","in","Female","Right-handed","2","1","no","left","d","954.60939319","1200.64617392","7","green","2"
"100","100","18","1221.64971267","1","1","5","279","3","right","out","Female","Right-handed","2","1","no","right","s","939.212250236","1792.13103335","7","red","1"
"100","100","18","1114.30411867","1","1","5","280","2","left","in","Female","Right-handed","2","1","no","left","d","710.504270944","1088.72159038","7","red","0"
"100","100","18","1026.79234046","1","1","5","281","0","left","out","Female","Right-handed","2","1","no","left","d","592.192353801","936.321657858","7","green","3"
"100","100","18","982.005236613","1","1","5","282","2","right","in","Female","Right-handed","2","1","no","right","s","669.767540312","935.946102142","7","green","2"
"100","100","18","928.921964803","1","1","5","283","2","right","out","Female","Right-handed","2","1","no","right","s","502.574689405","824.436522104","7","green","2"
"100","100","18","911.021976126","1","1","5","284","2","left","in","Female","Right-handed","2","1","no","left","s","591.160938614","1016.08314951","7","red","3"
"100","100","18","878.909038706","1","1","5","285","3","right","out","Female","Right-handed","2","1","no","right","s","491.562985279","816.673968249","7","red","0"
"100","100","18","860.496819696","1","1","5","286","1","right","in","Female","Right-handed","2","1","no","right","d","642.25094819","784.147187053","7","green","1"
"100","100","18","832.634043885","1","1","5","287","0","left","out","Female","Right-handed","2","1","no","left","s","475.914082089","687.824041083","7","green","1"
"100","90","18","824.523814536","1","0","5","288","0","left","in","Female","Right-handed","2","1","no","left","d","622.358040901","864.485001183","7","red","0"
"100","91","18","827.071385413","1","1","5","289","3","left","out","Female","Right-handed","2","1","no","left","d","614.088438721","1096.10089139","7","green","3"
"100","84","18","826.2338879","1","0","5","290","3","left","in","Female","Right-handed","2","1","no","left","d","608.631816208","1023.73601929","7","red","0"
"100","85","18","860.945960112","1","1","5","291","0","right","in","Female","Right-handed","2","1","no","right","s","928.25282244","1696.15297529","7","green","3"
"100","86","18","857.530474748","1","1","5","292","1","left","in","Female","Right-handed","2","1","no","left","s","659.752935011","959.674424303","7","red","0"
"100","87","18","854.13342603","1","1","5","293","1","left","in","Female","Right-handed","2","1","no","left","d","646.216893529","960.138496995","7","red","1"
"100","88","18","854.526850923","1","1","5","294","3","left","in","Female","Right-handed","2","1","no","left","d","689.838122978","1031.80517542","7","green","0"
"100","88","18","862.913423984","1","1","5","295","2","left","out","Female","Right-handed","2","1","no","left","d","626.505189468","1384.46514259","7","red","3"
"100","84","18","874.451001483","1","0","5","296","2","right","out","Female","Right-handed","2","1","no","right","d","596.17048626","1568.08430665","7","green","3"
"100","85","18","912.830800123","1","1","5","297","1","right","out","Female","Right-handed","2","1","no","right","s","844.466694847","2439.62725373","7","green","2"
"100","85","18","914.414836667","1","1","5","298","3","left","out","Female","Right-handed","2","1","no","left","d","780.142756073","1112.04837902","7","green","1"
"100","86","18","903.312486847","1","1","5","299","1","right","in","Female","Right-handed","2","1","no","right","d","428.786169286","911.540111981","7","red","3"
"100","82","18","914.957706651","1","0","5","300","2","right","out","Female","Right-handed","2","1","no","right","d","1342.14312425","1000.16196041","7","green","2"
"100","83","18","907.889080747","1","1","5","301","0","right","out","Female","Right-handed","2","1","no","right","d","570.778942966","919.842426955","7","red","2"
"100","84","18","920.346633757","1","1","5","302","1","right","in","Female","Right-handed","2","1","no","right","s","574.394668969","1864.26114304","7","red","0"
"100","84","18","920.428913591","1","1","5","303","0","left","in","Female","Right-handed","2","1","no","left","d","612.972675835","1231.99914305","7","red","2"
"100","85","18","919.67464025","1","1","5","304","0","left","out","Female","Right-handed","2","1","no","left","s","640.575219224","1159.55184754","7","red","0"
"100","85","18","938.492809279","1","1","5","305","2","right","in","Female","Right-handed","2","1","no","right","d","1556.99114125","1336.17560485","7","red","1"
"100","86","18","941.410211661","1","1","5","306","2","right","out","Female","Right-handed","2","1","no","right","s","950.648258557","1095.54669816","7","red","3"
"100","83","18","951.751652584","1","0","5","307","3","right","out","Female","Right-handed","2","1","no","right","d","759.116125932","1744.1907528","7","red","2"
"100","83","18","960.105846273","1","1","5","308","1","right","in","Female","Right-handed","2","1","no","right","s","565.706214726","1855.75709916","7","red","0"
"100","81","18","961.75053924","1","0","5","309","0","right","in","Female","Right-handed","2","1","no","right","d","753.25925275","1272.21278968","7","green","2"
"100","81","18","962.689259215","1","1","5","310","1","left","in","Female","Right-handed","2","1","no","left","d","889.718432635","1095.73816422","7","green","3"
"100","82","18","960.175492261","1","1","5","311","0","right","in","Female","Right-handed","2","1","no","right","s","723.270920313","1031.17144519","7","red","1"
"100","80","18","955.608979836","1","0","5","312","2","left","in","Female","Right-handed","2","1","no","left","s","752.727188759","847.967926067","7","green","0"
"100","80","18","958.146473073","1","1","5","313","3","right","out","Female","Right-handed","2","1","no","right","d","750.593801375","1343.3236713","7","red","2"
"100","78","18","962.29217602","1","0","5","314","1","right","in","Female","Right-handed","2","1","no","right","d","1247.16761716","975.907347102","7","green","3"
"100","78","18","962.074383832","1","1","5","315","0","left","out","Female","Right-handed","2","1","no","left","d","540.519286758","1367.51285901","7","green","3"
"100","79","18","975.154426514","1","1","5","316","3","right","out","Female","Right-handed","2","1","no","right","s","792.252263116","2152.13983373","7","green","2"
"100","80","18","970.856138749","1","1","5","317","0","left","out","Female","Right-handed","2","1","no","left","d","478.717119631","1127.72871215","7","red","0"
"100","80","18","960.405436375","1","1","5","318","1","left","in","Female","Right-handed","2","1","no","left","s","565.401857446","519.352825456","7","green","2"
"100","80","18","953.32320153","1","1","5","319","1","left","in","Female","Right-handed","2","1","no","left","d","509.92640904","815.976736713","7","red","2"
"100","81","18","949.176298382","1","1","5","320","2","left","out","Female","Right-handed","2","1","no","left","d","670.506143912","879.506588421","7","green","0"
"100","81","18","943.970908675","1","1","5","321","2","right","out","Female","Right-handed","2","1","no","right","d","608.17608207","832.102220429","7","green","0"
"100","82","18","943.088605991","1","1","5","322","3","left","out","Female","Right-handed","2","1","no","left","d","776.779752449","1031.75482337","7","red","3"
"100","82","18","938.407039286","1","1","5","323","1","left","out","Female","Right-handed","2","1","no","left","d","600.236494265","855.236580858","7","red","2"
"100","82","18","936.86258583","1","1","5","324","0","left","out","Female","Right-handed","2","1","no","left","d","723.858147057","1007.77730668","7","green","2"
"100","83","18","927.884148705","1","1","5","325","1","left","out","Female","Right-handed","2","1","no","left","s","692.282602631","319.512605011","7","red","2"
"100","83","18","922.643340589","1","1","5","326","2","right","out","Female","Right-handed","2","1","no","right","s","614.078496597","728.090605462","7","green","2"
"100","84","18","917.973743813","1","1","5","327","2","right","in","Female","Right-handed","2","1","no","right","d","482.619884376","895.707119138","7","green","2"
"100","84","18","925.174392464","1","1","5","328","3","left","out","Female","Right-handed","2","1","no","left","s","1643.1633786","927.250271483","7","green","3"
"100","84","18","932.658352132","1","1","5","329","1","left","out","Female","Right-handed","2","1","no","left","d","732.872125683","1895.80846466","7","red","0"
"100","84","18","930.701256553","1","1","5","330","3","right","in","Female","Right-handed","2","1","no","right","s","578.36959429","1079.49497858","7","green","3"
"100","83","18","930.991657857","1","0","5","331","0","left","in","Female","Right-handed","2","1","no","left","s","628.902844923","1263.86300908","7","green","2"
"100","83","18","925.7833417","1","1","5","332","3","right","out","Female","Right-handed","2","1","no","right","d","385.578019053","903.490519384","7","red","0"
"100","82","18","923.609632901","1","0","5","333","0","left","out","Female","Right-handed","2","1","no","left","d","632.929405147","975.181892761","7","red","0"
"100","82","18","923.0938391","1","1","5","334","2","right","out","Female","Right-handed","2","1","no","right","s","676.691107188","1111.72766534","7","green","2"
"100","81","18","928.676139612","1","0","5","335","1","right","out","Female","Right-handed","2","1","no","right","d","574.307114135","1919.42742346","7","red","3"
"100","81","18","930.669014059","1","1","5","336","1","left","in","Female","Right-handed","2","1","no","left","s","876.813555669","1215.69790824","7","green","2"
"100","81","18","931.520480562","1","1","5","337","0","right","in","Female","Right-handed","2","1","no","right","d","932.219409207","1031.29459925","7","red","2"
"100","80","18","929.691407301","1","0","5","338","2","right","in","Female","Right-handed","2","1","no","right","d","776.014529612","863.879493759","7","red","1"
"100","80","18","928.526869692","1","1","5","339","3","left","in","Female","Right-handed","2","1","no","left","d","675.543914362","1039.43623667","7","green","2"
"100","79","18","929.122137227","1","0","5","340","0","right","in","Female","Right-handed","2","1","no","right","s","861.069400515","1070.98804828","7","red","3"
"100","79","18","934.591863582","1","1","5","341","3","right","in","Female","Right-handed","2","1","no","right","d","838.665946558","1719.70330136","7","green","2"
"100","100","18","1067.41257185","1","1","6","342","2","right","in","Female","Right-handed","2","1","no","right","d","1182.99762095","951.827522751","7","green","3"
"100","100","18","1006.21270501","1","1","6","343","2","left","out","Female","Right-handed","2","1","no","left","s","562.577011373","1327.44866497","7","red","2"
"100","100","18","863.1605606","1","1","6","344","1","right","in","Female","Right-handed","2","1","no","right","d","450.020621891","704.091921671","7","red","0"
"100","100","18","823.912516044","1","1","6","345","0","right","in","Female","Right-handed","2","1","no","right","s","612.627587918","799.709176837","7","red","2"
"100","80","18","811.687223345","1","0","6","346","3","left","out","Female","Right-handed","2","1","no","left","s","685.272122348","840.299982747","7","green","2"
"100","83","18","834.549319243","1","1","6","347","0","left","out","Female","Right-handed","2","1","no","left","d","793.848455091","1103.87114238","7","green","1"
"100","85","18","838.392034169","1","1","6","348","2","left","in","Female","Right-handed","2","1","no","left","s","571.415238903","1151.48140855","7","green","3"
"100","75","18","890.412978192","1","0","6","349","3","left","out","Female","Right-handed","2","1","no","left","d","685.09701268","1824.02216003","7","red","2"
"100","77","18","864.766320531","1","1","6","350","3","right","in","Female","Right-handed","2","1","no","right","s","631.548091336","687.63802715","7","green","0"
"100","80","18","843.358019734","1","1","6","351","2","right","in","Female","Right-handed","2","1","no","right","d","557.168175197","744.198449926","7","red","0"
"100","81","18","859.197788382","1","1","6","352","1","left","out","Female","Right-handed","2","1","no","left","d","627.672266541","1407.51868318","7","red","2"
"100","75","18","898.841560815","1","0","6","353","2","left","out","Female","Right-handed","2","1","no","left","d","630.410840635","2039.43527453","7","green","0"
"100","76","18","924.597315607","1","1","6","354","1","right","in","Female","Right-handed","2","1","no","right","s","699.735026359","1767.59771985","7","green","0"
"100","71","18","970.972960996","1","0","6","355","0","left","out","Female","Right-handed","2","1","no","left","d","732.469950732","2415.24275139","7","green","3"
"100","73","18","991.996226697","1","1","6","356","0","left","in","Female","Right-handed","2","1","no","left","d","756.786782491","1815.85711051","7","green","1"
"100","75","18","979.366695119","1","1","6","357","2","right","in","Female","Right-handed","2","1","no","right","s","636.428070656","943.419372261","7","green","0"
"100","76","18","972.810790514","1","1","6","358","1","right","in","Female","Right-handed","2","1","no","right","s","415.925871524","1319.90676212","7","green","0"
"100","72","18","958.903776061","1","0","6","359","3","left","out","Female","Right-handed","2","1","no","left","s","653.461174081","791.50788667","7","red","3"
"100","73","18","958.758558877","1","1","6","360","3","left","in","Female","Right-handed","2","1","no","left","d","712.101104346","1200.18819479","7","red","3"
"100","75","18","959.907238379","1","1","6","361","1","right","out","Female","Right-handed","2","1","no","right","d","707.680387011","1255.78391082","7","green","1"
"100","76","18","964.188560949","1","1","6","362","3","right","in","Female","Right-handed","2","1","no","right","d","660.36068743","1439.26933727","7","red","2"
"100","77","18","958.76213238","1","1","6","363","0","right","out","Female","Right-handed","2","1","no","right","d","641.739409874","1047.87485496","7","red","3"
"100","78","18","961.206327129","1","1","6","364","1","right","out","Female","Right-handed","2","1","no","right","d","702.558268864","1327.39895434","7","red","2"
"100","79","18","970.447811439","1","1","6","365","0","left","out","Female","Right-handed","2","1","no","left","d","861.917688193","1504.08621297","7","green","0"
"100","80","18","954.073134264","1","1","6","366","1","right","in","Female","Right-handed","2","1","no","right","d","482.497692464","639.664071667","7","green","3"
"100","80","18","955.246614263","1","1","6","367","1","right","out","Female","Right-handed","2","1","no","right","s","890.068972685","1079.09825577","7","red","2"
"100","81","18","950.951802174","1","1","6","368","1","left","out","Female","Right-handed","2","1","no","left","d","742.782178326","935.791197436","7","green","2"
"100","82","18","966.464580015","1","1","6","369","0","left","in","Female","Right-handed","2","1","no","left","d","683.333408168","2087.28575524","7","green","2"
"100","82","18","959.386252004","1","1","6","370","2","right","out","Female","Right-handed","2","1","no","right","s","722.665733603","799.720401816","7","green","0"
"100","83","18","954.168112551","1","1","6","371","2","right","in","Female","Right-handed","2","1","no","right","d","622.258298949","983.425837847","7","green","2"
"100","83","18","951.034299541","1","1","6","372","3","left","in","Female","Right-handed","2","1","no","left","s","618.078437584","1095.96138094","7","red","3"
"100","84","18","949.520554099","1","1","6","373","3","left","out","Female","Right-handed","2","1","no","left","s","845.633451207","959.555439529","7","green","2"
"100","84","18","936.405825762","1","1","6","374","0","right","out","Female","Right-handed","2","1","no","right","s","514.179072406","519.289965574","7","red","3"
"100","85","18","927.534282311","1","1","6","375","1","left","in","Female","Right-handed","2","1","no","left","s","581.829132732","687.717564142","7","red","3"
"100","85","18","922.573839972","1","1","6","376","1","left","in","Female","Right-handed","2","1","no","left","d","708.408086346","799.429514509","7","green","3"
"100","86","18","918.878597721","1","1","6","377","3","left","in","Female","Right-handed","2","1","no","left","s","756.03150178","823.058736143","7","green","2"
"100","86","18","915.599302654","1","1","6","378","0","left","in","Female","Right-handed","2","1","no","left","s","747.525212906","847.564147545","7","green","0"
"100","86","18","911.746503892","1","1","6","379","1","left","in","Female","Right-handed","2","1","no","left","d","659.162180418","879.223718957","7","red","2"
"100","87","18","911.605891178","1","1","6","380","0","left","out","Female","Right-handed","2","1","no","left","d","588.802089512","1223.7231266","7","red","0"
"100","87","18","919.485949694","1","1","6","381","3","right","out","Female","Right-handed","2","1","no","right","d","734.28005873","1719.33640492","7","green","0"
"100","87","18","920.131882783","1","1","6","382","1","right","out","Female","Right-handed","2","1","no","right","s","932.990725602","958.94768711","7","green","2"
"100","88","18","914.64215394","1","1","6","383","0","left","in","Female","Right-handed","2","1","no","left","d","667.611382256","711.515160456","7","red","0"
"100","88","18","910.003844984","1","1","6","384","2","left","in","Female","Right-handed","2","1","no","left","d","671.123838456","759.265899222","7","green","2"
"100","88","18","914.984241588","1","1","6","385","3","right","out","Female","Right-handed","2","1","no","right","s","682.661192297","1575.62139879","7","green","1"
"100","88","18","914.767599822","1","1","6","386","1","right","in","Female","Right-handed","2","1","no","right","s","779.244757776","1031.22596652","7","red","1"
"100","89","18","909.953335742","1","1","6","387","2","right","out","Female","Right-handed","2","1","no","right","s","634.792751614","751.830152601","7","red","1"
"100","87","18","914.081314101","1","0","6","388","0","right","in","Female","Right-handed","2","1","no","right","s","840.575796509","1367.36084073","7","green","2"
"100","87","18","914.882950733","1","1","6","389","1","left","out","Female","Right-handed","2","1","no","left","s","658.075281764","1247.0444631","7","red","0"
"100","87","18","910.275439771","1","1","6","390","0","left","in","Female","Right-handed","2","1","no","left","d","602.606568345","775.623258926","7","red","2"
"100","88","18","906.54408883","1","1","6","391","2","left","in","Female","Right-handed","2","1","no","left","d","472.168787761","975.24699764","7","red","2"
"100","88","18","905.372269156","1","1","6","392","0","left","out","Female","Right-handed","2","1","no","left","s","638.802314013","1054.76025691","7","green","2"
"100","88","18","901.573219007","1","1","6","393","3","right","in","Female","Right-handed","2","1","no","right","d","640.261240533","775.38208224","7","red","0"
"100","88","18","897.365341978","1","1","6","394","3","left","out","Female","Right-handed","2","1","no","left","d","630.124443321","726.987029697","7","red","0"
"100","88","18","899.584110975","1","1","6","395","0","right","out","Female","Right-handed","2","1","no","right","d","666.700234699","1367.65750088","7","green","2"
"100","89","18","898.369532481","1","1","6","396","2","right","in","Female","Right-handed","2","1","no","right","s","682.320273659","983.244313908","7","red","3"
"100","89","18","895.814045651","1","1","6","397","0","right","out","Female","Right-handed","2","1","no","right","s","607.796036364","902.728503685","7","green","3"
"100","89","18","892.68396792","1","1","6","398","1","right","out","Female","Right-handed","2","1","no","right","s","539.372093934","895.427136098","7","red","3"
"100","89","18","893.661811895","1","1","6","399","2","left","in","Female","Right-handed","2","1","no","left","s","667.904835271","1230.89300158","7","red","2"
"100","89","18","887.914154559","1","1","6","400","2","right","out","Female","Right-handed","2","1","no","right","s","525.601931466","583.498126713","7","green","3"
"100","88","18","888.019254153","1","0","6","401","3","right","out","Female","Right-handed","2","1","no","right","s","661.279852831","1127.16040751","7","red","2"
"100","88","18","884.621332782","1","1","6","402","3","left","in","Female","Right-handed","2","1","no","left","s","626.73385832","734.758242823","7","green","3"
"100","88","18","886.71448349","1","1","6","403","2","left","out","Female","Right-handed","2","1","no","left","d","965.419368413","1063.37398486","7","red","1"
"100","88","18","885.296829519","1","1","6","404","3","right","out","Female","Right-handed","2","1","no","right","s","643.839763748","950.964802958","7","red","1"
"100","89","18","890.408954238","1","1","6","405","2","right","in","Female","Right-handed","2","1","no","right","s","1553.53448923","871.411133769","7","red","2"
"100","100","18","645.715457694","1","1","7","406","2","right","out","Female","Right-handed","2","1","no","right","s","595.632007995","695.798907392","7","green","0"
"100","100","18","622.299029585","1","1","7","407","3","left","out","Female","Right-handed","2","1","no","left","d","454.40445715","743.360745801","7","green","0"
"100","100","18","600.653635856","1","1","7","408","1","right","out","Female","Right-handed","2","1","no","right","s","594.914250784","519.811446016","7","red","3"
"100","100","18","612.616924189","1","1","7","409","0","left","in","Female","Right-handed","2","1","no","left","s","561.625774604","735.387803772","7","green","0"
"100","100","18","608.744322566","1","1","7","410","3","left","out","Female","Right-handed","2","1","no","left","s","491.261514422","695.246317726","7","red","3"
"100","100","18","609.358767211","1","1","7","411","3","right","out","Female","Right-handed","2","1","no","right","s","632.934215851","591.927765017","7","red","2"
"100","100","18","634.885712765","1","1","7","412","1","left","out","Female","Right-handed","2","1","no","left","d","696.507684619","879.587087555","7","red","2"
"100","100","18","667.149354115","1","1","7","413","0","right","out","Female","Right-handed","2","1","no","right","d","747.02073029","1038.96895684","7","green","2"
"100","100","18","727.642372463","1","1","7","414","0","right","out","Female","Right-handed","2","1","no","right","s","671.624472506","1751.54856599","7","green","2"
"100","100","18","723.402060136","1","1","7","415","2","right","in","Female","Right-handed","2","1","no","right","d","515.220429719","855.258068675","7","red","3"
"100","100","18","719.573980861","1","1","7","416","1","right","out","Female","Right-handed","2","1","no","right","s","578.890754017","783.695622194","7","green","0"
"100","100","18","739.391767045","1","1","7","417","2","left","in","Female","Right-handed","2","1","no","left","s","971.395547083","943.37928305","7","green","2"
"100","100","18","734.930527743","1","1","7","418","3","left","out","Female","Right-handed","2","1","no","left","d","594.872878721","767.918433532","7","green","3"
"100","100","18","739.194365867","1","1","7","419","1","right","out","Female","Right-handed","2","1","no","right","d","709.639947581","879.608575369","7","red","2"
"100","100","18","741.062116039","1","1","7","420","3","right","in","Female","Right-handed","2","1","no","right","d","655.145241604","879.275995287","7","red","2"
"100","100","18","748.700047241","1","1","7","421","0","right","out","Female","Right-handed","2","1","no","right","d","846.783209739","879.754820808","7","green","1"
"100","100","18","751.039517924","1","1","7","422","0","right","in","Female","Right-handed","2","1","no","right","d","593.527484842","983.414612869","7","green","0"
"100","100","18","767.620312351","1","1","7","423","3","left","out","Female","Right-handed","2","1","no","left","s","931.947123296","1167.04051191","7","green","1"
"100","100","18","763.193055084","1","1","7","424","1","right","in","Female","Right-handed","2","1","no","right","s","591.492235843","775.512612707","7","red","1"
"100","100","18","767.286619569","1","1","7","425","3","right","in","Female","Right-handed","2","1","no","right","d","619.055331448","1071.07335812","7","green","2"
"100","100","18","759.877087857","1","1","7","426","2","left","out","Female","Right-handed","2","1","no","left","d","511.608552279","711.764354983","7","red","2"
"100","100","18","758.938013218","1","1","7","427","0","left","out","Female","Right-handed","2","1","no","left","d","591.186916423","887.247975173","7","red","0"
"100","100","18","760.700563053","1","1","7","428","1","right","out","Female","Right-handed","2","1","no","right","s","543.913720323","1055.03959852","7","green","2"
"100","100","18","756.645862238","1","1","7","429","0","right","in","Female","Right-handed","2","1","no","right","s","591.38992818","735.385558776","7","green","3"
"100","100","18","767.302207857","1","1","7","430","2","right","in","Female","Right-handed","2","1","no","right","d","879.044119298","1167.06488615","7","red","1"
"100","100","18","765.548914535","1","1","7","431","1","right","in","Female","Right-handed","2","1","no","right","d","531.732373416","911.700789533","7","red","0"
"100","100","18","759.781202952","1","1","7","432","0","left","in","Female","Right-handed","2","1","no","left","s","476.382003344","743.259400278","7","green","1"
"100","100","18","765.000202508","1","1","7","433","3","right","in","Female","Right-handed","2","1","no","right","s","932.971162066","878.855218942","7","red","3"
"100","100","18","771.512245943","1","1","7","434","0","left","in","Female","Right-handed","2","1","no","left","d","980.389000033","927.30992423","7","green","2"
"100","100","18","766.946943695","1","1","7","435","3","right","out","Female","Right-handed","2","1","no","right","d","494.137674685","774.96868231","7","green","0"
"100","100","18","764.50481922","1","1","7","436","2","left","in","Female","Right-handed","2","1","no","left","d","534.805451876","847.676718047","7","red","3"
"100","100","18","786.044744649","1","1","7","437","1","right","in","Female","Right-handed","2","1","no","right","s","1076.33755243","1831.22731352","7","green","2"
"100","96","18","780.403603197","1","0","7","438","2","left","in","Female","Right-handed","2","1","no","left","s","536.884317935","662.889835494","7","green","3"
"100","97","18","789.963287151","1","1","7","439","3","right","out","Female","Right-handed","2","1","no","right","s","627.449049822","1583.41666544","7","red","2"
"100","97","18","784.934245907","1","1","7","440","1","right","in","Female","Right-handed","2","1","no","right","s","380.906503626","846.987183638","7","green","3"
"100","97","18","805.481234615","1","1","7","441","0","left","in","Female","Right-handed","2","1","no","left","d","937.661599606","2111.59007917","7","red","2"
"100","94","18","804.658330631","1","0","7","442","3","left","in","Female","Right-handed","2","1","no","left","d","695.089168024","854.978406347","7","red","2"
"100","92","18","809.656828938","1","0","7","443","2","right","out","Female","Right-handed","2","1","no","right","d","686.629061918","1302.57347069","7","green","2"
"100","89","18","811.709990726","1","0","7","444","1","right","in","Female","Right-handed","2","1","no","right","d","884.19285668","895.267420687","7","red","0"
"100","90","18","810.211242875","1","1","7","445","3","right","in","Female","Right-handed","2","1","no","right","d","616.869988449","886.650164879","7","green","0"
"100","90","18","811.726408298","1","1","7","446","1","left","out","Female","Right-handed","2","1","no","left","d","1049.34404432","695.322006153","7","red","2"
"100","90","18","815.269349244","1","1","7","447","3","left","in","Female","Right-handed","2","1","no","left","s","937.989368982","983.070487095","7","red","1"
"100","88","18","816.93692363","1","0","7","448","3","right","in","Female","Right-handed","2","1","no","right","s","615.344032769","1158.6060629","7","green","0"
"100","86","18","818.236004216","1","0","7","449","2","left","in","Female","Right-handed","2","1","no","left","d","773.086413734","975.10652505","7","red","2"
"100","86","18","828.719553493","1","1","7","450","1","left","out","Female","Right-handed","2","1","no","left","s","741.369113861","1838.6223295","7","red","0"
"100","86","18","841.620005383","1","1","7","451","0","left","in","Female","Right-handed","2","1","no","left","d","925.194176096","1919.08650482","7","green","2"
"100","87","18","844.111535155","1","1","7","452","1","left","out","Female","Right-handed","2","1","no","left","s","694.666467396","1222.77734196","7","green","2"
"100","85","18","847.292576558","1","0","7","453","1","left","out","Female","Right-handed","2","1","no","left","s","794.388857638","1199.21418735","7","red","3"
"100","83","18","849.309520469","1","0","7","454","0","left","in","Female","Right-handed","2","1","no","left","d","565.666125516","1326.5795309","7","red","3"
"100","82","18","850.331104801","1","0","7","455","3","left","out","Female","Right-handed","2","1","no","left","d","737.331007946","1063.44646615","7","green","2"
"100","80","18","846.765378689","1","0","7","456","0","right","in","Female","Right-handed","2","1","no","right","d","473.996535009","862.961611214","7","red","0"
"100","78","18","844.61428173","1","0","7","457","2","left","in","Female","Right-handed","2","1","no","left","s","695.388714599","774.42795905","7","green","0"
"100","79","18","845.582557576","1","1","7","458","1","right","in","Female","Right-handed","2","1","no","right","d","920.944719866","870.921083268","7","green","1"
"100","79","18","852.685772745","1","1","7","459","0","left","out","Female","Right-handed","2","1","no","left","d","787.783759444","1670.52859387","7","green","2"
"100","80","18","851.231161497","1","1","7","460","2","left","in","Female","Right-handed","2","1","no","left","s","618.14514603","927.219162259","7","green","0"
"100","80","18","848.474015114","1","1","7","461","2","left","in","Female","Right-handed","2","1","no","left","s","770.751297446","622.910630569","7","red","1"
"100","80","18","846.911886258","1","1","7","462","2","left","out","Female","Right-handed","2","1","no","left","s","640.355851068","878.509489596","7","green","0"
"100","81","18","842.751515333","1","1","7","463","2","right","out","Female","Right-handed","2","1","no","right","s","532.163412597","679.057332702","7","red","2"
"100","81","18","844.935860907","1","1","7","464","0","right","out","Female","Right-handed","2","1","no","right","d","800.628021523","1142.62778676","7","red","3"
"100","81","18","843.138141109","1","1","7","465","1","right","out","Female","Right-handed","2","1","no","right","d","507.157367145","966.987979011","7","red","3"
"100","81","18","841.221876841","1","1","7","466","2","left","out","Female","Right-handed","2","1","no","left","d","589.609967268","862.882074222","7","green","3"
"100","82","18","839.127031957","1","1","7","467","0","left","in","Female","Right-handed","2","1","no","left","s","528.30907562","894.373912379","7","red","3"
"100","82","18","837.347062465","1","1","7","468","3","right","out","Female","Right-handed","2","1","no","right","d","495.096608581","958.881299379","7","red","3"
"100","82","18","837.046071883","1","1","7","469","2","left","out","Female","Right-handed","2","1","no","left","d","869.694994879","766.472335559","7","red","2"
"100","100","18","801.517039838","1","1","8","470","2","right","in","Female","Right-handed","2","1","no","right","s","948.094094827","654.93998485","7","red","3"
"100","100","18","743.603044984","1","1","8","471","2","right","out","Female","Right-handed","2","1","no","right","d","747.707057563","623.671042697","7","red","2"
"100","66","18","720.312069375","1","0","8","472","3","left","in","Female","Right-handed","2","1","no","left","s","572.339535722","775.120700593","7","green","2"
"100","50","18","780.309086204","1","0","8","473","2","left","out","Female","Right-handed","2","1","no","left","d","849.907602391","1070.69267099","7","red","2"
"100","60","18","868.811428696","1","1","8","474","3","right","out","Female","Right-handed","2","1","no","right","d","494.448125524","1951.19347181","7","red","3"
"100","66","18","857.911707097","1","1","8","475","3","right","in","Female","Right-handed","2","1","no","right","d","608.07730226","998.748895943","7","green","1"
"100","71","18","822.504313828","1","1","8","476","2","left","in","Female","Right-handed","2","1","no","left","d","532.637427416","687.482481015","7","red","3"
"100","75","18","812.080005395","1","1","8","477","2","left","out","Female","Right-handed","2","1","no","left","d","503.038762095","975.180930622","7","green","0"
"100","77","18","799.872348829","1","1","8","478","0","left","in","Female","Right-handed","2","1","no","left","d","748.673367872","655.748824744","7","green","3"
"100","80","18","780.610308507","1","1","8","479","0","left","in","Female","Right-handed","2","1","no","left","s","511.261860795","703.242030426","7","red","0"
"100","81","18","779.054662031","1","1","8","480","3","right","out","Female","Right-handed","2","1","no","right","s","592.071444744","934.924949792","7","green","0"
"100","75","18","872.076721554","1","0","8","481","0","left","in","Female","Right-handed","2","1","no","left","None","790.551518483","3000.08723412","7","red","1"
"100","76","18","887.259668888","1","1","8","482","1","right","out","Female","Right-handed","2","1","no","right","d","723.951474738","1414.95859907","7","red","0"
"100","78","18","870.714280216","1","1","8","483","2","right","out","Female","Right-handed","2","1","no","right","s","575.664374419","735.584080543","7","red","2"
"100","80","18","891.307836168","1","1","8","484","3","left","out","Female","Right-handed","2","1","no","left","d","744.100311542","1615.13492745","7","green","1"
"100","81","18","883.150707607","1","1","8","485","1","right","in","Female","Right-handed","2","1","no","right","d","730.785241782","790.802316579","7","red","1"
"100","82","18","876.240779906","1","1","8","486","0","right","in","Female","Right-handed","2","1","no","right","d","636.230831746","895.133041655","7","red","3"
"100","83","18","867.802686184","1","1","8","487","0","right","out","Female","Right-handed","2","1","no","right","s","657.797864433","790.91232137","7","red","2"
"100","84","18","856.055345998","1","1","8","488","1","right","in","Female","Right-handed","2","1","no","right","d","538.562291896","750.644153422","7","red","0"
"100","85","18","850.663267957","1","1","8","489","3","left","in","Female","Right-handed","2","1","no","left","s","641.098303233","855.329267113","7","green","3"
"100","85","18","854.908674031","1","1","8","490","0","left","out","Female","Right-handed","2","1","no","left","d","784.844418587","1094.78917245","7","red","2"
"100","86","18","873.742073489","1","1","8","491","1","left","in","Female","Right-handed","2","1","no","left","s","1099.26056255","1439.22636164","7","red","2"
"100","86","18","864.988138196","1","1","8","492","3","right","in","Female","Right-handed","2","1","no","right","d","625.797374379","719.005749113","7","red","0"
"100","87","18","857.033426009","1","1","8","493","2","left","out","Female","Right-handed","2","1","no","left","s","597.531595109","750.618496328","7","red","0"
"100","88","18","868.193458339","1","1","8","494","2","right","out","Female","Right-handed","2","1","no","right","d","785.114459504","1486.95400902","7","red","2"
"100","84","18","858.99842278","1","0","8","495","2","left","in","Female","Right-handed","2","1","no","left","d","555.600206028","702.644861556","7","red","0"
"100","85","18","853.38238067","1","1","8","496","3","right","out","Female","Right-handed","2","1","no","right","s","527.425830152","887.304741496","7","green","2"
"100","85","18","847.433903431","1","1","8","497","1","right","out","Female","Right-handed","2","1","no","right","s","614.715754673","758.934281277","7","green","1"
"100","86","18","850.933554385","1","1","8","498","1","left","out","Female","Right-handed","2","1","no","left","s","827.470794209","1070.37676801","7","green","3"
"100","86","18","848.139235278","1","1","8","499","2","right","in","Female","Right-handed","2","1","no","right","s","759.097845254","775.110117042","7","red","2"
"100","87","18","848.105791566","1","1","8","500","0","right","out","Female","Right-handed","2","1","no","right","s","519.567382906","1174.63757751","7","green","2"
"100","87","18","842.689239511","1","1","8","501","0","right","in","Female","Right-handed","2","1","no","right","s","590.233113944","759.319137691","7","green","2"
"100","84","18","837.553400528","1","0","8","502","0","left","in","Female","Right-handed","2","1","no","left","s","699.728932799","646.684173358","7","green","3"
"100","85","18","836.715837607","1","1","8","503","1","left","out","Female","Right-handed","2","1","no","left","s","715.547814242","902.604708206","7","red","0"
"100","85","18","836.95285903","1","1","8","504","0","left","out","Female","Right-handed","2","1","no","left","d","563.026010521","1126.99716425","7","red","0"
"100","86","18","838.914945094","1","1","8","505","2","left","out","Female","Right-handed","2","1","no","left","d","864.561651753","950.614262907","7","green","1"
"100","86","18","841.165159899","1","1","8","506","2","left","in","Female","Right-handed","2","1","no","left","d","725.155433886","1119.19035191","7","green","0"
"100","86","18","838.407265657","1","1","8","507","0","right","out","Female","Right-handed","2","1","no","right","d","761.896713519","710.83364389","7","green","2"
"100","87","18","830.049323955","1","1","8","508","1","right","in","Female","Right-handed","2","1","no","right","d","490.369609684","534.525468835","7","green","3"
"100","87","18","830.887328955","1","1","8","509","1","right","in","Female","Right-handed","2","1","no","right","d","688.15181046","1038.98723752","7","green","2"
"100","87","18","825.353340819","1","1","8","510","3","right","out","Female","Right-handed","2","1","no","right","s","521.538489171","686.449141546","7","green","0"
"100","85","18","821.516916593","1","0","8","511","2","left","out","Female","Right-handed","2","1","no","left","s","578.207313171","750.239733474","7","green","3"
"100","83","18","825.441545539","1","0","8","512","0","left","out","Female","Right-handed","2","1","no","left","d","749.811260001","1230.74066258","7","green","0"
"100","84","18","836.426661704","1","1","8","513","0","right","out","Female","Right-handed","2","1","no","right","d","1659.29527659","958.278036949","7","red","1"
"100","82","18","834.737154117","1","0","8","514","2","left","in","Female","Right-handed","2","1","no","left","s","825.883261505","694.91437907","7","red","2"
"100","82","18","831.765481526","1","1","8","515","2","left","out","Female","Right-handed","2","1","no","left","s","677.532339163","718.548090695","7","red","3"
"100","82","18","831.729568195","1","1","8","516","2","right","in","Female","Right-handed","2","1","no","right","d","677.086226438","983.068883524","7","green","1"
"100","81","18","832.321581903","1","0","8","517","3","right","in","Female","Right-handed","2","1","no","right","d","937.658392468","782.634059922","7","red","0"
"100","81","18","832.10289131","1","1","8","518","3","left","in","Female","Right-handed","2","1","no","left","s","781.075070734","862.136414922","7","green","2"
"100","82","18","827.774939818","1","1","8","519","1","left","in","Female","Right-handed","2","1","no","left","s","528.7260034","702.684630054","7","red","3"
"100","82","18","827.914828584","1","1","8","520","3","right","out","Female","Right-handed","2","1","no","right","s","671.374315838","998.444217948","7","red","2"
"100","82","18","831.532639105","1","1","8","521","0","left","out","Female","Right-handed","2","1","no","left","d","633.105476956","1398.97647437","7","green","0"
"100","81","18","831.089612376","1","0","8","522","3","right","out","Female","Right-handed","2","1","no","right","d","625.562932684","990.541512217","7","green","2"
"100","81","18","827.665167485","1","1","8","523","3","left","out","Female","Right-handed","2","1","no","left","s","630.154590408","662.184586116","7","red","2"
"100","81","18","826.040090493","1","1","8","524","0","right","out","Female","Right-handed","2","1","no","right","d","477.75754431","998.814321532","7","green","3"
"100","82","18","824.447621088","1","1","8","525","0","left","in","Female","Right-handed","2","1","no","left","s","803.385517723","670.338089943","7","green","2"
"100","82","18","819.192704369","1","1","8","526","1","left","out","Female","Right-handed","2","1","no","left","s","546.957293125","502.877443118","7","green","0"
"100","82","18","816.458006293","1","1","8","527","1","left","out","Female","Right-handed","2","1","no","left","d","586.448371832","734.712060054","7","red","2"
"100","83","18","817.301623941","1","1","8","528","1","right","in","Female","Right-handed","2","1","no","right","d","606.335826989","1126.12706804","7","green","3"
"100","81","18","817.200868749","1","0","8","529","1","right","in","Female","Right-handed","2","1","no","right","s","743.851117015","878.661507881","7","red","2"
"100","80","18","817.277540874","1","0","8","530","3","right","in","Female","Right-handed","2","1","no","right","d","557.370224813","1086.38551195","7","green","3"
"100","80","18","817.683440413","1","1","8","531","1","right","in","Female","Right-handed","2","1","no","right","s","757.923391766","926.963232744","7","green","2"
"100","79","18","817.16517179","1","0","8","532","3","left","in","Female","Right-handed","2","1","no","left","d","603.634776395","966.430257924","7","red","3"
"100","79","18","816.639516584","1","1","8","533","1","left","in","Female","Right-handed","2","1","no","left","s","849.01633908","718.030138107","7","green","2"
dis_reply=Yes
dis_loc=2
tar_loc=1
