"acc_1","acc_2","age","avg_rt","correct_1","correct_2","count_block_loop","count_trial_sequence","cue_position","detection","dis_shape","gender","hand","high_loc","low_loc","practice","response_keyboard_response_1","response_keyboard_response_2","response_time_keyboard_response_1","response_time_keyboard_response_2","subject_nr","tar_color","tar_position"
"100","0","19","2090.82445141","1","0","0","0","3","left","out","Female","Right-handed","1","0","yes","left","None","1181.55300915","3000.09589367","27","red","0"
"100","50","19","1812.87473497","1","1","0","1","1","left","in","Female","Right-handed","1","0","yes","left","d","860.029242758","2209.8207943","27","green","3"
"100","66","19","1527.03741702","1","1","0","2","1","right","out","Female","Right-handed","1","0","yes","right","s","885.423745774","1025.3018165","27","green","0"
"100","75","19","1402.14536421","1","1","0","3","1","right","in","Female","Right-handed","1","0","yes","right","s","1005.94155874","1048.99685283","27","green","1"
"100","80","19","1301.52409994","1","1","0","4","1","left","out","Female","Right-handed","1","0","yes","left","s","868.568269075","929.509816593","27","green","3"
"100","66","19","1227.1401045","1","0","0","5","2","right","in","Female","Right-handed","1","0","yes","right","s","845.112485837","865.327768721","27","red","0"
"100","71","19","1230.73649497","1","1","0","6","3","left","in","Female","Right-handed","1","0","yes","left","d","814.888662322","1689.74101334","27","red","0"
"100","75","19","1270.67604955","1","1","0","7","3","right","out","Female","Right-handed","1","0","yes","right","d","1107.22002337","1993.28583978","27","red","1"
"100","77","19","1298.2397971","1","1","0","8","2","left","in","Female","Right-handed","1","0","yes","left","d","1483.8175429","1553.68201211","27","red","1"
"100","80","19","1257.34495774","1","1","0","9","1","left","out","Female","Right-handed","1","0","yes","left","s","961.369926014","817.212881053","27","green","2"
"100","81","19","1205.80302753","1","1","0","10","2","right","in","Female","Right-handed","1","0","yes","right","s","578.826037023","801.94141378","27","red","3"
"100","83","19","1202.18931013","1","1","0","11","0","right","in","Female","Right-handed","1","0","yes","right","d","1011.39659343","1313.48024414","27","green","2"
"100","84","19","1190.63759568","1","1","0","12","2","right","in","Female","Right-handed","1","0","yes","right","d","726.035964294","1377.9980802","27","green","2"
"100","78","19","1194.73386392","1","0","0","13","3","right","in","Female","Right-handed","1","0","yes","right","s","598.650048091","1897.32065399","27","green","2"
"100","73","19","1183.23030377","1","0","0","14","3","right","in","Female","Right-handed","1","0","yes","right","d","803.168467853","1241.19245538","27","red","1"
"100","75","19","1159.16152735","1","1","0","15","3","left","in","Female","Right-handed","1","0","yes","left","d","642.54240729","953.717354861","27","red","3"
"100","76","19","1141.48970877","1","1","0","16","1","right","out","Female","Right-handed","1","0","yes","right","s","692.153749298","1025.32747366","27","red","2"
"100","77","19","1129.67420599","1","1","0","17","2","left","in","Female","Right-handed","1","0","yes","left","d","1039.79041942","817.830898094","27","green","1"
"100","78","19","1115.84057027","1","1","0","18","0","left","out","Female","Right-handed","1","0","yes","left","d","764.376112279","969.294142436","27","red","0"
"100","75","19","1097.39734487","1","0","0","19","0","right","in","Female","Right-handed","1","0","yes","right","s","908.953614085","584.998510281","27","green","3"
"100","76","19","1131.47442415","1","1","0","20","2","left","in","Female","Right-handed","1","0","yes","left","d","2008.58296422","1617.44905529","27","green","2"
"100","77","19","1113.27376662","1","1","0","21","2","right","out","Female","Right-handed","1","0","yes","right","d","549.081040411","913.038876703","27","green","3"
"100","100","19","1161.9655251","1","1","1","22","1","left","out","Female","Right-handed","1","0","no","left","s","1426.49558039","897.435469817","27","red","1"
"100","100","19","988.801768549","1","1","1","23","3","right","in","Female","Right-handed","1","0","no","right","s","774.065541877","857.210482108","27","green","1"
"100","100","19","974.942888747","1","1","1","24","2","left","in","Female","Right-handed","1","0","no","left","s","780.671300565","1113.77895772","27","green","1"
"100","100","19","938.409927464","1","1","1","25","3","left","in","Female","Right-handed","1","0","no","left","s","872.23948914","785.38259809","27","red","1"
"100","100","19","893.694013253","1","1","1","26","2","right","out","Female","Right-handed","1","0","no","right","d","619.82843693","809.832275884","27","red","3"
"100","100","19","926.161796669","1","1","1","27","0","left","in","Female","Right-handed","1","0","no","left","d","1023.52152973","1153.47989777","27","green","1"
"100","100","19","908.653814655","1","1","1","28","3","left","in","Female","Right-handed","1","0","no","left","s","910.1508417","697.061003445","27","green","2"
"100","100","19","936.830628533","1","1","1","29","3","right","in","Female","Right-handed","1","0","no","right","s","994.578961058","1273.5576903","27","green","1"
"100","100","19","942.963348771","1","1","1","30","1","left","out","Female","Right-handed","1","0","no","left","s","1151.00750889","833.042712451","27","green","0"
"100","100","19","949.29680116","1","1","1","31","0","right","in","Female","Right-handed","1","0","no","right","d","938.779110062","1073.81663527","27","red","0"
"100","100","19","954.655678323","1","1","1","32","3","left","in","Female","Right-handed","1","0","no","left","s","1103.25406658","913.234833326","27","green","1"
"100","100","19","954.212752019","1","1","1","33","2","right","in","Female","Right-handed","1","0","no","right","d","865.884849987","1032.79627535","27","red","2"
"100","100","19","947.918168731","1","1","1","34","1","left","in","Female","Right-handed","1","0","no","left","s","919.382932274","825.383406291","27","red","1"
"100","100","19","970.817960604","1","1","1","35","1","right","out","Female","Right-handed","1","0","no","right","s","1040.00690178","1497.02360812","27","green","2"
"100","100","19","982.236697854","1","1","1","36","2","right","out","Female","Right-handed","1","0","no","right","d","994.614881093","1289.58315761","27","red","1"
"100","100","19","964.392139991","1","1","1","37","3","right","in","Female","Right-handed","1","0","no","right","s","592.173216674","801.274327405","27","green","3"
"100","100","19","974.413643622","1","1","1","38","3","left","in","Female","Right-handed","1","0","no","left","d","1155.74286001","1113.77254343","27","red","1"
"100","100","19","966.574589504","1","1","1","39","2","left","out","Female","Right-handed","1","0","no","left","d","841.292454195","825.328884808","27","red","0"
"100","100","19","982.248353861","1","1","1","40","3","left","in","Female","Right-handed","1","0","no","left","d","1719.85579389","808.896430671","27","red","2"
"100","100","19","972.606202236","1","1","1","41","1","right","in","Female","Right-handed","1","0","no","right","d","825.389499868","753.421142854","27","green","1"
"100","100","19","963.935054865","1","1","1","42","3","left","in","Female","Right-handed","1","0","no","left","d","772.063641323","808.960573592","27","red","1"
"100","100","19","987.010898203","1","1","1","43","2","right","in","Female","Right-handed","1","0","no","right","s","1101.58635064","1841.62086595","27","red","3"
"100","100","19","988.211772203","1","1","1","44","0","right","out","Female","Right-handed","1","0","no","right","d","716.07168228","1313.19031814","27","red","3"
"100","100","19","978.151384455","1","1","1","45","0","left","in","Female","Right-handed","1","0","no","left","s","659.763498637","833.761433877","27","green","1"
"100","100","19","984.651670266","1","1","1","46","2","right","out","Female","Right-handed","1","0","no","right","s","784.245985535","1497.07107388","27","red","2"
"100","100","19","980.13760186","1","1","1","47","3","right","out","Female","Right-handed","1","0","no","right","s","845.851732997","888.720050468","27","red","3"
"100","100","19","974.517140111","1","1","1","48","0","left","out","Female","Right-handed","1","0","no","left","s","943.416963943","713.353305301","27","green","3"
"100","100","19","967.662735973","1","1","1","49","0","right","out","Female","Right-handed","1","0","no","right","d","820.116310358","745.071338153","27","green","2"
"100","100","19","972.605681074","1","1","1","50","2","left","in","Female","Right-handed","1","0","no","left","s","1516.50862386","705.507663956","27","red","0"
"100","100","19","986.089720338","1","1","1","51","0","left","out","Female","Right-handed","1","0","no","left","d","1201.08901851","1553.16469946","27","red","1"
"100","100","19","979.338458263","1","1","1","52","1","right","out","Female","Right-handed","1","0","no","right","d","512.741830838","1040.85936119","27","green","3"
"100","100","19","974.177628625","1","1","1","53","0","right","in","Female","Right-handed","1","0","no","right","d","979.154512919","649.229306772","27","red","1"
"100","100","19","963.484334224","1","1","1","54","1","right","out","Female","Right-handed","1","0","no","right","d","449.82179493","792.776031843","27","green","3"
"100","100","19","961.085994546","1","1","1","55","0","right","in","Female","Right-handed","1","0","no","right","s","746.466767393","1017.41480297","27","green","1"
"100","100","19","953.330234008","1","1","1","56","0","right","out","Female","Right-handed","1","0","no","right","s","994.218477844","385.050273618","27","green","2"
"100","97","19","952.823109005","1","0","1","57","0","right","out","Female","Right-handed","1","0","no","right","s","805.514174463","1064.63329332","27","green","1"
"100","97","19","965.79249805","1","1","1","58","1","left","out","Female","Right-handed","1","0","no","left","s","1296.16935271","1569.21165464","27","green","0"
"100","97","19","986.684275699","1","1","1","59","2","left","out","Female","Right-handed","1","0","no","left","d","1038.73623052","2480.62386688","27","red","1"
"100","97","19","981.13222008","1","1","1","60","2","right","in","Female","Right-handed","1","0","no","right","d","603.198743312","937.109469836","27","green","3"
"100","95","19","992.610274509","1","0","1","61","0","right","out","Female","Right-handed","1","0","no","right","d","695.746394286","2184.76240019","27","red","3"
"100","95","19","991.67545353","1","1","1","62","1","right","out","Female","Right-handed","1","0","no","right","s","827.275622451","1081.28960625","27","red","1"
"100","95","19","1002.75045226","1","1","1","63","3","right","out","Female","Right-handed","1","0","no","right","d","1232.83719853","1680.81360163","27","red","2"
"100","95","19","995.079339236","1","1","1","64","3","right","in","Female","Right-handed","1","0","no","right","d","496.446642551","849.338542166","27","red","3"
"100","95","19","987.790876119","1","1","1","65","3","right","in","Female","Right-handed","1","0","no","right","s","475.89653362","872.877390487","27","red","3"
"100","95","19","985.663722257","1","1","1","66","1","left","out","Female","Right-handed","1","0","no","left","s","967.603655762","816.534248952","27","red","1"
"100","95","19","981.826605901","1","1","1","67","1","left","out","Female","Right-handed","1","0","no","left","d","825.185846094","793.126893619","27","green","2"
"100","95","19","980.72660814","1","1","1","68","0","left","out","Female","Right-handed","1","0","no","left","d","843.634312229","1016.61911004","27","red","2"
"100","95","19","975.40555297","1","1","1","69","0","left","in","Female","Right-handed","1","0","no","left","d","585.407100685","865.224819333","27","green","0"
"100","95","19","969.822637559","1","1","1","70","1","left","out","Female","Right-handed","1","0","no","left","s","602.813885787","800.871509863","27","green","2"
"100","96","19","967.275596794","1","1","1","71","1","right","out","Female","Right-handed","1","0","no","right","s","844.424553012","840.51664557","27","green","3"
"100","96","19","982.284159213","1","1","1","72","2","right","in","Female","Right-handed","1","0","no","right","d","992.29258665","2473.13197374","27","red","1"
"100","96","19","982.001474868","1","1","1","73","1","left","out","Female","Right-handed","1","0","no","left","d","1174.65091017","760.518236313","27","red","2"
"100","94","19","980.06939671","1","0","1","74","3","left","out","Female","Right-handed","1","0","no","left","s","854.009108936","905.193556075","27","green","0"
"100","94","19","981.072790111","1","1","1","75","2","right","in","Female","Right-handed","1","0","no","right","d","643.729692752","1424.77558797","27","red","2"
"100","94","19","980.839955628","1","1","1","76","2","left","in","Female","Right-handed","1","0","no","left","d","1232.36414449","704.16964263","27","green","1"
"100","94","19","978.528314793","1","1","1","77","1","left","out","Female","Right-handed","1","0","no","left","s","845.811322957","856.964814721","27","red","1"
"100","94","19","974.736193812","1","1","1","78","3","left","out","Female","Right-handed","1","0","no","left","s","756.328420734","768.426417006","27","green","0"
"100","94","19","979.637741354","1","1","1","79","0","left","in","Female","Right-handed","1","0","no","left","d","940.958365793","1577.09353673","27","green","3"
"100","93","19","978.610224904","1","0","1","80","3","right","in","Female","Right-handed","1","0","no","right","d","845.59067131","992.437870365","27","green","2"
"100","93","19","974.284779708","1","1","1","81","1","left","in","Female","Right-handed","1","0","no","left","s","558.121343653","880.045682588","27","red","3"
"100","93","19","970.495226513","1","1","1","82","0","left","in","Female","Right-handed","1","0","no","left","d","813.643006802","672.601062784","27","red","2"
"100","93","19","970.106740131","1","1","1","83","2","left","out","Female","Right-handed","1","0","no","left","s","604.393725924","1288.42441575","27","green","3"
"100","93","19","969.59429567","1","1","1","84","2","right","in","Female","Right-handed","1","0","no","right","d","1106.90155377","768.743924463","27","green","1"
"100","92","19","979.701424025","1","0","1","85","2","right","out","Female","Right-handed","1","0","no","right","d","912.476664004","2320.42435674","27","green","2"
"100","100","19","695.127735816","1","1","2","86","3","right","in","Female","Right-handed","1","0","no","right","d","684.646141146","705.609330486","27","red","2"
"100","100","19","724.691127783","1","1","2","87","1","right","out","Female","Right-handed","1","0","no","right","d","883.236792893","625.272246609","27","green","2"
"100","100","19","688.230768269","1","1","2","88","3","right","out","Female","Right-handed","1","0","no","right","s","373.755667428","856.864431051","27","red","3"
"100","100","19","671.661489264","1","1","2","89","0","left","out","Female","Right-handed","1","0","no","left","s","762.481651116","481.425653384","27","green","1"
"100","100","19","664.741983498","1","1","2","90","0","right","out","Female","Right-handed","1","0","no","right","s","585.125192549","689.002728319","27","green","2"
"100","100","19","669.713936471","1","1","2","91","0","right","in","Female","Right-handed","1","0","no","right","d","780.465722504","608.681680173","27","green","2"
"100","100","19","709.50951787","1","1","2","92","1","right","out","Female","Right-handed","1","0","no","right","s","975.215816874","921.350195652","27","red","1"
"100","100","19","698.929947752","1","1","2","93","2","left","in","Female","Right-handed","1","0","no","left","s","560.867943517","688.877970339","27","green","2"
"100","100","19","706.045680521","1","1","2","94","3","left","in","Female","Right-handed","1","0","no","left","s","852.475130988","673.467954357","27","green","1"
"100","100","19","723.707335737","1","1","2","95","3","left","out","Female","Right-handed","1","0","no","left","d","580.145777616","1185.17868775","27","red","3"
"100","100","19","747.832370174","1","1","2","96","0","left","in","Female","Right-handed","1","0","no","left","d","1113.624694","864.540735084","27","red","1"
"100","91","19","776.658800072","1","0","2","97","0","right","out","Female","Right-handed","1","0","no","right","d","522.232417383","1665.26664052","27","red","3"
"100","92","19","784.739552975","1","1","2","98","1","right","in","Female","Right-handed","1","0","no","right","d","450.700232229","1312.71694338","27","red","3"
"100","92","19","796.244228111","1","1","2","99","1","right","in","Female","Right-handed","1","0","no","right","s","834.249561503","1057.36044826","27","green","0"
"100","93","19","799.784982239","1","1","2","100","0","left","in","Female","Right-handed","1","0","no","left","s","1041.87121577","656.839864312","27","red","2"
"100","93","19","795.978878297","1","1","2","101","2","right","out","Female","Right-handed","1","0","no","right","s","724.327517601","753.447120736","27","red","2"
"100","94","19","784.137244419","1","1","2","102","3","left","in","Female","Right-handed","1","0","no","left","s","764.109919157","425.232285569","27","red","2"
"100","94","19","779.203051293","1","1","2","103","0","right","in","Female","Right-handed","1","0","no","right","s","629.911704063","760.73183224","27","red","0"
"100","94","19","771.265846867","1","1","2","104","0","left","in","Female","Right-handed","1","0","no","left","s","639.427947776","617.364386632","27","green","2"
"100","95","19","767.726713955","1","1","2","105","1","left","out","Female","Right-handed","1","0","no","left","d","559.903554704","841.062822538","27","green","2"
"100","90","19","808.003484854","1","0","2","106","3","left","in","Female","Right-handed","1","0","no","left","s","770.603107019","2456.47469866","27","green","1"
"100","90","19","804.279722087","1","1","2","107","3","right","in","Female","Right-handed","1","0","no","right","s","667.053983003","785.10742496","27","green","1"
"100","91","19","808.246718661","1","1","2","108","0","left","in","Female","Right-handed","1","0","no","left","s","1166.43484346","624.606443092","27","red","1"
"100","91","19","799.205678124","1","1","2","109","1","right","out","Female","Right-handed","1","0","no","right","d","525.143223124","657.380268419","27","green","2"
"100","92","19","801.373216546","1","1","2","110","1","right","in","Female","Right-handed","1","0","no","right","s","881.824045065","824.964232303","27","green","0"
"100","92","19","805.663288251","1","1","2","111","0","left","in","Female","Right-handed","1","0","no","left","d","1129.55587121","696.274290523","27","red","3"
"100","92","19","794.508704367","1","1","2","112","1","right","in","Female","Right-handed","1","0","no","right","s","487.912747668","521.066299085","27","red","3"
"100","92","19","801.263073759","1","1","2","113","2","left","in","Female","Right-handed","1","0","no","left","s","1102.56549233","864.696602382","27","red","1"
"100","93","19","801.693982464","1","1","2","114","2","left","out","Female","Right-handed","1","0","no","left","s","970.166806873","657.352045534","27","green","1"
"100","93","19","804.680075958","1","1","2","115","1","right","in","Female","Right-handed","1","0","no","right","d","725.705628252","1056.84794632","27","red","1"
"100","93","19","806.396568966","1","1","2","116","2","right","out","Female","Right-handed","1","0","no","right","d","587.306372567","1128.47634585","27","red","2"
"100","93","19","805.711970183","1","1","2","117","3","left","in","Female","Right-handed","1","0","no","left","d","855.957770867","713.021044971","27","green","0"
"100","93","19","803.22232361","1","1","2","118","2","left","out","Female","Right-handed","1","0","no","left","s","750.692503007","696.41476352","27","red","1"
"100","91","19","804.223562302","1","0","2","119","1","right","out","Female","Right-handed","1","0","no","right","d","785.214222923","889.314655342","27","red","3"
"100","91","19","800.999644511","1","1","2","120","3","right","in","Female","Right-handed","1","0","no","right","d","581.854545023","800.918334196","27","red","2"
"100","88","19","801.246198062","1","0","2","121","1","left","in","Female","Right-handed","1","0","no","left","d","683.497662151","936.25348256","27","red","1"
"100","89","19","796.126294602","1","1","2","122","0","left","in","Female","Right-handed","1","0","no","left","s","566.897698776","656.721841337","27","red","0"
"100","89","19","791.634228776","1","1","2","123","1","right","out","Female","Right-handed","1","0","no","right","d","538.334856194","712.52073019","27","red","1"
"100","89","19","787.183784755","1","1","2","124","0","right","out","Female","Right-handed","1","0","no","right","d","531.206332702","704.927491239","27","red","1"
"100","90","19","786.698281643","1","1","2","125","0","right","out","Female","Right-handed","1","0","no","right","d","726.778097886","808.749222668","27","green","3"
"100","90","19","786.444042181","1","1","2","126","2","left","out","Female","Right-handed","1","0","no","left","d","768.181711764","784.367215655","27","red","1"
"100","90","19","792.310846765","1","1","2","127","2","right","in","Female","Right-handed","1","0","no","right","d","1408.78571999","656.913949386","27","green","0"
"100","88","19","811.861504306","1","0","2","128","3","left","out","Female","Right-handed","1","0","no","left","s","449.56746825","2816.41077383","27","red","3"
"100","86","19","832.513475043","1","0","2","129","2","right","out","Female","Right-handed","1","0","no","right","None","440.894703944","3000.20172949","27","green","3"
"100","86","19","830.433816746","1","1","2","130","3","left","out","Female","Right-handed","1","0","no","left","d","685.397575462","792.460127958","27","green","2"
"100","86","19","828.642086281","1","1","2","131","3","left","out","Female","Right-handed","1","0","no","left","d","671.110702022","824.917728687","27","green","0"
"100","87","19","820.855328925","1","1","2","132","0","left","out","Female","Right-handed","1","0","no","left","d","420.590583113","504.738397909","27","red","3"
"100","87","19","816.967684716","1","1","2","133","3","right","in","Female","Right-handed","1","0","no","right","d","580.208637678","688.288176183","27","red","3"
"100","87","19","812.588857172","1","1","2","134","1","left","out","Female","Right-handed","1","0","no","left","d","571.844080105","632.966189946","27","green","1"
"100","88","19","813.358023013","1","1","2","135","3","right","in","Female","Right-handed","1","0","no","right","s","781.572508601","920.521789832","27","green","1"
"100","88","19","808.528740811","1","1","2","136","0","left","in","Female","Right-handed","1","0","no","left","s","750.100784565","384.028476891","27","green","1"
"100","88","19","809.654658586","1","1","2","137","3","left","in","Female","Right-handed","1","0","no","left","d","741.488635318","992.664294875","27","green","1"
"100","88","19","805.883450098","1","1","2","138","0","right","out","Female","Right-handed","1","0","no","right","d","563.310505937","656.250711586","27","green","1"
"100","88","19","802.281694944","1","1","2","139","2","left","out","Female","Right-handed","1","0","no","left","d","533.833306019","688.944037547","27","red","1"
"100","89","19","796.385348159","1","1","2","140","2","right","in","Female","Right-handed","1","0","no","right","s","507.4548506","448.510392918","27","green","3"
"100","89","19","793.881987518","1","1","2","141","2","right","out","Female","Right-handed","1","0","no","right","s","576.197139418","736.197165075","27","green","0"
"100","89","19","792.641508947","1","1","2","142","3","left","out","Female","Right-handed","1","0","no","left","s","837.6776799","608.671738019","27","green","1"
"100","89","19","791.480671089","1","1","2","143","2","left","out","Female","Right-handed","1","0","no","left","s","634.320567716","816.305258725","27","red","1"
"100","89","19","798.528423329","1","1","2","144","2","left","out","Female","Right-handed","1","0","no","left","d","462.845373548","1951.75073291","27","green","3"
"100","90","19","804.452077274","1","1","2","145","1","left","in","Female","Right-handed","1","0","no","left","d","467.489962435","1840.4053576","27","green","3"
"100","90","19","806.216507899","1","1","2","146","1","left","out","Female","Right-handed","1","0","no","left","d","688.011078766","1136.15361203","27","red","2"
"100","90","19","809.440745427","1","1","2","147","2","right","in","Female","Right-handed","1","0","no","right","s","835.664554334","1176.57391493","27","red","2"
"100","90","19","807.285997925","1","1","2","148","1","right","in","Female","Right-handed","1","0","no","right","s","763.049315964","584.333989623","27","green","1"
"100","90","19","804.349474325","1","1","2","149","2","right","out","Female","Right-handed","1","0","no","right","d","381.747554631","856.949420421","27","green","3"
"100","100","19","739.755012529","1","1","3","150","1","left","in","Female","Right-handed","1","0","no","left","s","670.298331931","809.211693126","27","red","2"
"100","100","19","742.767805514","1","1","3","151","2","left","out","Female","Right-handed","1","0","no","left","d","874.749401627","616.81179537","27","green","1"
"100","100","19","722.158952358","1","1","3","152","0","right","out","Female","Right-handed","1","0","no","right","d","481.392940494","880.489551599","27","red","0"
"100","100","19","701.141735971","1","1","3","153","3","right","out","Female","Right-handed","1","0","no","right","s","523.022978881","753.157194735","27","green","2"
"100","100","19","695.427219113","1","1","3","154","0","left","in","Female","Right-handed","1","0","no","left","d","784.504160791","560.634142571","27","green","3"
"100","100","19","676.052112275","1","1","3","155","0","left","out","Female","Right-handed","1","0","no","left","s","541.230267633","617.122888535","27","red","1"
"100","100","19","666.606448682","1","1","3","156","2","right","in","Female","Right-handed","1","0","no","right","d","554.890785453","664.974148799","27","green","3"
"100","100","19","676.466976659","1","1","3","157","2","left","out","Female","Right-handed","1","0","no","left","d","626.495131392","864.486213602","27","red","1"
"100","100","19","666.526318393","1","1","3","158","3","left","in","Female","Right-handed","1","0","no","left","d","580.781754675","593.220349854","27","red","2"
"100","100","19","661.944646584","1","1","3","159","0","right","out","Female","Right-handed","1","0","no","right","d","496.747472849","744.671727757","27","red","3"
"100","100","19","676.479595685","1","1","3","160","0","right","out","Female","Right-handed","1","0","no","right","d","723.299627297","920.358546097","27","red","2"
"100","100","19","683.671142025","1","1","3","161","2","right","in","Female","Right-handed","1","0","no","right","d","588.815976206","936.740327328","27","green","2"
"100","92","19","724.080394665","1","0","3","162","0","left","in","Female","Right-handed","1","0","no","left","s","921.519212248","1496.46364043","27","green","0"
"100","92","19","719.192166647","1","1","3","163","1","right","out","Female","Right-handed","1","0","no","right","d","574.152583821","737.137821007","27","red","3"
"100","93","19","729.19483209","1","1","3","164","3","left","in","Female","Right-handed","1","0","no","left","s","1065.74585228","672.718444329","27","green","2"
"100","93","19","724.543709311","1","1","3","165","3","left","in","Female","Right-handed","1","0","no","left","s","717.241649153","592.312086097","27","red","1"
"100","88","19","746.205375558","1","0","3","166","2","right","out","Female","Right-handed","1","0","no","right","d","808.782897701","1376.8011733","27","red","0"
"100","88","19","741.408171587","1","1","3","167","1","right","in","Female","Right-handed","1","0","no","right","d","631.332149042","688.379259131","27","red","3"
"100","89","19","742.206664676","1","1","3","168","2","right","in","Female","Right-handed","1","0","no","right","d","832.059080762","681.099999775","27","red","1"
"100","90","19","736.851246473","1","1","3","169","3","left","in","Female","Right-handed","1","0","no","left","s","597.619912785","672.576688475","27","red","2"
"100","90","19","733.967152441","1","1","3","170","0","left","out","Female","Right-handed","1","0","no","left","d","576.363590298","776.206953285","27","green","3"
"100","90","19","737.238139077","1","1","3","171","0","right","out","Female","Right-handed","1","0","no","right","s","938.923752348","672.933964543","27","red","1"
"100","91","19","735.182486819","1","1","3","172","1","left","in","Female","Right-handed","1","0","no","left","s","619.51766448","760.398609767","27","green","1"
"100","87","19","746.297911154","1","0","3","173","0","left","out","Female","Right-handed","1","0","no","left","s","578.934438558","1424.97090317","27","green","1"
"100","88","19","757.066590294","1","1","3","174","0","right","in","Female","Right-handed","1","0","no","right","d","806.496523293","1224.53325602","27","red","2"
"100","88","19","749.263596097","1","1","3","175","3","left","out","Female","Right-handed","1","0","no","left","s","500.187136971","608.1903454","27","green","3"
"100","88","19","747.543845814","1","1","3","176","0","right","in","Female","Right-handed","1","0","no","right","s","740.774083181","664.886593712","27","red","1"
"100","89","19","747.969160679","1","1","3","177","1","right","out","Female","Right-handed","1","0","no","right","s","518.511165839","1000.39415825","27","green","1"
"100","89","19","748.916783662","1","1","3","178","3","left","out","Female","Right-handed","1","0","no","left","s","982.958188117","567.94226624","27","red","0"
"100","90","19","751.322354417","1","1","3","179","3","left","out","Female","Right-handed","1","0","no","left","s","745.566200786","896.601611848","27","green","1"
"100","90","19","774.571546757","1","1","3","180","1","right","in","Female","Right-handed","1","0","no","right","d","1776.00265808","1168.09197582","27","red","2"
"100","90","19","773.954409257","1","1","3","181","2","left","in","Female","Right-handed","1","0","no","left","d","820.785321021","688.860972465","27","red","1"
"100","90","19","767.052048025","1","1","3","182","2","right","out","Female","Right-handed","1","0","no","right","s","652.179560409","440.173416801","27","green","0"
"100","91","19","762.912653812","1","1","3","183","0","right","in","Female","Right-handed","1","0","no","right","d","604.738814838","647.886474728","27","green","1"
"100","91","19","758.946294919","1","1","3","184","0","right","in","Female","Right-handed","1","0","no","right","s","615.585382727","632.594802435","27","red","2"
"100","91","19","754.713952329","1","1","3","185","2","right","out","Female","Right-handed","1","0","no","right","s","485.104891315","728.059032013","27","green","3"
"100","91","19","756.794401717","1","1","3","186","3","right","out","Female","Right-handed","1","0","no","right","s","750.773002373","912.608156991","27","green","1"
"100","92","19","750.962894958","1","1","3","187","2","left","out","Female","Right-handed","1","0","no","left","s","574.131095942","496.263193798","27","green","3"
"100","92","19","747.052939118","1","1","3","188","1","right","in","Female","Right-handed","1","0","no","right","d","620.918866582","576.030367824","27","green","1"
"100","92","19","746.417818326","1","1","3","189","1","right","in","Female","Right-handed","1","0","no","right","d","594.660679139","848.635535755","27","red","1"
"100","92","19","747.50836629","1","1","3","190","1","left","in","Female","Right-handed","1","0","no","left","d","542.076954186","1040.18361553","27","red","1"
"100","92","19","743.455883423","1","1","3","191","3","right","out","Female","Right-handed","1","0","no","right","s","626.857538894","527.75063285","27","red","1"
"100","93","19","749.894982749","1","1","3","192","3","right","out","Female","Right-handed","1","0","no","right","s","544.289564235","1496.38474463","27","red","3"
"100","93","19","748.986250294","1","1","3","193","0","left","in","Female","Right-handed","1","0","no","left","s","907.862543004","511.958966491","27","red","3"
"100","91","19","754.698791437","1","0","3","194","1","left","in","Female","Right-handed","1","0","no","left","d","659.637137083","1352.46406633","27","green","3"
"100","91","19","752.110947006","1","1","3","195","1","right","in","Female","Right-handed","1","0","no","right","s","615.109442255","656.20645297","27","green","3"
"100","91","19","751.568094817","1","1","3","196","3","right","out","Female","Right-handed","1","0","no","right","d","796.542824861","656.65096341","27","green","1"
"100","91","19","747.635491497","1","1","3","197","3","left","out","Female","Right-handed","1","0","no","left","d","477.392346531","648.213924338","27","red","3"
"100","91","19","743.519036928","1","1","3","198","3","left","in","Female","Right-handed","1","0","no","left","s","459.864010594","631.994424697","27","green","3"
"100","92","19","739.3798021","1","1","3","199","2","right","out","Female","Right-handed","1","0","no","right","s","624.544865888","448.569725119","27","green","2"
"100","92","19","738.749955847","1","1","3","200","1","left","out","Female","Right-handed","1","0","no","left","d","798.247743693","616.267542689","27","red","0"
"100","92","19","736.20384149","1","1","3","201","3","left","in","Female","Right-handed","1","0","no","left","s","660.792351085","551.911667501","27","green","0"
"100","90","19","740.584250392","1","0","3","202","0","left","in","Female","Right-handed","1","0","no","left","s","1264.45260271","672.278423893","27","green","1"
"100","90","19","737.406226465","1","1","3","203","2","left","out","Female","Right-handed","1","0","no","left","d","521.91587207","616.026044591","27","red","3"
"100","90","19","740.106848111","1","1","3","204","1","left","in","Female","Right-handed","1","0","no","left","d","1123.40103725","648.479796744","27","red","1"
"100","91","19","738.966166282","1","1","3","205","2","left","out","Female","Right-handed","1","0","no","left","d","760.195918137","592.261413191","27","green","1"
"100","91","19","740.321583009","1","1","3","206","2","left","out","Female","Right-handed","1","0","no","left","d","1072.63800911","559.811830328","27","red","2"
"100","91","19","736.159776941","1","1","3","207","1","right","in","Female","Right-handed","1","0","no","right","s","573.452463842","424.421198337","27","green","2"
"100","91","19","733.607185373","1","1","3","208","1","right","out","Female","Right-handed","1","0","no","right","s","443.167608339","727.946140472","27","green","2"
"100","91","19","733.214818597","1","1","3","209","1","right","in","Female","Right-handed","1","0","no","right","s","636.62746786","783.502889799","27","green","0"
"100","91","19","730.575311473","1","1","3","210","2","right","in","Female","Right-handed","1","0","no","right","s","504.281379599","640.128388471","27","green","2"
"100","91","19","728.337306246","1","1","3","211","2","left","out","Female","Right-handed","1","0","no","left","s","823.791699714","359.846275076","27","red","1"
"100","92","19","726.759343718","1","1","3","212","0","left","out","Female","Right-handed","1","0","no","left","d","586.493681762","671.357652266","27","green","2"
"100","90","19","728.389275348","1","0","3","213","3","right","in","Female","Right-handed","1","0","no","right","s","1006.09165318","656.058282823","27","red","1"
"100","100","19","925.247519513","1","1","4","214","3","right","in","Female","Right-handed","1","0","no","right","d","634.247765501","1216.24727353","27","green","1"
"100","100","19","840.051689573","1","1","4","215","0","right","in","Female","Right-handed","1","0","no","right","s","644.86790888","864.843810385","27","red","1"
"100","100","19","745.682833996","1","1","4","216","1","right","in","Female","Right-handed","1","0","no","right","s","513.422707941","600.467537748","27","red","2"
"100","75","19","732.761469796","1","0","4","217","0","right","out","Female","Right-handed","1","0","no","right","s","732.08079314","655.913961252","27","red","0"
"100","80","19","738.830841327","1","1","4","218","0","left","out","Female","Right-handed","1","0","no","left","d","701.599756514","824.616898389","27","green","2"
"100","83","19","705.479788512","1","1","4","219","2","right","out","Female","Right-handed","1","0","no","right","s","637.289743515","440.159305358","27","green","1"
"100","85","19","719.186279243","1","1","4","220","3","right","out","Female","Right-handed","1","0","no","right","d","489.952492546","1112.89795471","27","red","3"
"100","87","19","731.843404199","1","1","4","221","0","right","in","Female","Right-handed","1","0","no","right","d","688.509148545","952.377409248","27","red","1"
"100","88","19","739.242189878","1","1","4","222","1","left","out","Female","Right-handed","1","0","no","left","s","508.936552068","1087.92839854","27","green","1"
"100","90","19","735.724928857","1","1","4","223","0","right","in","Female","Right-handed","1","0","no","right","s","839.609023241","568.530136108","27","red","3"
"100","90","19","731.04001594","1","1","4","224","1","right","in","Female","Right-handed","1","0","no","right","s","704.109348286","664.272425247","27","green","3"
"100","91","19","728.437742507","1","1","4","225","3","right","out","Female","Right-handed","1","0","no","right","d","583.876329883","815.749139602","27","green","2"
"100","92","19","721.675577886","1","1","4","226","2","right","in","Female","Right-handed","1","0","no","right","s","480.536632504","800.522572375","27","green","3"
"100","92","19","732.134489928","1","1","4","227","2","left","out","Female","Right-handed","1","0","no","left","d","512.132152376","1224.06854056","27","green","3"
"100","93","19","740.799857945","1","1","4","228","1","left","in","Female","Right-handed","1","0","no","left","d","699.674186034","1024.55583433","27","red","0"
"100","93","19","732.198806092","1","1","4","229","1","right","in","Female","Right-handed","1","0","no","right","d","510.197601889","696.168454704","27","red","3"
"100","94","19","722.682100761","1","1","4","230","2","left","in","Female","Right-handed","1","0","no","left","d","484.861789645","655.967841306","27","red","3"
"100","94","19","726.308580616","1","1","4","231","3","left","in","Female","Right-handed","1","0","no","left","d","839.444175936","736.473300349","27","green","1"
"100","89","19","779.057000488","1","0","4","232","1","left","in","Female","Right-handed","1","0","no","left","d","689.049552651","2768.00756373","27","red","2"
"100","90","19","771.231306748","1","1","4","233","0","left","out","Female","Right-handed","1","0","no","left","s","636.471600561","608.614650821","27","green","1"
"100","85","19","771.563265453","1","0","4","234","2","left","out","Female","Right-handed","1","0","no","left","s","556.169795291","1000.2350838","27","red","1"
"100","86","19","767.232593339","1","1","4","235","3","right","in","Female","Right-handed","1","0","no","right","d","703.768749377","648.808208498","27","red","1"
"100","86","19","759.740838059","1","1","4","236","3","left","in","Female","Right-handed","1","0","no","left","s","525.51012063","664.334323166","27","red","1"
"100","87","19","759.669371574","1","1","4","237","0","left","out","Female","Right-handed","1","0","no","left","s","460.118978704","1055.93230613","27","green","3"
"100","88","19","758.287287803","1","1","4","238","0","left","in","Female","Right-handed","1","0","no","left","s","641.60463779","808.629916835","27","green","1"
"100","88","19","751.493241026","1","1","4","239","3","left","out","Female","Right-handed","1","0","no","left","s","563.070932128","600.213211068","27","green","3"
"100","88","19","761.631905896","1","1","4","240","1","right","out","Female","Right-handed","1","0","no","right","d","1058.82803828","991.646346723","27","green","1"
"100","89","19","753.714482175","1","1","4","241","2","right","in","Female","Right-handed","1","0","no","right","s","527.449802552","552.43828088","27","red","0"
"100","89","19","748.293325532","1","1","4","242","2","left","in","Female","Right-handed","1","0","no","left","s","433.054194033","759.947685034","27","red","3"
"100","90","19","741.620855258","1","1","4","243","1","left","out","Female","Right-handed","1","0","no","left","s","671.63314611","424.605288519","27","red","1"
"100","90","19","763.427800578","1","1","4","244","2","left","in","Female","Right-handed","1","0","no","left","s","683.173740402","2152.09857997","27","red","2"
"100","90","19","762.016745231","1","1","4","245","0","left","out","Female","Right-handed","1","0","no","left","d","748.743841077","687.804217846","27","red","2"
"100","87","19","759.920142452","1","0","4","246","1","left","in","Female","Right-handed","1","0","no","left","s","593.432662922","792.225044154","27","green","2"
"100","88","19","752.89037905","1","1","4","247","1","right","out","Female","Right-handed","1","0","no","right","s","457.949985841","583.866387731","27","red","2"
"100","88","19","752.694870889","1","1","4","248","2","left","in","Female","Right-handed","1","0","no","left","d","796.600874203","695.494312609","27","green","1"
"100","88","19","763.235949591","1","1","4","249","3","left","out","Female","Right-handed","1","0","no","left","s","568.159069312","1696.18833901","27","red","0"
"100","89","19","760.520342628","1","1","4","250","3","right","out","Female","Right-handed","1","0","no","right","d","677.671881379","647.845102543","27","red","2"
"100","86","19","762.711633026","1","0","4","251","0","right","out","Female","Right-handed","1","0","no","right","s","663.35229505","1024.22646043","27","red","1"
"100","87","19","761.423679427","1","1","4","252","3","right","in","Female","Right-handed","1","0","no","right","s","681.026556131","743.936329171","27","green","1"
"100","87","19","758.489712438","1","1","4","253","2","right","in","Female","Right-handed","1","0","no","right","s","576.644857005","711.485142735","27","green","1"
"100","87","19","754.274877306","1","1","4","254","3","left","in","Female","Right-handed","1","0","no","left","s","539.130549125","632.232394933","27","green","3"
"100","88","19","754.381702181","1","1","4","255","3","left","out","Female","Right-handed","1","0","no","left","s","749.715285611","767.807758535","27","green","1"
"100","88","19","747.602593077","1","1","4","256","3","right","out","Female","Right-handed","1","0","no","right","s","485.378460871","440.381560578","27","green","3"
"100","86","19","744.328563131","1","0","4","257","0","left","in","Female","Right-handed","1","0","no","left","s","463.042292314","744.048258568","27","green","0"
"100","86","19","741.889688929","1","1","4","258","2","right","out","Female","Right-handed","1","0","no","right","s","557.525776635","711.632671453","27","red","1"
"100","86","19","740.993207948","1","1","4","259","2","right","in","Female","Right-handed","1","0","no","right","d","633.008844989","768.294282589","27","red","0"
"100","87","19","737.13578754","1","1","4","260","0","left","out","Female","Right-handed","1","0","no","left","s","559.831073204","559.557824362","27","red","3"
"100","87","19","736.848305921","1","1","4","261","0","left","in","Female","Right-handed","1","0","no","left","d","479.269489105","967.403850563","27","red","3"
"100","85","19","748.239301372","1","0","4","262","3","right","in","Female","Right-handed","1","0","no","right","d","1534.04433623","1055.96982974","27","green","2"
"100","86","19","748.245755262","1","1","4","263","3","left","out","Female","Right-handed","1","0","no","left","d","521.62754964","975.496442153","27","red","0"
"100","86","19","743.135102341","1","1","4","264","2","right","in","Female","Right-handed","1","0","no","right","s","583.068770512","392.136142066","27","green","2"
"100","86","19","740.694848171","1","1","4","265","3","right","in","Female","Right-handed","1","0","no","right","d","584.725261439","647.758509601","27","green","2"
"100","86","19","740.922153483","1","1","4","266","0","left","out","Female","Right-handed","1","0","no","left","d","834.259182942","671.224876421","27","red","1"
"100","87","19","738.979257355","1","1","4","267","1","right","out","Female","Right-handed","1","0","no","right","s","527.927988026","744.083537173","27","red","3"
"100","87","19","739.071977891","1","1","4","268","0","left","in","Female","Right-handed","1","0","no","left","d","768.619166481","719.538607142","27","red","2"
"100","87","19","737.431294914","1","1","4","269","0","right","out","Female","Right-handed","1","0","no","right","s","559.250579773","735.136882597","27","green","2"
"100","87","19","736.200586031","1","1","4","270","2","right","out","Female","Right-handed","1","0","no","right","d","558.635449162","775.926328007","27","green","2"
"100","87","19","737.341286775","1","1","4","271","2","right","out","Female","Right-handed","1","0","no","right","d","925.386388936","679.336069456","27","green","1"
"100","88","19","738.486773809","1","1","4","272","1","left","out","Female","Right-handed","1","0","no","left","d","593.884870513","1015.96517296","27","red","1"
"100","86","19","746.455023893","1","0","4","273","1","left","in","Female","Right-handed","1","0","no","left","s","553.618510621","1879.54504709","27","green","3"
"100","86","19","742.006223998","1","1","4","274","1","left","out","Female","Right-handed","1","0","no","left","s","518.071466118","432.084994501","27","green","1"
"100","87","19","739.736817148","1","1","4","275","1","right","out","Female","Right-handed","1","0","no","right","d","538.86275243","663.743246151","27","red","0"
"100","87","19","738.078655114","1","1","4","276","2","right","out","Female","Right-handed","1","0","no","right","d","519.349834527","751.195383506","27","green","2"
"100","85","19","737.819910812","1","0","4","277","1","left","in","Female","Right-handed","1","0","no","left","d","739.074295783","703.963743855","27","green","1"
"100","100","19","651.276428086","1","1","5","278","1","left","out","Female","Right-handed","1","0","no","left","d","734.76164651","567.791209662","27","red","1"
"100","100","19","577.103719423","1","1","5","279","1","left","out","Female","Right-handed","1","0","no","left","s","429.398688983","576.463332539","27","green","1"
"100","100","19","702.755558492","1","1","5","280","0","right","in","Female","Right-handed","1","0","no","right","s","1124.00494285","784.113530404","27","red","3"
"100","100","19","751.475928605","1","1","5","281","2","right","in","Female","Right-handed","1","0","no","right","d","610.677166435","1184.59691145","27","red","1"
"100","100","19","790.105280983","1","1","5","282","3","right","in","Female","Right-handed","1","0","no","right","d","721.116522992","1168.128858","27","green","3"
"100","100","19","761.529903804","1","1","5","283","3","right","in","Female","Right-handed","1","0","no","right","s","781.692135148","455.613900669","27","red","1"
"100","100","19","733.015011872","1","1","5","284","1","right","out","Female","Right-handed","1","0","no","right","s","515.386122743","608.465197815","27","green","3"
"100","100","19","734.879669484","1","1","5","285","3","right","in","Female","Right-handed","1","0","no","right","d","719.891072492","775.973473053","27","red","0"
"100","100","19","712.449852263","1","1","5","286","2","right","out","Female","Right-handed","1","0","no","right","s","449.435654548","616.586974433","27","green","3"
"100","100","19","709.38263401","1","1","5","287","2","left","out","Female","Right-handed","1","0","no","left","d","627.222832827","736.332506638","27","green","2"
"100","100","19","695.108697031","1","1","5","288","2","left","out","Female","Right-handed","1","0","no","left","s","624.763272533","479.975381947","27","green","0"
"100","100","19","726.344518469","1","1","5","289","1","right","in","Female","Right-handed","1","0","no","right","d","571.478465457","1568.39864312","27","green","1"
"100","100","19","716.057694189","1","1","5","290","2","left","in","Female","Right-handed","1","0","no","left","d","569.158095302","616.073510353","27","red","0"
"100","100","19","703.814256488","1","1","5","291","2","left","out","Female","Right-handed","1","0","no","left","d","513.701088217","575.598044539","27","green","3"
"100","100","19","717.23697741","1","1","5","292","1","right","in","Female","Right-handed","1","0","no","right","d","738.111510543","1072.1986301","27","green","2"
"100","100","19","708.396530814","1","1","5","293","1","right","out","Female","Right-handed","1","0","no","right","s","503.679398288","647.900265455","27","green","1"
"100","100","19","700.726129934","1","1","5","294","3","left","in","Female","Right-handed","1","0","no","left","d","532.487266828","623.512164865","27","green","2"
"100","100","19","688.133467021","1","1","5","295","1","right","in","Female","Right-handed","1","0","no","right","d","404.075384608","544.041010418","27","red","0"
"100","100","19","685.717918711","1","1","5","296","2","right","out","Female","Right-handed","1","0","no","right","d","708.621161327","575.854936935","27","green","1"
"100","100","19","683.600459199","1","1","5","297","1","right","out","Female","Right-handed","1","0","no","right","s","838.282868355","448.454588576","27","red","2"
"100","100","19","719.492378424","1","1","5","298","2","right","in","Female","Right-handed","1","0","no","right","s","530.83686948","2343.82465635","27","green","2"
"100","100","19","728.24026492","1","1","5","299","2","right","out","Female","Right-handed","1","0","no","right","s","720.506523817","1103.38523885","27","red","1"
"100","100","19","717.016395948","1","1","5","300","2","right","in","Female","Right-handed","1","0","no","right","s","516.134991343","424.047565824","27","green","2"
"95","100","19","717.560285793","0","1","5","301","0","left","out","Female","Right-handed","1","0","no","right","s","505.546919424","954.592585014","27","red","1"
"96","100","19","742.443325721","1","1","5","302","0","left","in","Female","Right-handed","1","0","no","left","d","2047.01868515","632.253882812","27","red","2"
"96","100","19","753.68821794","1","1","5","303","3","right","in","Female","Right-handed","1","0","no","right","s","1093.78496791","975.836078918","27","green","1"
"96","100","19","753.208324958","1","1","5","304","3","left","out","Female","Right-handed","1","0","no","left","d","690.233951682","791.228263166","27","red","2"
"96","100","19","758.268681087","1","1","5","305","3","right","in","Female","Right-handed","1","0","no","right","d","1029.86013315","759.936460023","27","green","1"
"96","100","19","750.674122743","1","1","5","306","1","right","out","Female","Right-handed","1","0","no","right","s","524.465232453","551.587745752","27","red","1"
"96","100","19","745.684993475","1","1","5","307","3","right","out","Female","Right-handed","1","0","no","right","s","586.858334267","615.142155145","27","red","3"
"96","100","19","741.395783267","1","1","5","308","3","right","out","Female","Right-handed","1","0","no","right","d","465.70614781","759.73280625","27","red","3"
"96","100","19","738.360640645","1","1","5","309","0","left","in","Female","Right-handed","1","0","no","left","d","665.267281946","623.275156773","27","red","1"
"96","100","19","733.529859467","1","1","5","310","1","left","out","Female","Right-handed","1","0","no","left","s","517.961781723","639.927941843","27","red","3"
"97","100","19","733.82694738","1","1","5","311","0","left","in","Female","Right-handed","1","0","no","left","d","903.644183824","583.617513198","27","red","2"
"97","97","19","732.266518967","1","0","5","312","0","left","in","Female","Right-handed","1","0","no","left","s","582.216311096","776.207594715","27","green","3"
"97","97","19","725.50373841","1","1","5","313","0","left","in","Female","Right-handed","1","0","no","left","s","497.726293819","479.886544002","27","green","3"
"97","97","19","720.596419253","1","1","5","314","3","left","in","Female","Right-handed","1","0","no","left","d","464.463699437","623.402159757","27","green","3"
"97","97","19","719.91022675","1","1","5","315","0","left","in","Female","Right-handed","1","0","no","left","d","709.005698136","680.036510149","27","green","2"
"97","97","19","722.916537815","1","1","5","316","0","left","out","Female","Right-handed","1","0","no","left","s","538.72965587","1135.58306075","27","green","3"
"97","97","19","729.749189955","1","1","5","317","3","left","in","Female","Right-handed","1","0","no","left","s","857.268531451","1135.17671535","27","red","1"
"97","97","19","732.457089149","1","1","5","318","2","right","out","Female","Right-handed","1","0","no","right","s","617.76207274","1063.78404105","27","green","2"
"97","97","19","733.621899352","1","1","5","319","2","left","in","Female","Right-handed","1","0","no","left","d","691.378582101","871.379653289","27","green","1"
"97","97","19","731.898727935","1","1","5","320","1","left","out","Female","Right-handed","1","0","no","left","d","646.97115525","672.079901554","27","green","1"
"97","97","19","737.525462917","1","1","5","321","3","left","in","Female","Right-handed","1","0","no","left","s","1247.41047011","711.539664219","27","green","2"
"97","97","19","740.86065118","1","1","5","322","3","left","in","Female","Right-handed","1","0","no","left","s","568.078890661","1207.13897879","27","green","2"
"97","97","19","743.444028769","1","1","5","323","3","left","in","Female","Right-handed","1","0","no","left","s","1127.64312932","591.748911255","27","red","1"
"97","97","19","745.08865333","1","1","5","324","1","left","out","Female","Right-handed","1","0","no","left","d","546.138804639","1095.3439616","27","green","3"
"97","97","19","744.011379729","1","1","5","325","1","left","out","Female","Right-handed","1","0","no","left","s","690.827273698","695.931767326","27","red","2"
"97","97","19","742.278385211","1","1","5","326","1","right","out","Female","Right-handed","1","0","no","right","s","638.621671264","679.567625401","27","green","3"
"98","98","19","740.855612041","1","1","5","327","3","right","out","Female","Right-handed","1","0","no","right","s","823.132310488","519.147142898","27","green","1"
"98","98","19","738.883165601","1","1","5","328","0","right","in","Female","Right-handed","1","0","no","right","d","560.738054103","719.7836331","27","red","2"
"98","98","19","738.094700781","1","1","5","329","0","left","out","Female","Right-handed","1","0","no","left","s","716.349100412","679.416889537","27","red","1"
"98","98","19","741.204920892","1","1","5","330","0","right","out","Female","Right-handed","1","0","no","right","s","933.942733842","871.929999548","27","red","0"
"98","98","19","741.794600019","1","1","5","331","0","left","in","Female","Right-handed","1","0","no","left","d","434.61030129","1111.48488616","27","red","0"
"98","98","19","743.018126177","1","1","5","332","3","right","in","Female","Right-handed","1","0","no","right","d","683.120501777","935.05657566","27","green","0"
"98","98","19","743.510889796","1","1","5","333","1","right","out","Female","Right-handed","1","0","no","right","d","805.650798884","735.574978745","27","red","2"
"98","98","19","741.303974038","1","1","5","334","2","right","in","Female","Right-handed","1","0","no","right","d","548.090353001","687.343030246","27","red","3"
"98","98","19","740.377126975","1","1","5","335","0","left","out","Female","Right-handed","1","0","no","left","d","736.06438923","639.029299524","27","red","1"
"98","98","19","743.465213008","1","1","5","336","2","left","out","Female","Right-handed","1","0","no","left","s","493.620505466","1351.52790041","27","green","3"
"98","98","19","739.435019533","1","1","5","337","0","right","out","Female","Right-handed","1","0","no","right","s","596.12377916","407.183429831","27","red","1"
"98","98","19","738.923423221","1","1","5","338","2","left","out","Female","Right-handed","1","0","no","left","s","736.678236981","679.777052036","27","red","1"
"98","98","19","737.832848349","1","1","5","339","2","right","out","Female","Right-handed","1","0","no","right","d","615.296418868","727.319143422","27","green","1"
"98","98","19","734.262156424","1","1","5","340","0","right","in","Female","Right-handed","1","0","no","right","d","474.896866201","550.861647889","27","red","1"
"98","96","19","733.736690244","1","0","5","341","1","left","in","Female","Right-handed","1","0","no","left","d","721.681301408","679.583340416","27","red","0"
"100","100","19","924.420717265","1","1","6","342","0","left","out","Female","Right-handed","1","0","no","left","d","1272.42236061","576.419073923","27","red","1"
"100","100","19","961.025638888","1","1","6","343","2","left","out","Female","Right-handed","1","0","no","left","d","731.183433679","1264.07768734","27","green","1"
"100","100","19","861.091075357","1","1","6","344","1","right","in","Female","Right-handed","1","0","no","right","d","698.684140053","623.75975654","27","green","2"
"100","100","19","776.876324752","1","1","6","345","3","right","in","Female","Right-handed","1","0","no","right","s","497.388902056","551.075243816","27","red","3"
"100","100","19","747.469385386","1","1","6","346","1","right","out","Female","Right-handed","1","0","no","right","s","579.919673821","679.763582023","27","red","0"
"100","100","19","738.559735928","1","1","6","347","3","left","in","Female","Right-handed","1","0","no","left","d","652.446074245","735.576903032","27","green","1"
"100","100","19","722.91683151","1","1","6","348","1","left","in","Female","Right-handed","1","0","no","left","d","561.981785335","696.137024673","27","red","0"
"100","100","19","721.962948964","1","1","6","349","1","left","out","Female","Right-handed","1","0","no","left","s","542.738909127","887.83263316","27","red","1"
"100","100","19","719.890145983","1","1","6","350","3","right","out","Female","Right-handed","1","0","no","right","s","671.358293696","735.257150572","27","green","3"
"100","100","19","712.743835304","1","1","6","351","0","left","in","Female","Right-handed","1","0","no","left","d","568.94482009","727.909258293","27","red","1"
"100","100","19","702.673027934","1","1","6","352","1","right","out","Female","Right-handed","1","0","no","right","s","636.561721365","567.368187099","27","green","3"
"100","100","19","721.459166456","1","1","6","353","0","right","out","Female","Right-handed","1","0","no","right","s","729.146895947","1127.06648446","27","red","1"
"100","92","19","762.277096875","1","0","6","354","1","right","in","Female","Right-handed","1","0","no","right","d","496.649654895","2007.53486889","27","red","1"
"100","92","19","749.447947081","1","1","6","355","2","right","out","Female","Right-handed","1","0","no","right","s","749.127415743","416.210583774","27","green","2"
"100","93","19","740.613255498","1","1","6","356","2","right","out","Female","Right-handed","1","0","no","right","s","657.857812463","575.99733422","27","green","1"
"100","93","19","741.785797442","1","1","6","357","0","left","in","Female","Right-handed","1","0","no","left","s","839.39991732","679.347935896","27","red","3"
"100","94","19","726.213310037","1","1","6","358","3","right","in","Female","Right-handed","1","0","no","right","d","386.000550988","568.106472117","27","red","3"
"100","94","19","729.049069085","1","1","6","359","1","left","in","Female","Right-handed","1","0","no","left","d","658.747795487","895.766150306","27","red","3"
"100","94","19","727.112620098","1","1","6","360","3","left","in","Female","Right-handed","1","0","no","left","d","737.18753177","647.325544886","27","green","2"
"100","95","19","725.928500848","1","1","6","361","2","left","in","Female","Right-handed","1","0","no","left","s","526.826333364","880.034136863","27","red","2"
"100","95","19","719.170510775","1","1","6","362","1","right","out","Female","Right-handed","1","0","no","right","d","520.546420713","647.474997891","27","green","1"
"100","95","19","719.690443641","1","1","6","363","2","left","in","Female","Right-handed","1","0","no","left","d","694.17777916","767.040288489","27","green","1"
"100","95","19","716.880531481","1","1","6","364","0","left","out","Female","Right-handed","1","0","no","left","s","862.567698843","447.557229116","27","green","2"
"100","95","19","714.604392924","1","1","6","365","2","right","in","Female","Right-handed","1","0","no","right","d","485.327146536","839.179265672","27","green","3"
"100","96","19","714.813820362","1","1","6","366","0","left","out","Female","Right-handed","1","0","no","left","s","816.83507925","622.84507849","27","green","2"
"100","96","19","715.553574005","1","1","6","367","3","left","out","Female","Right-handed","1","0","no","left","d","756.648173193","711.446656983","27","green","1"
"100","96","19","710.83013661","1","1","6","368","2","left","in","Female","Right-handed","1","0","no","left","s","753.001006723","423.04052197","27","green","0"
"100","92","19","713.396172244","1","0","6","369","0","left","out","Female","Right-handed","1","0","no","left","d","629.680468834","935.677799847","27","green","3"
"100","93","19","709.981737736","1","1","6","370","2","left","in","Female","Right-handed","1","0","no","left","d","493.380290227","735.374852832","27","red","3"
"100","93","19","710.594234984","1","1","6","371","1","right","in","Female","Right-handed","1","0","no","right","d","688.775341665","767.937968664","27","green","2"
"100","93","19","707.415620996","1","1","6","372","2","left","out","Female","Right-handed","1","0","no","left","s","552.541871697","671.572531051","27","red","3"
"100","93","19","701.657129349","1","1","6","373","0","right","out","Female","Right-handed","1","0","no","right","s","543.13338809","503.154388483","27","red","3"
"100","93","19","694.492259266","1","1","6","374","3","right","out","Female","Right-handed","1","0","no","right","s","426.671331995","503.761501226","27","red","3"
"100","94","19","694.034018839","1","1","6","375","0","left","out","Female","Right-handed","1","0","no","left","d","566.418871874","791.405297629","27","red","3"
"100","94","19","692.475407719","1","1","6","376","3","right","in","Female","Right-handed","1","0","no","right","s","863.974353095","414.990906137","27","red","1"
"100","94","19","689.35606227","1","1","6","377","3","right","in","Female","Right-handed","1","0","no","right","d","552.587092455","607.770850698","27","green","0"
"100","94","19","686.917212266","1","1","6","378","2","right","in","Female","Right-handed","1","0","no","right","d","534.968315001","663.268909253","27","red","2"
"100","94","19","697.873284917","1","1","6","379","2","right","in","Female","Right-handed","1","0","no","right","s","519.799797116","1686.69614889","27","green","3"
"100","94","19","699.576446203","1","1","6","380","3","right","out","Female","Right-handed","1","0","no","right","s","849.270229956","679.322920159","27","green","1"
"100","95","19","696.274170255","1","1","6","381","1","left","out","Female","Right-handed","1","0","no","left","d","528.044407426","606.926409147","27","green","3"
"100","95","19","695.635223653","1","1","6","382","0","left","out","Female","Right-handed","1","0","no","left","s","764.543846016","575.610873123","27","red","2"
"100","92","19","695.424037929","1","0","6","383","1","left","out","Female","Right-handed","1","0","no","left","d","518.325792799","855.205053693","27","green","3"
"100","93","19","700.374205324","1","1","6","384","0","right","in","Female","Right-handed","1","0","no","right","d","576.795913583","1239.76655825","27","green","2"
"100","93","19","696.896724679","1","1","6","385","3","right","in","Female","Right-handed","1","0","no","right","s","511.406695943","583.323417907","27","red","2"
"100","93","19","697.688827226","1","1","6","386","2","right","in","Female","Right-handed","1","0","no","right","d","657.958196134","807.124482487","27","green","1"
"100","93","19","697.567676742","1","1","6","387","3","left","out","Female","Right-handed","1","0","no","left","s","600.604482885","783.627327065","27","green","2"
"100","93","19","699.858327395","1","1","6","388","2","left","in","Female","Right-handed","1","0","no","left","d","675.202699646","935.253815141","27","green","1"
"100","93","19","699.223291369","1","1","6","389","2","left","in","Female","Right-handed","1","0","no","left","s","739.925793055","598.827403266","27","green","1"
"100","93","19","697.840143576","1","1","6","390","3","right","in","Female","Right-handed","1","0","no","right","s","791.473609839","471.424489189","27","red","1"
"100","94","19","696.103221354","1","1","6","391","2","right","out","Female","Right-handed","1","0","no","right","s","606.999211363","614.988853564","27","red","0"
"100","92","19","691.427450203","1","0","6","392","2","left","out","Female","Right-handed","1","0","no","left","s","563.659443425","351.618341925","27","red","2"
"100","92","19","689.229896024","1","1","6","393","1","right","in","Female","Right-handed","1","0","no","right","d","603.189442588","551.119823145","27","green","1"
"100","92","19","687.780775424","1","1","6","394","0","left","in","Female","Right-handed","1","0","no","left","d","601.906904889","622.946103591","27","red","1"
"100","90","19","685.156896969","1","0","6","395","0","right","out","Female","Right-handed","1","0","no","right","s","500.558845197","591.623832559","27","red","1"
"100","90","19","684.237066754","1","1","6","396","0","left","in","Female","Right-handed","1","0","no","left","d","590.037898845","679.09457136","27","red","0"
"100","91","19","701.253061164","1","1","6","397","1","left","in","Female","Right-handed","1","0","no","left","d","555.690647674","2718.57485976","27","green","1"
"100","91","19","700.049680943","1","1","6","398","3","left","out","Female","Right-handed","1","0","no","left","d","650.105178354","615.215598789","27","red","1"
"100","91","19","696.932687191","1","1","6","399","1","right","out","Female","Right-handed","1","0","no","right","s","599.743364174","438.784722568","27","green","1"
"100","91","19","695.264077573","1","1","6","400","1","right","out","Female","Right-handed","1","0","no","right","d","517.522082002","679.447357425","27","green","2"
"100","91","19","693.0951696","1","1","6","401","1","right","out","Female","Right-handed","1","0","no","right","d","539.060954055","591.19824428","27","red","2"
"100","91","19","703.1116367","1","1","6","402","0","left","out","Female","Right-handed","1","0","no","left","d","625.664159854","1982.53516555","27","red","1"
"100","91","19","699.935852941","1","1","6","403","3","right","out","Female","Right-handed","1","0","no","right","s","445.254818977","567.171268333","27","red","2"
"100","92","19","698.28307626","1","1","6","404","3","left","in","Female","Right-handed","1","0","no","left","s","720.750587629","470.871256499","27","green","0"
"100","92","19","693.57440224","1","1","6","405","0","right","in","Female","Right-handed","1","0","no","right","s","427.364075538","366.491802374","27","red","0"
"100","0","19","610.606128151","1","0","7","406","1","right","out","Female","Right-handed","1","0","no","right","d","533.092134571","688.120121731","27","red","0"
"100","50","19","651.414255187","1","1","7","407","3","left","in","Female","Right-handed","1","0","no","left","s","696.695709512","687.749054934","27","green","1"
"100","66","19","647.19934369","1","1","7","408","1","right","in","Female","Right-handed","1","0","no","right","d","622.214232865","655.324808526","27","green","1"
"100","75","19","654.111986163","1","1","7","409","2","left","in","Female","Right-handed","1","0","no","left","d","693.87470386","655.825123306","27","green","1"
"100","80","19","646.48735727","1","1","7","410","2","right","out","Female","Right-handed","1","0","no","right","d","680.494490604","551.483192791","27","green","0"
"100","83","19","662.421688176","1","1","7","411","0","right","in","Female","Right-handed","1","0","no","right","s","1036.94439803","447.242287375","27","red","2"
"100","85","19","638.456045079","1","1","7","412","2","left","out","Female","Right-handed","1","0","no","left","s","637.676204612","351.648168384","27","red","1"
"100","87","19","668.444260764","1","1","7","413","2","right","in","Female","Right-handed","1","0","no","right","d","973.405062224","783.318478902","27","green","2"
"100","88","19","669.379413323","1","1","7","414","0","left","out","Female","Right-handed","1","0","no","left","s","778.75438938","574.966878199","27","red","1"
"100","90","19","669.79692672","1","1","7","415","0","left","out","Female","Right-handed","1","0","no","left","d","515.547121474","831.561973126","27","green","3"
"100","90","19","661.154000534","1","1","7","416","0","right","out","Female","Right-handed","1","0","no","right","d","454.204680702","695.244796646","27","green","0"
"100","83","19","715.666365836","1","0","7","417","3","left","out","Female","Right-handed","1","0","no","left","s","806.806975029","1823.79779329","27","green","2"
"100","84","19","718.135098362","1","1","7","418","3","right","out","Female","Right-handed","1","0","no","right","s","800.289412857","695.230364489","27","green","1"
"100","85","19","742.255784649","1","1","7","419","0","right","out","Female","Right-handed","1","0","no","right","d","616.955475511","1494.69393724","27","red","1"
"100","86","19","733.405686548","1","1","7","420","3","right","out","Female","Right-handed","1","0","no","right","s","419.595084984","799.413541276","27","red","3"
"100","87","19","724.571280745","1","1","7","421","3","left","in","Female","Right-handed","1","0","no","left","d","681.037781143","503.072606259","27","red","0"
"100","88","19","722.079836467","1","1","7","422","1","left","in","Female","Right-handed","1","0","no","left","d","508.666510372","855.766945678","27","green","0"
"100","88","19","741.06551476","1","1","7","423","0","left","in","Female","Right-handed","1","0","no","left","d","760.378084032","1367.26600743","27","green","2"
"100","89","19","751.636247927","1","1","7","424","2","left","in","Female","Right-handed","1","0","no","left","s","636.960690332","1246.85819957","27","red","2"
"100","90","19","748.651675718","1","1","7","425","1","right","out","Female","Right-handed","1","0","no","right","s","464.416875104","919.472732363","27","green","3"
"100","90","19","742.077123707","1","1","7","426","3","left","out","Female","Right-handed","1","0","no","left","d","557.94142276","663.230744215","27","red","2"
"100","90","19","738.990888119","1","1","7","427","3","right","in","Female","Right-handed","1","0","no","right","s","701.627979398","646.731902155","27","green","1"
"100","91","19","741.630663083","1","1","7","428","2","right","out","Female","Right-handed","1","0","no","right","s","704.245331277","895.166093282","27","green","1"
"100","91","19","746.579719067","1","1","7","429","2","left","out","Female","Right-handed","1","0","no","left","d","537.925945074","1182.89006833","27","red","3"
"100","92","19","758.511544282","1","1","7","430","0","left","in","Female","Right-handed","1","0","no","left","d","738.414265129","1351.33643379","27","red","1"
"100","92","19","755.843364567","1","1","7","431","2","left","in","Female","Right-handed","1","0","no","left","d","499.203825997","879.07391734","27","red","3"
"100","92","19","765.205159528","1","1","7","432","2","left","out","Female","Right-handed","1","0","no","left","d","554.583220148","1462.64043692","27","green","0"
"100","92","19","759.384876721","1","1","7","433","3","right","out","Female","Right-handed","1","0","no","right","d","533.254095445","671.220386416","27","red","3"
"100","93","19","761.415474124","1","1","7","434","0","left","in","Female","Right-handed","1","0","no","left","d","661.708311993","974.836090785","27","red","1"
"100","93","19","753.812131372","1","1","7","435","1","left","out","Female","Right-handed","1","0","no","left","d","475.280761581","591.349621573","27","red","1"
"100","90","19","748.737323329","1","0","7","436","2","right","out","Female","Right-handed","1","0","no","right","d","650.044563293","542.941600757","27","red","1"
"100","90","19","749.859116088","1","1","7","437","0","right","out","Female","Right-handed","1","0","no","right","s","874.635227228","694.63415604","27","green","2"
"100","90","19","753.03613955","1","1","7","438","2","right","in","Female","Right-handed","1","0","no","right","s","974.155213682","735.246566991","27","red","1"
"100","91","19","753.928282253","1","1","7","439","2","right","in","Female","Right-handed","1","0","no","right","d","551.868371029","1014.86961188","27","red","2"
"100","91","19","747.070370603","1","1","7","440","1","right","in","Female","Right-handed","1","0","no","right","s","532.445253216","495.357495758","27","green","3"
"100","91","19","744.915025419","1","1","7","441","3","left","in","Female","Right-handed","1","0","no","left","s","739.882496583","599.073391368","27","red","2"
"100","89","19","772.440819033","1","0","7","442","2","left","out","Female","Right-handed","1","0","no","left","None","526.640318892","3000.09845938","27","red","2"
"100","89","19","763.246656723","1","1","7","443","0","left","in","Female","Right-handed","1","0","no","left","s","455.105568022","391.019734532","27","red","3"
"100","89","19","756.425963202","1","1","7","444","0","left","out","Female","Right-handed","1","0","no","left","s","523.711553134","470.767665681","27","green","1"
"100","87","19","757.760736162","1","0","7","445","2","right","in","Female","Right-handed","1","0","no","right","s","508.275879984","1111.35788318","27","red","3"
"100","87","19","754.825575569","1","1","7","446","3","right","in","Female","Right-handed","1","0","no","right","s","779.907999808","494.930303906","27","green","1"
"100","88","19","749.389462482","1","1","7","447","2","right","out","Female","Right-handed","1","0","no","right","d","350.533685136","702.483966676","27","red","3"
"100","88","19","746.103569292","1","1","7","448","0","left","out","Female","Right-handed","1","0","no","left","s","697.117128501","519.074982112","27","green","0"
"100","88","19","741.277353639","1","1","7","449","1","right","out","Female","Right-handed","1","0","no","right","d","500.762178255","566.737982905","27","red","2"
"100","88","19","740.014908953","1","1","7","450","1","left","in","Female","Right-handed","1","0","no","left","s","777.406425902","591.528259607","27","green","1"
"100","89","19","741.97236009","1","1","7","451","3","left","out","Female","Right-handed","1","0","no","left","d","652.989685498","1007.12563706","27","green","1"
"100","89","19","739.208825323","1","1","7","452","3","right","in","Female","Right-handed","1","0","no","right","s","529.497886009","694.674566081","27","red","3"
"100","89","19","738.177868399","1","1","7","453","1","left","out","Female","Right-handed","1","0","no","left","d","732.246281875","647.199504048","27","red","3"
"100","89","19","734.506259508","1","1","7","454","0","right","out","Female","Right-handed","1","0","no","right","d","541.71775383","574.820311625","27","green","1"
"100","88","19","743.263986284","1","0","7","455","1","left","in","Female","Right-handed","1","0","no","left","d","1065.39178336","1279.39341323","27","red","2"
"100","88","19","761.767642936","1","1","7","456","0","right","in","Female","Right-handed","1","0","no","right","s","775.044362848","2598.8565883","27","green","2"
"100","86","19","761.830070058","1","0","7","457","1","left","out","Female","Right-handed","1","0","no","left","d","619.501308034","910.5263985","27","green","1"
"100","86","19","759.306207417","1","1","7","458","0","right","out","Female","Right-handed","1","0","no","right","s","561.045940122","695.084760058","27","red","3"
"100","87","19","755.462476457","1","1","7","459","1","right","in","Female","Right-handed","1","0","no","right","d","504.771431514","598.718039587","27","green","3"
"100","87","19","758.958659509","1","1","7","460","2","right","out","Female","Right-handed","1","0","no","right","d","1049.15368227","846.351406349","27","green","1"
"100","87","19","759.71586851","1","1","7","461","1","right","in","Female","Right-handed","1","0","no","right","s","635.928310024","966.796417105","27","red","2"
"100","85","19","757.097258037","1","0","7","462","1","right","in","Female","Right-handed","1","0","no","right","s","502.527391433","718.382751712","27","red","2"
"100","86","19","755.104230974","1","1","7","463","0","left","out","Female","Right-handed","1","0","no","left","d","532.001704919","751.001671886","27","green","3"
"100","86","19","754.020838393","1","1","7","464","3","right","in","Female","Right-handed","1","0","no","right","d","735.571130169","646.79700722","27","red","2"
"100","86","19","753.88466098","1","1","7","465","3","left","in","Female","Right-handed","1","0","no","left","s","573.342458733","918.357928402","27","green","3"
"100","86","19","753.253582617","1","1","7","466","1","left","in","Female","Right-handed","1","0","no","left","s","671.866626342","758.911135436","27","green","1"
"100","87","19","751.804963683","1","1","7","467","1","right","in","Female","Right-handed","1","0","no","right","d","616.478252183","710.400165232","27","green","1"
"100","87","19","748.941635445","1","1","7","468","3","left","in","Female","Right-handed","1","0","no","left","s","631.945676077","510.884893284","27","green","0"
"100","85","19","753.429050473","1","0","7","469","3","left","out","Female","Right-handed","1","0","no","left","d","945.536246042","1126.73614842","27","red","1"
"100","100","19","1116.21141763","1","1","8","470","0","right","in","Female","Right-handed","1","0","no","right","s","1208.70053819","1023.72229707","27","red","2"
"100","100","19","792.810027591","1","1","8","471","2","left","in","Female","Right-handed","1","0","no","left","s","523.421947847","415.395327252","27","red","3"
"100","100","19","733.352961067","1","1","8","472","3","left","out","Female","Right-handed","1","0","no","left","s","805.971513487","422.90614255","27","red","2"
"100","100","19","682.024178994","1","1","8","473","2","right","out","Female","Right-handed","1","0","no","right","d","472.61305751","583.462608044","27","red","2"
"100","100","19","655.36861814","1","1","8","474","3","right","in","Female","Right-handed","1","0","no","right","s","674.123815721","423.368933724","27","green","2"
"100","100","19","640.852962938","1","1","8","475","0","right","in","Female","Right-handed","1","0","no","right","d","520.737566617","615.811807236","27","green","0"
"100","100","19","650.41487412","1","1","8","476","0","left","out","Female","Right-handed","1","0","no","left","s","624.355002843","791.217679585","27","red","1"
"100","100","19","666.793402387","1","1","8","477","0","right","in","Female","Right-handed","1","0","no","right","d","956.016557853","606.869642664","27","red","3"
"100","100","19","651.22080192","1","1","8","478","1","left","out","Female","Right-handed","1","0","no","left","d","493.779900624","559.500095734","27","red","1"
"100","100","19","640.026305012","1","1","8","479","2","left","in","Female","Right-handed","1","0","no","left","d","463.301429713","615.250235965","27","green","3"
"100","100","19","643.696032297","1","1","8","480","0","left","in","Female","Right-handed","1","0","no","left","s","713.87639082","646.910219475","27","green","2"
"100","100","19","636.63869287","1","1","8","481","0","left","out","Female","Right-handed","1","0","no","left","d","550.476790366","567.539127983","27","green","3"
"100","100","19","639.935552647","1","1","8","482","2","right","out","Female","Right-handed","1","0","no","right","s","655.997667763","702.998072185","27","green","3"
"100","100","19","652.634768973","1","1","8","483","0","left","in","Female","Right-handed","1","0","no","left","s","732.682133021","902.767029384","27","red","1"
"100","100","19","665.61259536","1","1","8","484","3","left","in","Female","Right-handed","1","0","no","left","s","1271.28959663","423.314732955","27","red","1"
"100","100","19","664.788124307","1","1","8","485","1","left","out","Female","Right-handed","1","0","no","left","s","553.941149512","750.9009675","27","green","1"
"100","100","19","687.705362286","1","1","8","486","3","right","in","Female","Right-handed","1","0","no","right","d","733.380328713","1375.38201118","27","red","2"
"100","100","19","696.00500607","1","1","8","487","0","right","in","Female","Right-handed","1","0","no","right","d","667.052058716","1007.14584208","27","green","1"
"100","100","19","693.272899787","1","1","8","488","3","right","out","Female","Right-handed","1","0","no","right","s","657.584563622","630.605409749","27","red","2"
"100","100","19","686.395575165","1","1","8","489","0","left","out","Female","Right-handed","1","0","no","left","d","576.079757873","535.37305683","27","red","2"
"100","100","19","681.514317227","1","1","8","490","1","left","in","Female","Right-handed","1","0","no","left","s","568.890940037","598.887376897","27","green","2"
"100","100","19","676.285862198","1","1","8","491","2","left","in","Female","Right-handed","1","0","no","left","d","438.651626007","694.324987163","27","green","2"
"100","95","19","676.387677358","1","0","8","492","2","left","out","Female","Right-handed","1","0","no","left","s","590.116794637","767.138427158","27","green","0"
"100","95","19","678.186568184","1","1","8","493","2","right","in","Female","Right-handed","1","0","no","right","d","864.503532191","574.61858214","27","red","1"
"100","96","19","676.151238744","1","1","8","494","0","right","in","Female","Right-handed","1","0","no","right","s","567.291857023","687.314807361","27","green","1"
"100","96","19","675.777728596","1","1","8","495","1","right","in","Female","Right-handed","1","0","no","right","s","637.957471319","694.922478469","27","red","3"
"100","96","19","670.340173309","1","1","8","496","3","left","in","Female","Right-handed","1","0","no","left","s","619.550377369","438.377094306","27","green","3"
"100","96","19","664.405682165","1","1","8","497","0","right","out","Female","Right-handed","1","0","no","right","s","561.11970448","447.229138076","27","red","2"
"100","96","19","660.130208138","1","1","8","498","0","right","in","Female","Right-handed","1","0","no","right","s","529.885309251","550.948561547","27","red","3"
"100","96","19","660.895744128","1","1","8","499","3","right","out","Female","Right-handed","1","0","no","right","d","671.5933775","694.59919815","27","red","1"
"100","96","19","658.322207209","1","1","8","500","2","left","out","Female","Right-handed","1","0","no","left","s","547.05925555","615.172943747","27","red","1"
"100","96","19","668.236031797","1","1","8","501","2","right","out","Female","Right-handed","1","0","no","right","d","696.532465779","1254.59672223","27","green","1"
"100","96","19","667.809333924","1","1","8","502","1","left","out","Female","Right-handed","1","0","no","left","s","557.112375511","751.197628507","27","green","3"
"97","97","19","668.983109641","0","1","8","503","3","left","in","Female","Right-handed","1","0","no","right","s","445.76635877","969.669057807","27","green","0"
"97","97","19","670.738338622","1","1","8","504","2","left","out","Female","Right-handed","1","0","no","left","d","702.409881602","758.42236638","27","green","2"
"97","97","19","670.205476145","1","1","8","505","1","right","out","Female","Right-handed","1","0","no","right","d","576.033254256","727.077324611","27","green","2"
"97","97","19","667.338708227","1","1","8","506","1","right","out","Female","Right-handed","1","0","no","right","d","537.67418411","590.595942254","27","green","0"
"97","97","19","661.427087484","1","1","8","507","1","right","in","Female","Right-handed","1","0","no","right","s","518.154851915","367.239388115","27","red","3"
"97","97","19","660.298125769","1","1","8","508","2","left","in","Female","Right-handed","1","0","no","left","d","691.846183993","542.948977193","27","red","1"
"97","97","19","657.768192776","1","1","8","509","1","left","out","Female","Right-handed","1","0","no","left","d","559.685789489","558.515822616","27","green","2"
"97","97","19","653.875514877","1","1","8","510","0","left","in","Female","Right-handed","1","0","no","left","s","437.107705906","559.229091893","27","green","3"
"97","97","19","655.873524486","1","1","8","511","3","right","in","Female","Right-handed","1","0","no","right","s","436.716113375","1038.86772351","27","red","3"
"97","97","19","652.011021156","1","1","8","512","1","right","out","Female","Right-handed","1","0","no","right","s","469.254213469","510.31754915","27","red","3"
"97","97","19","649.635896355","1","1","8","513","0","right","in","Female","Right-handed","1","0","no","right","s","536.075421812","558.935638031","27","green","0"
"97","97","19","650.455626765","1","1","8","514","3","right","out","Female","Right-handed","1","0","no","right","d","822.429304079","550.618225505","27","red","1"
"97","97","19","652.003142975","1","1","8","515","2","right","out","Female","Right-handed","1","0","no","right","s","661.171435746","782.111309135","27","green","1"
"97","97","19","649.892902817","1","1","8","516","1","left","in","Female","Right-handed","1","0","no","left","d","570.719975419","534.923735671","27","green","2"
"97","97","19","647.444870763","1","1","8","517","1","right","in","Female","Right-handed","1","0","no","right","s","554.426069992","510.348658467","27","green","1"
"97","97","19","645.01986215","1","1","8","518","2","right","out","Female","Right-handed","1","0","no","right","d","522.101886539","535.137010882","27","green","2"
"98","98","19","643.902105716","1","1","8","519","3","left","out","Female","Right-handed","1","0","no","left","d","587.626125026","590.637955867","27","red","0"
"98","96","19","650.478012225","1","0","8","520","2","left","out","Female","Right-handed","1","0","no","left","d","680.326115438","1278.22055992","27","green","1"
"98","96","19","649.348368985","1","1","8","521","0","right","out","Female","Right-handed","1","0","no","right","s","504.659822831","678.813304653","27","red","1"
"98","96","19","647.728831397","1","1","8","522","3","right","out","Female","Right-handed","1","0","no","right","d","512.481731295","614.544022409","27","red","1"
"98","96","19","645.986602991","1","1","8","523","1","left","out","Female","Right-handed","1","0","no","left","d","437.121496634","670.175498239","27","green","1"
"98","96","19","645.817524412","1","1","8","524","1","right","in","Female","Right-handed","1","0","no","right","d","530.686454331","742.688107935","27","green","0"
"98","96","19","645.978600822","1","1","8","525","3","right","in","Female","Right-handed","1","0","no","right","d","671.326863665","638.348743134","27","green","1"
"98","94","19","644.64560302","1","0","8","526","3","right","out","Female","Right-handed","1","0","no","right","s","444.994719435","695.000732834","27","green","3"
"98","93","19","646.067699447","1","0","8","527","1","left","out","Female","Right-handed","1","0","no","left","d","575.584574526","878.66981694","27","red","1"
"98","93","19","645.984631693","1","1","8","528","0","left","in","Female","Right-handed","1","0","no","left","d","692.126809272","590.206594726","27","red","1"
"98","93","19","647.921710572","1","1","8","529","2","left","out","Female","Right-handed","1","0","no","left","s","589.686395639","934.732333195","27","red","0"
"98","93","19","647.248370963","1","1","8","530","3","left","in","Female","Right-handed","1","0","no","left","d","567.290574166","646.405414689","27","red","3"
"98","93","19","648.847995214","1","1","8","531","2","left","in","Female","Right-handed","1","0","no","left","d","846.947935511","645.902213476","27","red","3"
"98","93","19","651.374671114","1","1","8","532","3","right","out","Female","Right-handed","1","0","no","right","s","729.561900645","886.495253264","27","green","1"
"98","93","19","653.245217364","1","1","8","533","1","left","in","Female","Right-handed","1","0","no","left","d","551.995053298","990.184208848","27","red","1"
dis_reply=No
dis_loc=0
tar_loc=3
