"acc_1","acc_2","age","avg_rt","correct_1","correct_2","count_block_loop","count_trial_sequence","cue_position","detection","dis_shape","gender","hand","high_loc","low_loc","practice","response_keyboard_response_1","response_keyboard_response_2","response_time_keyboard_response_1","response_time_keyboard_response_2","subject_nr","tar_color","tar_position"
"100","0","18","1622.8909202","1","0","0","0","0","right","in","Female","Right-handed","0","3","yes","right","s","1893.59750563","1352.18433478","26","green","3"
"100","0","18","2108.24802939","1","0","0","1","0","right","in","Female","Right-handed","0","3","yes","right","None","2187.123685","3000.08659214","26","green","1"
"100","33","18","1872.42856095","1","1","0","2","2","left","out","Female","Right-handed","0","3","yes","left","s","1920.31951857","881.259729589","26","green","1"
"100","50","18","1787.30814229","1","1","0","3","2","right","in","Female","Right-handed","0","3","yes","right","d","1717.99378204","1345.89999057","26","green","2"
"100","60","18","1727.92699064","1","1","0","4","1","left","out","Female","Right-handed","0","3","yes","left","d","1243.46405753","1737.34071056","26","green","2"
"100","66","18","1690.767263","1","1","0","5","3","left","out","Female","Right-handed","0","3","yes","left","s","1400.04156423","1609.89568534","26","red","3"
"100","57","18","1751.7848518","1","0","0","6","3","right","in","Female","Right-handed","0","3","yes","right","s","1802.54779726","2433.23297198","26","green","2"
"100","62","18","1688.47676733","1","1","0","7","0","left","out","Female","Right-handed","0","3","yes","left","d","1768.7932199","721.847132164","26","green","2"
"100","66","18","1618.46212435","1","1","0","8","0","right","out","Female","Right-handed","0","3","yes","right","d","891.353807136","1225.33615389","26","red","2"
"100","70","18","1588.95498043","1","1","0","9","2","left","out","Female","Right-handed","0","3","yes","left","s","1284.9189209","1361.86244935","26","red","1"
"100","63","18","1519.17365677","1","0","0","10","2","right","out","Female","Right-handed","0","3","yes","right","d","705.328880146","937.391960273","26","red","2"
"100","66","18","1473.40253007","1","1","0","11","3","right","out","Female","Right-handed","0","3","yes","right","s","1449.83813684","490.002135939","26","green","0"
"100","61","18","1442.71886928","1","0","0","12","0","left","in","Female","Right-handed","0","3","yes","left","d","859.521254521","1289.5086249","26","red","1"
"100","64","18","1413.11737789","1","1","0","13","3","left","in","Female","Right-handed","0","3","yes","left","d","607.325823122","1449.27015657","26","green","1"
"100","66","18","1365.29786947","1","1","0","14","1","left","out","Female","Right-handed","0","3","yes","left","d","581.87767674","809.77182651","26","red","1"
"100","68","18","1318.19966688","1","1","0","15","1","left","in","Female","Right-handed","0","3","yes","left","s","606.250477059","617.202778902","26","red","1"
"100","70","18","1293.97643019","1","1","0","16","2","right","out","Female","Right-handed","0","3","yes","right","d","1058.8759186","753.933367671","26","red","3"
"100","72","18","1287.41669427","1","1","0","17","3","left","out","Female","Right-handed","0","3","yes","left","d","718.529691161","1633.27267608","26","red","1"
"100","68","18","1329.07601598","1","0","0","18","3","right","in","Female","Right-handed","0","3","yes","right","d","2205.04312609","1952.84448758","26","red","2"
"100","65","18","1372.90536025","1","0","0","19","1","left","in","Female","Right-handed","0","3","yes","left","None","1411.26486739","3000.06093521","26","red","0"
"100","66","18","1347.83074325","1","1","0","20","3","right","out","Female","Right-handed","0","3","yes","right","d","1139.79915755","552.877649158","26","red","3"
"100","68","18","1330.64869523","1","1","0","21","1","right","out","Female","Right-handed","0","3","yes","right","d","1194.36310841","745.288265226","26","green","3"
"100","100","18","1054.72366525","1","1","1","22","2","right","out","Female","Right-handed","0","3","no","right","d","1179.74860057","929.698729918","26","green","3"
"100","50","18","1117.67238089","1","0","1","23","0","right","in","Female","Right-handed","0","3","no","right","d","1016.04873021","1345.19346287","26","red","0"
"100","66","18","1026.51173302","1","1","1","24","3","right","out","Female","Right-handed","0","3","no","right","s","1046.57887293","641.802001625","26","green","0"
"100","75","18","1092.1230099","1","1","1","25","3","right","in","Female","Right-handed","0","3","no","right","d","1536.40429677","1041.50938434","26","green","1"
"100","60","18","1083.26369615","1","0","1","26","0","right","in","Female","Right-handed","0","3","no","right","d","1237.77751978","857.875362484","26","green","1"
"100","66","18","1102.03696779","1","1","1","27","0","left","in","Female","Right-handed","0","3","no","left","d","1518.4027535","873.403898442","26","green","3"
"100","71","18","1077.37474814","1","1","1","28","0","left","in","Female","Right-handed","0","3","no","left","s","864.85244379","993.9504167","26","green","0"
"100","75","18","1042.28207886","1","1","1","29","1","left","in","Female","Right-handed","0","3","no","left","s","839.560483967","753.706303843","26","red","2"
"100","77","18","1059.76792452","1","1","1","30","0","right","in","Female","Right-handed","0","3","no","right","s","1382.14521437","1017.16416522","26","red","1"
"100","80","18","1077.61716718","1","1","1","31","1","left","out","Female","Right-handed","0","3","no","left","s","1178.82591324","1297.69478901","26","green","3"
"100","81","18","1090.6196924","1","1","1","32","2","left","out","Female","Right-handed","0","3","no","left","d","1192.22332048","1249.06656883","26","red","0"
"100","83","18","1079.55449521","1","1","1","33","3","left","in","Female","Right-handed","0","3","no","left","d","1065.80168605","849.872966127","26","red","0"
"100","84","18","1082.58578333","1","1","1","34","3","left","out","Female","Right-handed","0","3","no","left","d","780.526133828","1457.39634761","26","red","0"
"100","85","18","1072.3256591","1","1","1","35","0","left","in","Female","Right-handed","0","3","no","left","d","819.930687805","1057.95740052","26","green","0"
"100","86","18","1085.4924388","1","1","1","36","1","right","out","Female","Right-handed","0","3","no","right","s","994.3064066","1545.34830244","26","red","2"
"100","87","18","1086.87075578","1","1","1","37","2","left","out","Female","Right-handed","0","3","no","left","d","1318.11642217","896.974598998","26","red","3"
"100","88","18","1067.82861179","1","1","1","38","0","left","in","Female","Right-handed","0","3","no","left","d","764.555657257","761.752958404","26","red","0"
"100","88","18","1049.93094188","1","1","1","39","1","left","in","Female","Right-handed","0","3","no","left","d","698.073421152","793.267685803","26","green","2"
"100","89","18","1034.45902887","1","1","1","40","0","left","in","Female","Right-handed","0","3","no","left","d","806.023349089","705.905840351","26","red","3"
"100","90","18","1020.75915006","1","1","1","41","2","left","out","Female","Right-handed","0","3","no","left","s","839.565936064","681.356969352","26","green","1"
"100","85","18","1013.62807525","1","0","1","42","2","right","out","Female","Right-handed","0","3","no","right","d","1061.06509612","680.948062036","26","red","1"
"100","86","18","999.875432691","1","1","1","43","0","left","out","Female","Right-handed","0","3","no","left","d","820.550623367","601.589254365","26","green","2"
"100","86","18","998.925239583","1","1","1","44","2","left","in","Female","Right-handed","0","3","no","left","d","1107.08047873","848.961503701","26","red","0"
"100","87","18","989.126399452","1","1","1","45","2","left","in","Female","Right-handed","0","3","no","left","d","757.673185879","769.832966974","26","green","0"
"100","88","18","985.316237693","1","1","1","46","1","right","in","Female","Right-handed","0","3","no","right","d","1090.30822311","697.436487874","26","green","1"
"100","88","18","991.93463315","1","1","1","47","1","right","out","Female","Right-handed","0","3","no","right","d","1632.83650827","681.952530831","26","red","3"
"100","88","18","987.417336877","1","1","1","48","0","right","in","Female","Right-handed","0","3","no","right","d","994.606271965","745.328995602","26","green","2"
"100","89","18","976.850267808","1","1","1","49","1","right","out","Female","Right-handed","0","3","no","right","d","653.956330623","729.122475278","26","green","0"
"100","89","18","967.224665811","1","1","1","50","1","left","out","Female","Right-handed","0","3","no","left","s","793.72245488","601.69316493","26","green","1"
"100","90","18","965.42260491","1","1","1","51","3","right","out","Female","Right-handed","0","3","no","right","d","1177.30830585","649.017371666","26","red","1"
"100","90","18","954.7607033","1","1","1","52","2","right","in","Female","Right-handed","0","3","no","right","s","724.94328215","544.864027894","26","red","2"
"100","90","18","949.890472973","1","1","1","53","1","right","out","Female","Right-handed","0","3","no","right","d","772.281600197","825.545065435","26","green","0"
"100","90","18","937.682471549","1","1","1","54","3","left","out","Female","Right-handed","0","3","no","left","d","629.00689081","465.045961182","26","green","3"
"100","91","18","932.107623198","1","1","1","55","2","right","in","Female","Right-handed","0","3","no","right","s","606.553228828","889.72202641","26","green","0"
"100","91","18","927.581845376","1","1","1","56","3","left","in","Female","Right-handed","0","3","no","left","s","1138.19944799","409.211350882","26","green","1"
"100","91","18","922.855492261","1","1","1","57","3","right","out","Female","Right-handed","0","3","no","right","d","865.966275249","648.899991213","26","red","3"
"100","91","18","917.004721274","1","1","1","58","1","right","in","Female","Right-handed","0","3","no","right","s","939.306287936","473.447643507","26","red","2"
"100","92","18","914.153381919","1","1","1","59","1","left","in","Female","Right-handed","0","3","no","left","s","808.24203208","809.065619522","26","green","0"
"100","89","18","906.935556552","1","0","1","60","0","right","out","Female","Right-handed","0","3","no","right","s","608.723805077","656.592580144","26","red","0"
"100","90","18","902.631378714","1","1","1","61","0","right","out","Female","Right-handed","0","3","no","right","s","908.325545387","561.211340619","26","green","1"
"100","90","18","901.078029873","1","1","1","62","3","left","out","Female","Right-handed","0","3","no","left","s","940.940313643","736.94783882","26","green","0"
"100","90","18","895.256359765","1","1","1","63","3","left","in","Female","Right-handed","0","3","no","left","s","735.576475931","577.559294768","26","green","2"
"100","88","18","892.122377617","1","0","1","64","1","right","in","Female","Right-handed","0","3","no","right","d","960.077176044","560.913078812","26","red","1"
"100","88","18","903.166414257","1","1","1","65","0","left","out","Female","Right-handed","0","3","no","left","s","682.60133044","2073.51864906","26","red","0"
"100","88","18","897.090062309","1","1","1","66","1","right","in","Female","Right-handed","0","3","no","right","s","578.330606215","681.130546948","26","red","0"
"100","89","18","887.85510829","1","1","1","67","2","right","in","Female","Right-handed","0","3","no","right","s","559.825866419","384.738488538","26","red","2"
"100","89","18","883.462339469","1","1","1","68","2","left","out","Female","Right-handed","0","3","no","left","s","689.445316424","673.344630935","26","red","2"
"100","89","18","877.192251009","1","1","1","69","0","right","in","Female","Right-handed","0","3","no","right","s","803.943854941","361.052331798","26","green","2"
"100","89","18","875.55846529","1","1","1","70","2","left","out","Female","Right-handed","0","3","no","left","d","985.642382169","608.631119418","26","red","0"
"100","90","18","876.191238415","1","1","1","71","3","left","in","Female","Right-handed","0","3","no","left","d","1333.18088841","481.213354689","26","red","2"
"100","90","18","873.347384024","1","1","1","72","3","right","out","Female","Right-handed","0","3","no","right","s","589.539156644","872.77017228","26","green","0"
"100","88","18","874.984590423","1","0","1","73","3","left","in","Female","Right-handed","0","3","no","left","s","939.490697118","977.473536481","26","red","1"
"100","88","18","875.566671716","1","1","1","74","1","right","out","Female","Right-handed","0","3","no","right","s","970.823260316","840.846537565","26","red","1"
"100","87","18","888.933969658","1","0","1","75","2","right","out","Female","Right-handed","0","3","no","right","s","866.452794778","2328.34872642","26","green","2"
"100","87","18","882.948646547","1","1","1","76","3","left","out","Female","Right-handed","0","3","no","left","d","558.732239792","560.750157309","26","green","2"
"100","87","18","888.681895627","1","1","1","77","1","right","out","Female","Right-handed","0","3","no","right","d","1599.4568428","808.564347259","26","red","0"
"100","87","18","888.673248772","1","1","1","78","1","left","out","Female","Right-handed","0","3","no","left","s","615.212121873","1161.16592785","26","red","0"
"100","87","18","890.96557466","1","1","1","79","3","right","in","Female","Right-handed","0","3","no","right","d","1370.55277214","672.703528405","26","green","2"
"100","88","18","886.910883057","1","1","1","80","2","left","out","Female","Right-handed","0","3","no","left","s","758.200115071","545.277425173","26","green","0"
"100","88","18","881.759745731","1","1","1","81","3","right","in","Female","Right-handed","0","3","no","right","d","482.791897285","672.893389684","26","red","0"
"100","88","18","874.175357102","1","1","1","82","0","left","out","Female","Right-handed","0","3","no","left","s","557.568698033","280.655380611","26","red","2"
"100","88","18","871.96493006","1","1","1","83","2","right","out","Female","Right-handed","0","3","no","right","s","1041.06648159","433.191279466","26","green","1"
"100","88","18","871.318572942","1","1","1","84","2","right","in","Female","Right-handed","0","3","no","right","d","901.758654243","760.730209047","26","green","1"
"100","89","18","871.102739948","1","1","1","85","0","left","in","Female","Right-handed","0","3","no","left","s","769.550099324","945.460423224","26","red","1"
"100","100","18","1528.36838604","1","1","2","86","2","left","out","Female","Right-handed","0","3","no","left","s","1103.84321563","1952.89355645","26","red","0"
"100","100","18","1052.41422087","1","1","2","87","1","right","out","Female","Right-handed","0","3","no","right","s","623.423622206","529.49648917","26","green","1"
"100","100","18","877.457960586","1","1","2","88","2","left","out","Female","Right-handed","0","3","no","left","s","541.997507429","513.093372623","26","green","0"
"100","100","18","773.411186614","1","1","2","89","3","right","out","Female","Right-handed","0","3","no","right","s","648.660740343","273.88098905","26","green","3"
"100","100","18","769.409403136","1","1","2","90","2","left","in","Female","Right-handed","0","3","no","left","d","881.399559856","625.404978598","26","green","1"
"100","100","18","723.777335053","1","1","2","91","2","left","out","Female","Right-handed","0","3","no","left","s","710.120632469","281.113356806","26","green","2"
"100","100","18","690.734393875","1","1","2","92","2","left","out","Female","Right-handed","0","3","no","left","s","679.500369781","305.453123828","26","green","3"
"100","100","18","678.302291388","1","1","2","93","1","left","out","Female","Right-handed","0","3","no","left","s","645.294871885","537.260276082","26","red","1"
"100","100","18","699.419697267","1","1","2","94","0","right","out","Female","Right-handed","0","3","no","right","s","999.742147857","736.975740731","26","green","1"
"100","100","18","737.579303966","1","1","2","95","3","right","in","Female","Right-handed","0","3","no","right","s","848.523411627","1313.50811689","26","green","0"
"100","100","18","738.206398687","1","1","2","96","3","left","in","Female","Right-handed","0","3","no","left","d","815.954184421","673.000507366","26","green","0"
"100","100","18","806.444136098","1","1","2","97","1","left","in","Female","Right-handed","0","3","no","left","d","608.623101628","2505.49539362","26","red","0"
"100","92","18","830.093323628","1","0","2","98","3","right","out","Female","Right-handed","0","3","no","right","d","722.881747853","1504.88540012","26","green","1"
"100","92","18","815.273588546","1","1","2","99","2","left","out","Female","Right-handed","0","3","no","left","d","531.646860586","713.587204376","26","green","2"
"100","93","18","809.946176038","1","1","2","100","3","left","out","Female","Right-handed","0","3","no","left","d","565.368725357","905.356076492","26","red","1"
"100","93","18","843.833936244","1","1","2","101","1","left","out","Female","Right-handed","0","3","no","left","s","2087.54336823","616.757310461","26","red","1"
"100","88","18","964.061018065","1","0","2","102","3","left","in","Female","Right-handed","0","3","no","left","None","2775.23984419","3000.14881019","26","red","1"
"100","88","18","948.284565212","1","1","2","103","0","left","out","Female","Right-handed","0","3","no","left","d","478.559145316","881.610588101","26","red","1"
"100","89","18","932.463584799","1","1","2","104","2","right","out","Female","Right-handed","0","3","no","right","d","654.261968797","641.109905948","26","green","1"
"100","90","18","905.129269233","1","1","2","105","0","right","in","Female","Right-handed","0","3","no","right","d","170.783748644","600.770798309","26","green","0"
"100","90","18","892.385200435","1","1","2","106","2","left","out","Female","Right-handed","0","3","no","left","d","617.509379211","657.49826976","26","red","2"
"100","90","18","881.643293398","1","1","2","107","0","left","out","Female","Right-handed","0","3","no","left","d","615.152790223","696.973701005","26","green","3"
"100","91","18","872.671818392","1","1","2","108","3","right","out","Female","Right-handed","0","3","no","right","d","797.758610626","552.840125899","26","red","2"
"100","91","18","867.178017292","1","1","2","109","2","left","in","Female","Right-handed","0","3","no","left","d","800.382352394","681.258831596","26","red","2"
"100","92","18","856.913073681","1","1","2","110","1","left","in","Female","Right-handed","0","3","no","left","d","572.133816282","648.975037731","26","red","0"
"100","88","18","859.650865189","1","0","2","111","3","right","in","Female","Right-handed","0","3","no","right","s","1039.69832582","816.492979943","26","green","0"
"100","88","18","852.219874376","1","1","2","112","1","right","out","Female","Right-handed","0","3","no","right","d","757.216492531","560.811733941","26","green","0"
"100","89","18","847.258553631","1","1","2","113","1","left","out","Female","Right-handed","0","3","no","left","d","569.779151564","856.826635485","26","green","2"
"100","89","18","849.483976108","1","1","2","114","0","right","in","Female","Right-handed","0","3","no","right","s","1262.29848887","561.293122082","26","green","0"
"100","90","18","839.630420481","1","1","2","115","1","right","out","Female","Right-handed","0","3","no","right","d","514.86209721","592.892517348","26","green","3"
"100","90","18","866.108588444","1","1","2","116","1","right","in","Female","Right-handed","0","3","no","right","s","672.567867389","2648.3393873","26","red","0"
"100","87","18","901.896610351","1","0","2","117","1","left","in","Female","Right-handed","0","3","no","left","s","1285.81851699","2736.83206193","26","red","1"
"100","87","18","894.656121241","1","1","2","118","1","left","out","Female","Right-handed","0","3","no","left","s","829.44074949","496.480189964","26","green","2"
"100","88","18","889.710447777","1","1","2","119","2","left","in","Female","Right-handed","0","3","no","left","d","700.05189114","752.954555805","26","green","3"
"100","88","18","882.323525453","1","1","2","120","1","left","in","Female","Right-handed","0","3","no","left","d","797.632570959","464.703761883","26","red","0"
"100","88","18","873.6161739","1","1","2","121","3","left","in","Female","Right-handed","0","3","no","left","d","536.225660393","601.492078744","26","green","0"
"100","89","18","872.489384922","1","1","2","122","2","left","in","Female","Right-handed","0","3","no","left","d","599.043124809","1064.8068386","26","red","0"
"100","89","18","869.025944287","1","1","2","123","2","left","in","Female","Right-handed","0","3","no","left","d","521.449513898","960.307767699","26","red","1"
"100","89","18","859.075987553","1","1","2","124","3","left","out","Female","Right-handed","0","3","no","left","d","528.94839301","433.006870285","26","red","0"
"100","90","18","868.214383531","1","1","2","125","0","right","out","Female","Right-handed","0","3","no","right","s","976.526475065","1472.69717832","26","red","1"
"100","90","18","867.106330749","1","1","2","126","3","right","out","Female","Right-handed","0","3","no","right","s","1108.25941465","537.309024247","26","red","2"
"100","90","18","874.790365322","1","1","2","127","0","right","out","Female","Right-handed","0","3","no","right","s","1794.83628634","584.835279305","26","red","0"
"100","90","18","867.616590123","1","1","2","128","0","right","in","Female","Right-handed","0","3","no","right","s","692.347115167","440.288948342","26","green","2"
"100","90","18","867.24011265","1","1","2","129","3","right","out","Female","Right-handed","0","3","no","right","d","1021.0191189","681.084043764","26","red","1"
"100","91","18","861.503170377","1","1","2","130","1","right","in","Female","Right-handed","0","3","no","right","d","521.562404388","696.593016312","26","red","3"
"100","91","18","855.060267431","1","1","2","131","0","right","in","Female","Right-handed","0","3","no","right","s","689.12011484","441.139154848","26","red","2"
"100","91","18","860.264302404","1","1","2","132","1","left","in","Female","Right-handed","0","3","no","left","d","1318.60422454","880.695597848","26","green","2"
"100","89","18","864.045981013","1","0","2","133","0","right","in","Female","Right-handed","0","3","no","right","d","1195.35378661","888.21596464","26","red","0"
"100","89","18","864.82758864","1","1","2","134","0","right","in","Female","Right-handed","0","3","no","right","d","747.916817668","1056.77269179","26","green","0"
"100","90","18","884.637021795","1","1","2","135","1","right","in","Female","Right-handed","0","3","no","right","s","1126.2632029","2584.33528989","26","green","2"
"100","90","18","877.592760082","1","1","2","136","0","left","in","Female","Right-handed","0","3","no","left","s","465.91412754","584.845221365","26","green","3"
"100","90","18","876.620370793","1","1","2","137","0","right","in","Female","Right-handed","0","3","no","right","d","901.558530191","752.49850388","26","red","2"
"100","90","18","881.005859111","1","1","2","138","2","right","in","Female","Right-handed","0","3","no","right","s","1762.13268096","455.96982232","26","red","1"
"100","90","18","878.821964926","1","1","2","139","3","left","in","Female","Right-handed","0","3","no","left","s","701.574629915","824.57651634","26","green","2"
"100","90","18","872.077248583","1","1","2","140","0","right","in","Female","Right-handed","0","3","no","right","s","535.32253647","480.402595711","26","green","0"
"100","91","18","866.368350262","1","1","2","141","3","right","out","Female","Right-handed","0","3","no","right","s","759.848893513","344.908991663","26","green","2"
"100","91","18","863.188347149","1","1","2","142","0","left","out","Female","Right-handed","0","3","no","left","s","729.575640798","640.640704847","26","red","2"
"100","91","18","858.292345651","1","1","2","143","3","right","out","Female","Right-handed","0","3","no","right","s","678.268837158","480.171683345","26","red","3"
"100","91","18","860.799529504","1","1","2","144","2","left","in","Female","Right-handed","0","3","no","left","d","1483.71330177","528.719084202","26","green","0"
"100","91","18","855.684199223","1","1","2","145","2","right","out","Female","Right-handed","0","3","no","right","s","555.40325317","552.356172064","26","red","0"
"100","91","18","853.538303004","1","1","2","146","0","right","in","Female","Right-handed","0","3","no","right","s","1048.80044233","400.76861747","26","red","1"
"100","90","18","857.90084354","1","0","2","147","2","left","out","Female","Right-handed","0","3","no","left","d","935.572563248","1312.45906918","26","green","0"
"100","90","18","853.007800043","1","1","2","148","3","right","out","Female","Right-handed","0","3","no","right","s","579.05573519","520.222471237","26","red","0"
"100","90","18","848.722260349","1","1","2","149","1","right","in","Female","Right-handed","0","3","no","right","d","684.653243388","472.813275922","26","red","0"
"100","100","18","579.614094121","1","1","3","150","3","left","out","Female","Right-handed","0","3","no","left","d","678.000080819","481.228107423","26","red","0"
"100","100","18","622.909681835","1","1","3","151","1","right","in","Female","Right-handed","0","3","no","right","d","683.773852125","648.636686971","26","green","0"
"100","100","18","648.856748596","1","1","3","152","2","left","in","Female","Right-handed","0","3","no","left","s","1008.16499715","393.336767086","26","green","1"
"100","100","18","755.859120686","1","1","3","153","3","right","out","Female","Right-handed","0","3","no","right","s","1456.80912463","696.923349282","26","green","2"
"100","100","18","763.68585527","1","1","3","154","1","right","in","Female","Right-handed","0","3","no","right","d","788.530454454","801.455132765","26","green","1"
"100","100","18","748.683345167","1","1","3","155","1","left","in","Female","Right-handed","0","3","no","left","s","890.201810994","457.139778311","26","red","1"
"100","100","18","730.479658132","1","1","3","156","0","right","in","Female","Right-handed","0","3","no","right","s","785.654633352","456.86043849","26","green","0"
"100","100","18","719.766736015","1","1","3","157","0","left","in","Female","Right-handed","0","3","no","left","s","584.280448202","705.272114189","26","green","3"
"100","100","18","722.996224084","1","1","3","158","2","left","out","Female","Right-handed","0","3","no","left","d","744.659991162","753.004266106","26","green","2"
"100","100","18","725.039768241","1","1","3","159","0","right","out","Female","Right-handed","0","3","no","right","s","1238.4789161","248.384415211","26","green","1"
"100","100","18","699.321222602","1","1","3","160","0","left","out","Female","Right-handed","0","3","no","left","s","371.15154073","513.119991687","26","green","2"
"100","100","18","700.906093179","1","1","3","161","1","right","out","Female","Right-handed","0","3","no","right","d","851.899222146","584.780116906","26","red","1"
"100","92","18","699.47789135","1","0","3","162","2","right","in","Female","Right-handed","0","3","no","right","s","708.307008255","656.37193055","26","green","1"
"100","92","18","689.300515127","1","1","3","163","2","right","out","Female","Right-handed","0","3","no","right","d","640.970075681","473.019172782","26","red","0"
"100","93","18","724.411446069","1","1","3","164","3","left","out","Female","Right-handed","0","3","no","left","d","1743.41563007","688.513328454","26","red","2"
"100","93","18","712.490881768","1","1","3","165","3","right","out","Female","Right-handed","0","3","no","right","s","738.12709545","329.237739034","26","green","3"
"100","94","18","702.181397436","1","1","3","166","2","right","out","Female","Right-handed","0","3","no","right","d","617.697636933","456.761659311","26","red","2"
"100","94","18","701.945907068","1","1","3","167","3","right","in","Female","Right-handed","0","3","no","right","s","827.373442384","568.511699239","26","green","3"
"100","94","18","699.424030625","1","1","3","168","2","right","in","Female","Right-handed","0","3","no","right","d","587.120028889","720.940480413","26","red","0"
"100","95","18","701.825658918","1","1","3","169","3","left","in","Female","Right-handed","0","3","no","left","d","910.617671339","584.295521647","26","red","0"
"100","95","18","696.482424255","1","1","3","170","2","left","out","Female","Right-handed","0","3","no","left","s","690.123621502","489.11184048","26","red","3"
"100","95","18","697.382542722","1","1","3","171","0","left","in","Female","Right-handed","0","3","no","left","s","591.614802253","840.955258805","26","red","0"
"100","95","18","708.732711099","1","1","3","172","0","left","in","Female","Right-handed","0","3","no","left","d","644.439533994","1272.43329679","26","red","3"
"100","95","18","704.745625975","1","1","3","173","1","left","out","Female","Right-handed","0","3","no","left","s","585.16881939","640.916516841","26","green","3"
"100","96","18","708.878984601","1","1","3","174","1","left","out","Female","Right-handed","0","3","no","left","s","983.559039481","632.600143807","26","red","2"
"100","96","18","705.892506149","1","1","3","175","0","left","out","Female","Right-handed","0","3","no","left","s","622.124419431","640.336670231","26","green","0"
"100","96","18","710.166803064","1","1","3","176","3","left","in","Female","Right-handed","0","3","no","left","s","633.747008562","1008.85003717","26","red","1"
"100","96","18","712.030510259","1","1","3","177","1","right","out","Female","Right-handed","0","3","no","right","s","676.28427365","848.41693537","26","red","0"
"100","96","18","707.239613627","1","1","3","178","3","left","in","Female","Right-handed","0","3","no","left","s","409.101667508","737.087348375","26","green","0"
"100","96","18","705.486413694","1","1","3","179","3","right","in","Female","Right-handed","0","3","no","right","s","940.558346103","368.728885148","26","red","2"
"100","96","18","697.349114649","1","1","3","180","0","left","in","Female","Right-handed","0","3","no","left","s","506.103783563","400.356503037","26","red","0"
"100","96","18","691.070858306","1","1","3","181","1","right","in","Female","Right-handed","0","3","no","right","d","567.862258207","425.027565164","26","red","1"
"100","93","18","683.554976162","1","0","3","182","2","left","out","Female","Right-handed","0","3","no","left","d","469.649776496","416.443718639","26","green","2"
"100","94","18","677.615151413","1","1","3","183","3","left","out","Female","Right-handed","0","3","no","left","s","699.162557817","264.039311548","26","red","1"
"100","94","18","694.249067943","1","1","3","184","0","left","out","Female","Right-handed","0","3","no","left","d","1950.81694871","568.787511233","26","red","2"
"100","94","18","700.849264861","1","1","3","185","2","right","out","Female","Right-handed","0","3","no","right","s","1055.31441605","808.397897928","26","green","1"
"100","94","18","696.161797868","1","1","3","186","2","right","in","Female","Right-handed","0","3","no","right","d","661.796446901","393.029525353","26","red","0"
"100","94","18","701.960568371","1","1","3","187","1","right","in","Female","Right-handed","0","3","no","right","d","1352.53840041","480.491753542","26","green","2"
"100","94","18","703.862385144","1","1","3","188","2","left","in","Female","Right-handed","0","3","no","left","s","656.121454773","896.141390208","26","green","1"
"100","95","18","704.56765107","1","1","3","189","1","left","out","Female","Right-handed","0","3","no","left","d","943.681115153","520.464929223","26","green","0"
"100","95","18","708.218929892","1","1","3","190","1","left","in","Female","Right-handed","0","3","no","left","d","988.248484798","720.291680805","26","green","2"
"100","95","18","703.662130399","1","1","3","191","1","right","out","Female","Right-handed","0","3","no","right","s","624.695564494","408.971137878","26","red","3"
"100","93","18","700.658356815","1","0","3","192","1","left","out","Female","Right-handed","0","3","no","left","d","804.501251738","344.498480788","26","red","2"
"100","90","18","693.943107391","1","0","3","193","0","left","in","Female","Right-handed","0","3","no","left","s","498.210429157","312.164335201","26","red","0"
"100","88","18","692.250556025","1","0","3","194","1","left","in","Female","Right-handed","0","3","no","left","s","570.669767734","664.886824076","26","green","0"
"100","89","18","691.782763809","1","1","3","195","3","right","out","Female","Right-handed","0","3","no","right","d","677.209205963","664.255022184","26","green","2"
"100","89","18","691.648728083","1","1","3","196","3","right","in","Female","Right-handed","0","3","no","right","s","1002.9418877","368.024281718","26","green","0"
"100","89","18","692.468694938","1","1","3","197","3","right","in","Female","Right-handed","0","3","no","right","d","845.584731049","616.429543185","26","red","0"
"100","89","18","692.095637986","1","1","3","198","0","right","out","Female","Right-handed","0","3","no","right","s","916.071051735","432.306756817","26","red","1"
"100","90","18","689.289004787","1","1","3","199","2","right","in","Female","Right-handed","0","3","no","right","d","502.854974847","600.672981264","26","red","2"
"100","88","18","689.084937178","1","0","3","200","0","right","in","Female","Right-handed","0","3","no","right","d","797.388188705","560.374924713","26","red","1"
"100","88","18","687.668617218","1","1","3","201","3","right","out","Female","Right-handed","0","3","no","right","s","710.853779234","520.018819358","26","green","1"
"100","88","18","699.546464754","1","1","3","202","0","left","in","Female","Right-handed","0","3","no","left","d","969.634382338","1664.75469089","26","red","2"
"100","88","18","702.944591176","1","1","3","203","2","left","out","Female","Right-handed","0","3","no","left","d","1102.13253985","663.958043223","26","red","0"
"100","89","18","708.733365198","1","1","3","204","3","left","out","Female","Right-handed","0","3","no","left","d","561.829351912","1480.82497292","26","green","1"
"100","89","18","712.306665872","1","1","3","205","2","right","out","Female","Right-handed","0","3","no","right","d","1265.34236286","552.334042961","26","green","0"
"100","89","18","712.83317197","1","1","3","206","1","right","out","Female","Right-handed","0","3","no","right","s","684.921037591","799.713989377","26","red","0"
"100","89","18","713.042052681","1","1","3","207","0","right","in","Female","Right-handed","0","3","no","right","d","849.474000871","600.42250549","26","red","2"
"100","89","18","715.821083119","1","1","3","208","2","left","out","Female","Right-handed","0","3","no","left","s","833.829367307","920.18032973","26","green","3"
"100","90","18","713.794645997","1","1","3","209","0","left","in","Female","Right-handed","0","3","no","left","d","507.752241293","680.717470381","26","green","0"
"100","90","18","713.196567107","1","1","3","210","2","left","in","Female","Right-handed","0","3","no","left","s","746.322239491","608.301427872","26","green","0"
"100","90","18","716.56128738","1","1","3","211","0","right","out","Female","Right-handed","0","3","no","right","d","803.839623665","1039.77882444","26","red","1"
"100","90","18","724.604394325","1","1","3","212","3","right","out","Female","Right-handed","0","3","no","right","d","1094.32160833","1352.23244152","26","green","0"
"100","90","18","721.377121768","1","1","3","213","1","right","in","Female","Right-handed","0","3","no","right","d","516.06540721","520.052494077","26","green","0"
"100","0","18","476.435392965","1","0","4","214","1","left","out","Female","Right-handed","0","3","no","left","s","559.9329841","392.937801829","26","red","0"
"100","50","18","592.038221769","1","1","4","215","0","left","out","Female","Right-handed","0","3","no","left","s","510.663340673","904.618760475","26","red","0"
"100","66","18","586.570596432","1","1","4","216","2","right","in","Female","Right-handed","0","3","no","right","d","654.078842462","497.19184905","26","red","0"
"100","75","18","577.505936372","1","1","4","217","1","left","in","Female","Right-handed","0","3","no","left","s","627.718271518","472.905640869","26","green","1"
"100","80","18","582.192743835","1","1","4","218","2","left","in","Female","Right-handed","0","3","no","left","d","569.472230543","632.407716835","26","red","2"
"100","83","18","619.132473997","1","1","4","219","3","right","out","Female","Right-handed","0","3","no","right","s","942.985812359","664.676437253","26","green","1"
"100","85","18","627.420857306","1","1","4","220","3","left","in","Female","Right-handed","0","3","no","left","d","793.742980424","560.559333895","26","green","0"
"100","87","18","593.701993479","1","1","4","221","0","right","in","Female","Right-handed","0","3","no","right","s","427.191085756","288.148807626","26","green","0"
"100","88","18","605.332048064","1","1","4","222","1","left","in","Female","Right-handed","0","3","no","left","d","651.906341944","744.838627534","26","green","0"
"100","90","18","658.039053695","1","1","4","223","0","right","out","Female","Right-handed","0","3","no","right","s","1208.41412594","1056.39008283","26","red","2"
"100","90","18","663.625888029","1","1","4","224","2","left","out","Female","Right-handed","0","3","no","left","d","781.977353911","657.011108809","26","green","3"
"100","91","18","666.956336075","1","1","4","225","1","left","in","Female","Right-handed","0","3","no","left","d","726.627338869","680.555190301","26","red","2"
"100","92","18","683.320230208","1","1","4","226","0","left","in","Female","Right-handed","0","3","no","left","d","903.138997058","856.234922545","26","red","3"
"100","85","18","691.85120337","1","0","4","227","2","right","in","Female","Right-handed","0","3","no","right","d","820.878069931","784.629639014","26","green","1"
"100","86","18","700.551164301","1","1","4","228","0","right","out","Female","Right-handed","0","3","no","right","s","604.400612431","1040.30062225","26","red","1"
"100","87","18","697.772834186","1","1","4","229","0","left","out","Female","Right-handed","0","3","no","left","d","544.124146186","768.071618753","26","green","0"
"100","88","18","692.992669928","1","1","4","230","2","right","out","Female","Right-handed","0","3","no","right","d","672.592882897","560.427200708","26","red","3"
"100","88","18","695.285804655","1","1","4","231","0","left","in","Female","Right-handed","0","3","no","left","s","620.205922517","848.332267501","26","green","1"
"100","89","18","722.205527401","1","1","4","232","1","right","out","Female","Right-handed","0","3","no","right","d","1740.70946542","672.811608221","26","green","2"
"100","90","18","710.918827568","1","1","4","233","0","right","in","Female","Right-handed","0","3","no","right","s","624.438033062","368.505028437","26","red","0"
"100","90","18","706.466314452","1","1","4","234","3","left","in","Female","Right-handed","0","3","no","left","s","842.866700063","391.965404195","26","green","0"
"100","90","18","721.878153725","1","1","4","235","2","left","in","Female","Right-handed","0","3","no","left","s","1506.51269088","584.540866037","26","red","1"
"100","91","18","718.234134487","1","1","4","236","0","right","in","Female","Right-handed","0","3","no","right","d","563.981647599","712.149774893","26","red","0"
"100","91","18","712.509947405","1","1","4","237","2","right","out","Female","Right-handed","0","3","no","right","s","745.884147416","415.823141652","26","red","0"
"100","92","18","711.861480803","1","1","4","238","2","right","in","Female","Right-handed","0","3","no","right","d","576.275806862","816.320757803","26","green","2"
"100","92","18","713.56083818","1","1","4","239","0","left","out","Female","Right-handed","0","3","no","left","s","1016.01954545","496.069999801","26","red","3"
"100","92","18","734.394564522","1","1","4","240","3","right","in","Female","Right-handed","0","3","no","right","d","1159.63100204","1392.5118968","26","green","2"
"100","89","18","735.348953944","1","0","4","241","3","left","out","Female","Right-handed","0","3","no","left","s","1002.24690561","519.988031042","26","green","2"
"100","89","18","726.761971396","1","1","4","242","0","right","in","Female","Right-handed","0","3","no","right","d","523.977042179","448.675877932","26","red","0"
"100","90","18","740.311152276","1","1","4","243","0","right","in","Female","Right-handed","0","3","no","right","s","874.353846262","1392.12094933","26","green","1"
"100","90","18","741.116448465","1","1","4","244","1","right","out","Female","Right-handed","0","3","no","right","s","730.80909769","799.741570576","26","red","1"
"100","90","18","746.76810381","1","1","4","245","1","left","out","Female","Right-handed","0","3","no","left","d","715.48196863","1128.45687038","26","green","3"
"100","90","18","743.201151747","1","1","4","246","0","left","out","Female","Right-handed","0","3","no","left","d","642.063702309","616.053669165","26","red","2"
"100","91","18","736.656028977","1","1","4","247","3","right","out","Female","Right-handed","0","3","no","right","d","472.810068805","568.523886281","26","green","3"
"100","91","18","735.14405129","1","1","4","248","0","left","out","Female","Right-handed","0","3","no","left","d","871.345250549","496.128369316","26","red","1"
"100","91","18","732.74672149","1","1","4","249","3","left","in","Female","Right-handed","0","3","no","left","s","665.819453469","631.860903522","26","red","0"
"100","91","18","734.226973439","1","1","4","250","1","right","in","Female","Right-handed","0","3","no","right","s","718.40268936","856.629397838","26","red","0"
"100","92","18","738.367958316","1","1","4","251","0","right","out","Female","Right-handed","0","3","no","right","d","1175.15023736","608.018560223","26","green","2"
"100","92","18","742.940438244","1","1","4","252","3","left","out","Female","Right-handed","0","3","no","left","d","1241.76941732","591.619933638","26","green","2"
"100","92","18","738.823075746","1","1","4","253","3","left","out","Female","Right-handed","0","3","no","left","d","684.126314196","472.3655625","26","red","1"
"100","92","18","733.445742235","1","1","4","254","3","right","out","Female","Right-handed","0","3","no","right","s","564.897920698","471.806882856","26","red","1"
"100","92","18","730.604304231","1","1","4","255","3","left","in","Female","Right-handed","0","3","no","left","s","635.611625925","592.599066216","26","red","1"
"100","93","18","729.253773124","1","1","4","256","1","left","in","Female","Right-handed","0","3","no","left","s","825.039303209","520.023630032","26","red","2"
"100","93","18","723.619264313","1","1","4","257","3","right","in","Female","Right-handed","0","3","no","right","s","586.857045361","375.81372556","26","red","0"
"100","93","18","721.712928605","1","1","4","258","2","left","out","Female","Right-handed","0","3","no","left","s","731.183368152","544.484946758","26","red","0"
"100","93","18","722.639980095","1","1","4","259","1","left","in","Female","Right-handed","0","3","no","left","s","1184.79660148","343.917992756","26","green","0"
"100","93","18","718.011097059","1","1","4","260","2","right","in","Female","Right-handed","0","3","no","right","s","617.669093598","392.495861217","26","red","0"
"100","91","18","716.340119431","1","0","4","261","0","left","in","Female","Right-handed","0","3","no","left","s","611.37224164","664.236100198","26","green","2"
"100","91","18","709.809823638","1","1","4","262","1","right","out","Female","Right-handed","0","3","no","right","s","496.85542256","295.855828581","26","green","3"
"100","92","18","712.050751973","1","1","4","263","3","right","out","Female","Right-handed","0","3","no","right","s","1139.45920324","504.253277512","26","green","0"
"100","90","18","721.733776328","1","0","4","264","1","right","out","Female","Right-handed","0","3","no","right","s","939.954766834","1471.81522136","26","red","1"
"100","90","18","716.720051172","1","1","4","265","3","right","out","Female","Right-handed","0","3","no","right","s","466.611996026","455.428140393","26","red","0"
"100","90","18","716.804268693","1","1","4","266","2","left","out","Female","Right-handed","0","3","no","left","d","994.173952699","448.193206943","26","red","2"
"100","90","18","716.04504915","1","1","4","267","2","right","in","Female","Right-handed","0","3","no","right","d","855.722425374","495.890401294","26","green","1"
"100","89","18","717.659763806","1","0","4","268","3","right","out","Female","Right-handed","0","3","no","right","d","1025.46995477","584.23875569","26","green","2"
"100","89","18","714.415822981","1","1","4","269","2","right","out","Female","Right-handed","0","3","no","right","s","599.980885587","472.01726968","26","green","0"
"100","89","18","717.771514824","1","1","4","270","3","left","out","Female","Right-handed","0","3","no","left","d","731.741406372","1079.63910963","26","green","3"
"100","89","18","716.58019581","1","1","4","271","2","left","in","Female","Right-handed","0","3","no","left","d","705.097005643","592.253018377","26","red","2"
"100","89","18","717.524553763","1","1","4","272","1","right","in","Female","Right-handed","0","3","no","right","s","928.737236479","615.857393654","26","green","2"
"100","90","18","719.939531427","1","1","4","273","2","right","in","Female","Right-handed","0","3","no","right","d","628.455587534","1096.39083971","26","red","0"
"100","90","18","718.997688279","1","1","4","274","1","left","in","Female","Right-handed","0","3","no","left","s","724.924680875","600.049517874","26","green","0"
"100","88","18","719.046517938","1","0","4","275","2","right","in","Female","Right-handed","0","3","no","right","d","860.361839679","583.688414549","26","green","1"
"100","88","18","720.278595261","1","1","4","276","1","left","out","Female","Right-handed","0","3","no","left","d","1113.08355885","480.251219827","26","green","1"
"100","89","18","722.988672606","1","1","4","277","1","left","out","Female","Right-handed","0","3","no","left","d","1315.76945453","471.677636074","26","green","0"
"100","100","18","1355.38519711","1","1","5","278","3","right","in","Female","Right-handed","0","3","no","right","d","1469.98331658","1240.78707763","26","green","2"
"100","100","18","1047.9448639","1","1","5","279","2","right","in","Female","Right-handed","0","3","no","right","d","832.472757151","648.536304235","26","red","1"
"100","100","18","870.840557363","1","1","5","280","1","left","out","Female","Right-handed","0","3","no","left","s","569.087376599","464.176511979","26","green","0"
"100","100","18","816.91872462","1","1","5","281","1","left","in","Female","Right-handed","0","3","no","left","s","685.699404695","624.607048087","26","green","1"
"100","100","18","790.398824143","1","1","5","282","1","right","in","Female","Right-handed","0","3","no","right","d","864.308196171","504.330248301","26","green","3"
"100","100","18","819.549602221","1","1","5","283","3","right","out","Female","Right-handed","0","3","no","right","d","1074.7562752","855.850710023","26","red","1"
"100","100","18","788.61606155","1","1","5","284","2","left","in","Female","Right-handed","0","3","no","left","d","629.497258878","576.532376159","26","red","0"
"100","100","18","774.303165809","1","1","5","285","2","right","in","Female","Right-handed","0","3","no","right","s","804.101645058","544.124146186","26","green","0"
"100","100","18","772.177066026","1","1","5","286","1","right","out","Female","Right-handed","0","3","no","right","d","877.621897676","632.714637855","26","red","2"
"100","100","18","786.978306425","1","1","5","287","0","right","out","Female","Right-handed","0","3","no","right","d","712.161320511","1128.21761951","26","red","3"
"100","100","18","787.962007685","1","1","5","288","0","right","in","Female","Right-handed","0","3","no","right","d","923.821048047","671.776992532","26","red","1"
"100","100","18","821.748922249","1","1","5","289","3","right","in","Female","Right-handed","0","3","no","right","s","1210.47886735","1176.33109755","26","red","2"
"100","100","18","802.729036327","1","1","5","290","1","right","in","Female","Right-handed","0","3","no","right","d","644.831764305","504.149046236","26","red","0"
"100","92","18","789.079673105","1","0","5","291","0","left","in","Female","Right-handed","0","3","no","left","d","511.584103737","711.691798699","26","red","0"
"100","93","18","771.018627145","1","1","5","292","3","left","in","Female","Right-handed","0","3","no","left","s","700.187872868","336.140094532","26","red","0"
"100","93","18","755.796531809","1","1","5","293","1","left","out","Female","Right-handed","0","3","no","left","s","471.077905342","583.852298188","26","red","1"
"100","94","18","749.629181905","1","1","5","294","0","left","in","Female","Right-handed","0","3","no","left","s","733.58742246","568.315744439","26","red","0"
"100","94","18","747.851552854","1","1","5","295","2","left","in","Female","Right-handed","0","3","no","left","s","835.117665886","600.146052072","26","green","3"
"100","94","18","740.735763772","1","1","5","296","0","right","in","Female","Right-handed","0","3","no","right","s","593.599045049","631.704075539","26","red","0"
"100","95","18","736.941312339","1","1","5","297","0","right","in","Female","Right-handed","0","3","no","right","s","889.362187971","440.331282276","26","red","2"
"100","95","18","737.319230513","1","1","5","298","1","left","out","Female","Right-handed","0","3","no","left","s","881.90917062","607.846017371","26","green","0"
"100","90","18","731.854544685","1","0","5","299","0","left","out","Female","Right-handed","0","3","no","left","d","642.589027942","591.603256634","26","green","1"
"100","91","18","716.695611123","1","1","5","300","2","left","in","Female","Right-handed","0","3","no","left","s","510.176500433","256.221645084","26","green","2"
"100","87","18","729.428521023","1","0","5","301","0","left","out","Female","Right-handed","0","3","no","left","d","820.620538501","1223.95035897","26","green","1"
"100","88","18","731.562115747","1","1","5","302","3","right","in","Female","Right-handed","0","3","no","right","s","1245.25138339","320.285394857","26","green","2"
"100","88","18","741.170944771","1","1","5","303","2","left","out","Female","Right-handed","0","3","no","left","d","595.043530189","1367.73981051","26","red","1"
"100","88","18","740.500325807","1","1","5","304","2","right","out","Female","Right-handed","0","3","no","right","d","718.507241348","727.621224182","26","green","1"
"100","89","18","735.362687274","1","1","5","305","1","left","out","Female","Right-handed","0","3","no","left","d","601.122298245","592.170595492","26","green","1"
"100","89","18","731.578457221","1","1","5","306","2","left","out","Female","Right-handed","0","3","no","left","d","731.602217528","519.637813953","26","red","0"
"100","90","18","731.536145589","1","1","5","307","1","left","out","Female","Right-handed","0","3","no","left","s","708.426312977","752.191903571","26","green","1"
"100","90","18","737.02950131","1","1","5","308","1","right","out","Female","Right-handed","0","3","no","right","s","1083.87859654","719.781749328","26","red","2"
"100","90","18","731.593302748","1","1","5","309","0","left","in","Female","Right-handed","0","3","no","left","s","638.519838901","487.622455715","26","green","0"
"100","90","18","726.094714616","1","1","5","310","3","left","out","Female","Right-handed","0","3","no","left","s","620.124141054","480.155647764","26","red","0"
"100","88","18","718.000663194","1","0","5","311","1","right","out","Female","Right-handed","0","3","no","right","s","549.904652435","351.889280085","26","green","0"
"100","88","18","730.693091716","1","1","5","312","2","right","out","Female","Right-handed","0","3","no","right","d","581.292378031","1743.1789449","26","red","0"
"100","88","18","728.725870816","1","1","5","313","2","left","out","Female","Right-handed","0","3","no","left","d","711.817838365","607.928440257","26","red","2"
"100","89","18","728.855300828","1","1","5","314","0","right","in","Female","Right-handed","0","3","no","right","d","547.506691648","919.522870908","26","green","3"
"100","89","18","726.004782756","1","1","5","315","1","left","in","Female","Right-handed","0","3","no","left","d","625.075287053","615.995941073","26","red","0"
"100","89","18","732.598598635","1","1","5","316","0","left","in","Female","Right-handed","0","3","no","left","d","1350.76069589","615.566508213","26","green","2"
"100","90","18","734.115991291","1","1","5","317","3","left","out","Female","Right-handed","0","3","no","left","d","1059.28033595","527.308273782","26","red","0"
"100","90","18","735.390416258","1","1","5","318","1","left","out","Female","Right-handed","0","3","no","left","s","676.944618876","895.790210983","26","red","2"
"100","90","18","749.034226589","1","1","5","319","0","left","out","Female","Right-handed","0","3","no","left","d","2001.32999109","615.530909224","26","green","1"
"100","90","18","746.987809334","1","1","5","320","1","right","out","Female","Right-handed","0","3","no","right","d","745.953100416","576.123468843","26","red","0"
"100","90","18","745.571369765","1","1","5","321","3","right","in","Female","Right-handed","0","3","no","right","s","713.779310637","655.549625954","26","green","1"
"100","91","18","741.197442403","1","1","5","322","2","right","out","Female","Right-handed","0","3","no","right","d","490.248763176","607.240513831","26","green","1"
"100","91","18","741.712083151","1","1","5","323","1","right","out","Female","Right-handed","0","3","no","right","s","1033.93353444","495.808299118","26","green","2"
"100","91","18","737.949769218","1","1","5","324","2","left","in","Female","Right-handed","0","3","no","left","d","690.425090426","439.341566214","26","red","3"
"100","91","18","733.359523446","1","1","5","325","3","right","in","Female","Right-handed","0","3","no","right","d","507.183298879","528.052645455","26","red","3"
"100","91","18","728.337631764","1","1","5","326","0","left","out","Female","Right-handed","0","3","no","left","d","534.803304356","439.77035765","26","green","2"
"100","92","18","723.588198582","1","1","5","327","3","left","in","Female","Right-handed","0","3","no","left","d","430.397881251","551.334064128","26","red","3"
"100","92","18","719.4554001","1","1","5","328","2","right","out","Female","Right-handed","0","3","no","right","s","585.833975291","439.796976715","26","green","2"
"100","92","18","720.996052953","1","1","5","329","3","right","out","Female","Right-handed","0","3","no","right","s","943.567262527","655.571434344","26","red","1"
"100","92","18","719.3863119","1","1","5","330","3","right","out","Female","Right-handed","0","3","no","right","s","528.095941522","743.263612765","26","green","2"
"100","92","18","720.441114603","1","1","5","331","0","left","in","Female","Right-handed","0","3","no","left","s","768.856079378","783.835236329","26","green","0"
"100","92","18","721.511163418","1","1","5","332","0","right","in","Female","Right-handed","0","3","no","right","d","871.363531112","687.22406774","26","green","2"
"100","92","18","720.536618578","1","1","5","333","3","right","out","Female","Right-handed","0","3","no","right","s","821.888632249","511.98467255","26","red","0"
"100","92","18","717.607242956","1","1","5","334","2","left","in","Female","Right-handed","0","3","no","left","s","795.59637288","311.528043345","26","green","0"
"100","93","18","719.446558684","1","1","5","335","1","left","out","Female","Right-handed","0","3","no","left","s","657.268319529","991.306790812","26","red","3"
"100","93","18","717.503182954","1","1","5","336","3","right","out","Female","Right-handed","0","3","no","right","s","897.870987978","311.703793313","26","green","0"
"100","93","18","722.808427831","1","1","5","337","3","right","in","Female","Right-handed","0","3","no","right","d","1008.41932146","1063.21642967","26","red","0"
"100","93","18","723.916150609","1","1","5","338","3","left","in","Female","Right-handed","0","3","no","left","d","932.835610278","647.923424327","26","green","1"
"100","93","18","721.104022649","1","1","5","339","2","right","out","Female","Right-handed","0","3","no","right","s","787.631499782","311.496934318","26","green","0"
"100","93","18","717.668941897","1","1","5","340","0","right","in","Female","Right-handed","0","3","no","right","d","490.185262274","519.202608284","26","green","0"
"100","93","18","716.193993528","1","1","5","341","2","left","in","Female","Right-handed","0","3","no","left","d","806.805564732","439.738927913","26","red","2"
"100","100","18","606.454770361","1","1","6","342","3","right","in","Female","Right-handed","0","3","no","right","s","740.851540667","472.058000055","26","red","0"
"100","100","18","575.562063151","1","1","6","343","3","right","out","Female","Right-handed","0","3","no","right","d","641.691676828","447.647035053","26","green","1"
"100","66","18","619.61319399","1","0","6","344","3","left","out","Female","Right-handed","0","3","no","left","d","471.059945492","944.370965848","26","green","3"
"100","75","18","618.781562032","1","1","6","345","3","left","in","Female","Right-handed","0","3","no","left","d","544.807903361","687.765428956","26","red","0"
"100","80","18","623.796641893","1","1","6","346","3","right","in","Female","Right-handed","0","3","no","right","s","784.447474813","503.266447856","26","red","1"
"100","83","18","609.398528874","1","1","6","347","3","left","in","Female","Right-handed","0","3","no","left","d","570.978933737","503.836993829","26","red","1"
"100","85","18","602.21695573","1","1","6","348","0","right","out","Female","Right-handed","0","3","no","right","s","566.592881613","551.662152117","26","green","0"
"100","87","18","661.90418596","1","1","6","349","0","right","in","Female","Right-handed","0","3","no","right","d","1343.11781726","816.311777878","26","green","0"
"100","77","18","726.552131995","1","0","6","350","2","right","out","Female","Right-handed","0","3","no","right","s","1775.75298278","711.718417762","26","red","1"
"100","80","18","722.039815706","1","1","6","351","1","left","in","Female","Right-handed","0","3","no","left","s","603.342264083","759.515674139","26","red","0"
"100","81","18","723.02428959","1","1","6","352","3","left","in","Female","Right-handed","0","3","no","left","d","825.831140201","639.906916659","26","green","1"
"100","83","18","714.85787718","1","1","6","353","2","left","out","Female","Right-handed","0","3","no","left","d","770.642763816","479.411917516","26","green","0"
"100","84","18","720.91006215","1","1","6","354","0","right","in","Female","Right-handed","0","3","no","right","d","835.041336521","752.031227049","26","red","1"
"100","85","18","712.048361297","1","1","6","355","3","left","out","Female","Right-handed","0","3","no","left","d","673.738785516","519.953714899","26","red","2"
"100","86","18","714.174566329","1","1","6","356","1","left","in","Female","Right-handed","0","3","no","left","s","544.325553084","943.557320468","26","red","1"
"100","81","18","711.908028486","1","0","6","357","1","right","out","Female","Right-handed","0","3","no","right","s","603.956426837","751.863494872","26","red","0"
"100","82","18","695.857633999","1","1","6","358","1","left","in","Female","Right-handed","0","3","no","left","s","518.607367516","359.49527688","26","green","0"
"100","83","18","696.295859178","1","1","6","359","2","left","in","Female","Right-handed","0","3","no","left","s","664.128341094","743.363033368","26","green","3"
"100","84","18","693.506150084","1","1","6","360","1","left","out","Female","Right-handed","0","3","no","left","s","638.724773626","647.857999157","26","green","3"
"100","85","18","699.47084988","1","1","6","361","0","left","out","Female","Right-handed","0","3","no","left","s","930.184608022","695.415683953","26","red","3"
"100","85","18","706.370543853","1","1","6","362","1","left","in","Female","Right-handed","0","3","no","left","d","816.855063363","871.873783301","26","green","2"
"100","86","18","705.697195575","1","1","6","363","3","left","out","Female","Right-handed","0","3","no","left","d","663.546570214","719.567193254","26","green","0"
"100","86","18","701.626843161","1","1","6","364","2","right","out","Female","Right-handed","0","3","no","right","d","745.026885256","479.131294847","26","red","1"
"100","87","18","703.510879554","1","1","6","365","0","left","in","Female","Right-handed","0","3","no","left","d","805.846957698","687.840475473","26","green","2"
"100","88","18","727.898062453","1","1","6","366","0","left","in","Female","Right-handed","0","3","no","left","s","1275.19302029","1351.18788377","26","green","3"
"100","88","18","724.07457305","1","1","6","367","0","left","in","Female","Right-handed","0","3","no","left","d","552.945960733","704.028715236","26","red","1"
"100","88","18","720.575195817","1","1","6","368","2","right","in","Female","Right-handed","0","3","no","right","d","563.67119875","695.511576728","26","green","2"
"100","85","18","727.95218712","1","0","6","369","2","right","out","Female","Right-handed","0","3","no","right","s","623.154865869","1231.10703879","26","green","0"
"100","86","18","721.782237827","1","1","6","370","2","left","out","Female","Right-handed","0","3","no","left","s","602.518997353","495.528317874","26","green","3"
"100","86","18","718.901486798","1","1","6","371","2","right","in","Female","Right-handed","0","3","no","right","d","775.322908496","495.396505397","26","red","1"
"100","87","18","719.420421133","1","1","6","372","3","left","out","Female","Right-handed","0","3","no","left","d","757.999670309","711.97723204","26","red","2"
"100","87","18","722.627092804","1","1","6","373","2","right","out","Female","Right-handed","0","3","no","right","s","836.476841734","807.59098749","26","red","0"
"100","84","18","721.219693894","1","0","6","374","0","left","in","Female","Right-handed","0","3","no","left","d","585.217246845","767.148610709","26","red","2"
"100","85","18","724.555725738","1","1","6","375","3","right","in","Female","Right-handed","0","3","no","right","s","1029.58468487","639.704868339","26","green","2"
"100","85","18","734.461256249","1","1","6","376","1","right","out","Female","Right-handed","0","3","no","right","s","1271.24345668","871.255130584","26","red","3"
"100","86","18","733.098862849","1","1","6","377","2","left","out","Female","Right-handed","0","3","no","left","d","858.88175555","511.948432138","26","red","0"
"100","86","18","727.594037371","1","1","6","378","1","left","out","Female","Right-handed","0","3","no","left","d","539.573569001","519.267071319","26","red","1"
"100","86","18","723.779816348","1","1","6","379","0","right","in","Female","Right-handed","0","3","no","right","s","526.119395805","639.187881207","26","green","0"
"100","87","18","722.301490074","1","1","6","380","1","right","out","Female","Right-handed","0","3","no","right","s","924.575361779","407.674821508","26","red","2"
"100","87","18","722.662990456","1","1","6","381","2","left","out","Female","Right-handed","0","3","no","left","s","986.273542637","487.249468099","26","red","0"
"100","87","18","721.999391962","1","1","6","382","3","right","out","Female","Right-handed","0","3","no","right","s","879.84891917","511.061985218","26","green","0"
"100","88","18","718.475754339","1","1","6","383","1","right","in","Female","Right-handed","0","3","no","right","s","572.528291576","575.484932005","26","green","0"
"100","88","18","724.048638438","1","1","6","384","0","right","out","Female","Right-handed","0","3","no","right","d","509.096343695","1407.12319752","26","red","0"
"100","88","18","730.903160951","1","1","6","385","1","left","in","Female","Right-handed","0","3","no","left","s","1195.62927789","855.665980131","26","green","2"
"100","88","18","730.235889811","1","1","6","386","2","left","out","Female","Right-handed","0","3","no","left","s","554.393011566","847.358907733","26","green","2"
"100","89","18","735.107180708","1","1","6","387","1","left","in","Female","Right-handed","0","3","no","left","s","1341.74773722","566.882804918","26","red","0"
"100","89","18","731.965843093","1","1","6","388","0","right","out","Female","Right-handed","0","3","no","right","d","655.43192479","519.49670084","26","green","0"
"100","89","18","726.86538707","1","1","6","389","0","left","in","Female","Right-handed","0","3","no","left","s","663.158188441","311.129719512","26","green","2"
"100","87","18","727.903987109","1","0","6","390","2","left","in","Female","Right-handed","0","3","no","left","d","595.692329796","959.821248171","26","red","0"
"100","88","18","724.309337904","1","1","6","391","2","right","in","Female","Right-handed","0","3","no","right","s","545.073131871","551.269921803","26","green","2"
"100","86","18","728.429043302","1","0","6","392","1","right","in","Female","Right-handed","0","3","no","right","s","733.782094414","1135.04653205","26","green","1"
"100","86","18","725.31393227","1","1","6","393","3","right","out","Female","Right-handed","0","3","no","right","d","701.421650473","431.464888813","26","green","0"
"100","86","18","723.443204979","1","1","6","394","0","left","out","Female","Right-handed","0","3","no","left","d","653.181491347","599.149280355","26","red","1"
"100","87","18","722.588216542","1","1","6","395","0","right","in","Female","Right-handed","0","3","no","right","d","875.785502936","478.762155773","26","red","1"
"100","87","18","722.019724581","1","1","6","396","3","right","out","Female","Right-handed","0","3","no","right","d","615.335595847","767.306721538","26","green","3"
"100","87","18","720.722622727","1","1","6","397","1","right","in","Female","Right-handed","0","3","no","right","s","531.922993292","766.841048266","26","red","1"
"100","87","18","718.368145342","1","1","6","398","3","right","in","Female","Right-handed","0","3","no","right","d","765.649604594","407.385218914","26","red","2"
"100","87","18","719.260745006","1","1","6","399","3","left","out","Female","Right-handed","0","3","no","left","s","1117.09309553","423.184756192","26","green","0"
"100","88","18","715.313103091","1","1","6","400","2","right","out","Female","Right-handed","0","3","no","right","s","501.810417098","470.88932691","26","green","2"
"100","86","18","710.914503306","1","0","6","401","1","right","out","Female","Right-handed","0","3","no","right","s","567.379587218","335.414644847","26","red","0"
"100","86","18","714.892561134","1","1","6","402","2","right","in","Female","Right-handed","0","3","no","right","d","1004.10318447","903.048877092","26","green","1"
"100","87","18","711.219237885","1","1","6","403","1","right","in","Female","Right-handed","0","3","no","right","d","502.598726262","471.694313077","26","red","2"
"100","87","18","714.796350819","1","1","6","404","0","left","out","Female","Right-handed","0","3","no","left","s","826.156662495","1046.99804302","26","green","2"
"100","87","18","716.148555206","1","1","6","405","0","left","out","Female","Right-handed","0","3","no","left","s","827.894598768","774.780264433","26","red","0"
"100","100","18","450.807968786","1","1","7","406","3","right","in","Female","Right-handed","0","3","no","right","s","494.196081801","407.41985577","26","red","3"
"100","100","18","471.069326307","1","1","7","407","3","right","out","Female","Right-handed","0","3","no","right","s","662.89680847","319.764559186","26","green","2"
"100","100","18","521.216356549","1","1","7","408","1","left","out","Female","Right-handed","0","3","no","left","s","771.539152795","471.481681273","26","green","0"
"100","100","18","601.334609338","1","1","7","409","2","right","in","Female","Right-handed","0","3","no","right","d","1076.32038578","607.058349631","26","red","0"
"100","80","18","709.594986123","1","0","7","410","3","left","out","Female","Right-handed","0","3","no","left","s","861.563866833","1423.70911969","26","red","0"
"100","83","18","724.041708332","1","1","7","411","0","left","in","Female","Right-handed","0","3","no","left","d","737.262456921","855.28818184","26","red","0"
"100","71","18","743.140001343","1","0","7","412","3","right","in","Female","Right-handed","0","3","no","right","s","1083.63806282","631.821455992","26","red","2"
"100","75","18","735.996086997","1","1","7","413","0","left","in","Female","Right-handed","0","3","no","left","s","780.494704089","591.482669065","26","red","2"
"100","77","18","706.422809666","1","1","7","414","2","right","out","Female","Right-handed","0","3","no","right","s","507.84460624","431.828575791","26","green","2"
"100","80","18","771.324067547","1","1","7","415","2","left","out","Female","Right-handed","0","3","no","left","d","951.419245135","1759.45153182","26","red","0"
"100","81","18","778.76066009","1","1","7","416","0","left","in","Female","Right-handed","0","3","no","left","s","643.118202117","1063.13496892","26","green","1"
"100","83","18","787.383669877","1","1","7","417","0","right","in","Female","Right-handed","0","3","no","right","s","1028.71459424","735.758960843","26","green","2"
"100","84","18","768.227496936","1","1","7","418","1","right","out","Female","Right-handed","0","3","no","right","d","541.490141645","535.216701635","26","red","1"
"100","85","18","755.774744894","1","1","7","419","1","left","out","Female","Right-handed","0","3","no","left","d","603.874645373","583.903291335","26","green","3"
"100","80","18","770.053573807","1","0","7","420","1","left","in","Female","Right-handed","0","3","no","left","s","836.406926601","1103.50743057","26","red","0"
"100","81","18","765.547648366","1","1","7","421","2","left","out","Female","Right-handed","0","3","no","left","s","532.016320373","863.901213124","26","red","2"
"100","82","18","762.34094543","1","1","7","422","2","right","out","Female","Right-handed","0","3","no","right","d","734.539935973","687.527460932","26","green","3"
"100","83","18","759.282677147","1","1","7","423","3","right","out","Female","Right-handed","0","3","no","right","d","775.329964151","639.254268512","26","red","1"
"100","78","18","744.734252781","1","0","7","424","1","right","out","Female","Right-handed","0","3","no","right","d","509.835263269","455.889965126","26","red","0"
"100","75","18","739.575092381","1","0","7","425","0","right","in","Female","Right-handed","0","3","no","right","s","707.50875703","575.593332534","26","green","2"
"100","76","18","726.145538384","1","1","7","426","3","right","out","Female","Right-handed","0","3","no","right","s","428.152899907","486.956016968","26","red","0"
"100","77","18","725.832804985","1","1","7","427","2","right","in","Female","Right-handed","0","3","no","right","d","742.817182189","695.713625048","26","red","1"
"100","78","18","724.809991612","1","1","7","428","2","left","out","Female","Right-handed","0","3","no","left","s","837.181445165","567.434749617","26","red","0"
"100","79","18","721.672110479","1","1","7","429","0","right","out","Female","Right-handed","0","3","no","right","s","732.000220649","567.001468217","26","red","1"
"100","80","18","721.394614482","1","1","7","430","2","left","out","Female","Right-handed","0","3","no","left","s","589.846719088","839.622702021","26","green","1"
"100","80","18","712.635289113","1","1","7","431","3","left","in","Female","Right-handed","0","3","no","left","s","524.239063573","463.065246214","26","green","1"
"100","81","18","703.955005015","1","1","7","432","3","right","in","Female","Right-handed","0","3","no","right","d","516.747240116","439.78799679","26","red","0"
"100","82","18","704.057361656","1","1","7","433","0","left","in","Female","Right-handed","0","3","no","left","s","598.294583887","815.347398034","26","green","0"
"100","82","18","695.195532014","1","1","7","434","2","left","in","Female","Right-handed","0","3","no","left","d","375.014191489","519.114412588","26","red","0"
"100","80","18","697.531279539","1","0","7","435","0","left","in","Female","Right-handed","0","3","no","left","s","506.767656618","1023.76825891","26","green","0"
"100","80","18","696.762507231","1","1","7","436","1","right","out","Female","Right-handed","0","3","no","right","s","492.198048406","855.200627569","26","red","0"
"100","81","18","691.764968453","1","1","7","437","0","right","out","Female","Right-handed","0","3","no","right","s","666.771325559","406.911207139","26","green","1"
"100","81","18","689.118205148","1","1","7","438","1","left","out","Female","Right-handed","0","3","no","left","s","505.425157774","703.418401022","26","green","1"
"100","82","18","693.672470088","1","1","7","439","2","left","in","Female","Right-handed","0","3","no","left","d","760.981967668","926.94445852","26","green","0"
"100","82","18","686.830476694","1","1","7","440","3","right","out","Female","Right-handed","0","3","no","right","s","460.720844266","447.684558312","26","red","0"
"100","83","18","697.149793957","1","1","7","441","1","left","in","Female","Right-handed","0","3","no","left","d","917.403287807","1199.24850853","26","red","2"
"100","83","18","707.223865431","1","1","7","442","1","left","out","Female","Right-handed","0","3","no","left","d","764.873161762","1374.90771523","26","red","2"
"100","84","18","703.742180502","1","1","7","443","1","right","in","Female","Right-handed","0","3","no","right","d","446.376375612","703.463300649","26","red","1"
"100","84","18","703.761381541","1","1","7","444","3","left","in","Female","Right-handed","0","3","no","left","d","722.070347452","686.911694621","26","red","1"
"100","85","18","706.295645281","1","1","7","445","3","left","out","Female","Right-handed","0","3","no","left","d","907.609075626","702.654786653","26","red","3"
"100","85","18","711.743969092","1","1","7","446","0","left","in","Female","Right-handed","0","3","no","left","d","756.140825755","1103.2130173","26","green","0"
"100","85","18","712.41380837","1","1","7","447","2","right","in","Female","Right-handed","0","3","no","right","d","656.860695059","822.893742467","26","red","2"
"100","83","18","708.69162353","1","0","7","448","0","right","in","Female","Right-handed","0","3","no","right","d","465.328828832","639.390891662","26","green","0"
"100","84","18","707.992506777","1","1","7","449","3","right","out","Female","Right-handed","0","3","no","right","s","476.902349084","878.958623711","26","green","0"
"97","84","18","710.825093361","0","1","7","450","3","right","out","Female","Right-handed","0","3","no","left","d","845.438165837","825.479640264","26","green","2"
"97","84","18","717.180575897","1","1","7","451","3","right","out","Female","Right-handed","0","3","no","right","d","583.144166929","1423.21041312","26","green","0"
"97","85","18","714.577350327","1","1","7","452","1","right","in","Female","Right-handed","0","3","no","right","d","510.829790005","678.828158224","26","green","3"
"97","85","18","711.335361139","1","1","7","453","1","left","out","Female","Right-handed","0","3","no","left","d","575.454785113","542.468953512","26","red","1"
"97","85","18","709.940994691","1","1","7","454","2","left","out","Female","Right-handed","0","3","no","left","s","535.00406983","751.018740464","26","green","1"
"98","86","18","708.664499084","1","1","7","455","0","left","out","Female","Right-handed","0","3","no","left","s","813.65051285","478.581915841","26","green","1"
"98","86","18","704.646336644","1","1","7","456","2","left","out","Female","Right-handed","0","3","no","left","s","576.322310047","431.154119252","26","red","1"
"98","86","18","702.112814852","1","1","7","457","1","left","in","Female","Right-handed","0","3","no","left","s","730.909480428","414.896926492","26","red","2"
"98","86","18","698.829405005","1","1","7","458","3","right","in","Female","Right-handed","0","3","no","right","s","681.602955165","374.581230802","26","green","2"
"98","87","18","699.157571938","1","1","7","459","0","right","in","Female","Right-handed","0","3","no","right","d","714.030107124","719.070731665","26","red","2"
"98","87","18","701.010696432","1","1","7","460","2","left","out","Female","Right-handed","0","3","no","left","s","1011.52862063","590.630217577","26","green","3"
"98","87","18","698.345877128","1","1","7","461","0","right","out","Female","Right-handed","0","3","no","right","s","640.397284727","463.164346104","26","red","0"
"98","85","18","695.45304967","1","0","7","462","2","right","in","Female","Right-handed","0","3","no","right","s","372.05177825","694.857645733","26","green","0"
"98","86","18","692.790839047","1","1","7","463","3","left","in","Female","Right-handed","0","3","no","left","d","611.445684601","470.64398252","26","red","1"
"98","84","18","694.136229403","1","0","7","464","0","right","in","Female","Right-handed","0","3","no","right","d","873.138028508","671.199711616","26","green","3"
"98","85","18","691.047706602","1","1","7","465","2","left","out","Female","Right-handed","0","3","no","left","s","578.820974283","438.828748334","26","green","2"
"98","85","18","687.740050676","1","1","7","466","1","right","out","Female","Right-handed","0","3","no","right","s","523.235877624","455.325512673","26","green","0"
"98","85","18","687.114182627","1","1","7","467","1","left","in","Female","Right-handed","0","3","no","left","d","714.932589624","582.939873627","26","green","2"
"98","85","18","692.955334574","1","1","7","468","0","right","in","Female","Right-handed","0","3","no","right","s","863.664527948","1246.54898261","26","green","3"
"98","85","18","691.169722674","1","1","7","469","1","left","in","Female","Right-handed","0","3","no","left","d","534.164126096","623.188219878","26","green","0"
"100","100","18","670.741254354","1","1","8","470","0","right","out","Female","Right-handed","0","3","no","right","s","973.652257521","367.830251187","26","green","3"
"100","100","18","664.316197925","1","1","8","471","0","left","out","Female","Right-handed","0","3","no","left","s","820.263586467","495.518696526","26","red","2"
"100","100","18","666.537847499","1","1","8","472","2","left","out","Female","Right-handed","0","3","no","left","d","879.035273789","462.927019505","26","red","1"
"100","100","18","629.553463589","1","1","8","473","3","right","in","Female","Right-handed","0","3","no","right","d","669.61732048","367.583303239","26","green","0"
"100","80","18","743.159509773","1","0","8","474","0","left","out","Female","Right-handed","0","3","no","left","d","1476.11820917","919.049179844","26","green","1"
"100","83","18","767.407424987","1","1","8","475","2","right","out","Female","Right-handed","0","3","no","right","s","777.721510706","999.57249141","26","red","3"
"100","85","18","746.447523194","1","1","8","476","1","left","out","Female","Right-handed","0","3","no","left","s","578.081092575","663.295132303","26","green","0"
"100","87","18","721.25271322","1","1","8","477","2","right","out","Female","Right-handed","0","3","no","right","d","626.76062662","463.017460181","26","red","0"
"100","88","18","729.119446335","1","1","8","478","2","right","in","Female","Right-handed","0","3","no","right","d","1016.537174","567.569448498","26","red","1"
"100","90","18","739.012981124","1","1","8","479","1","right","out","Female","Right-handed","0","3","no","right","s","1113.1044051","543.005183342","26","red","2"
"100","90","18","735.851952635","1","1","8","480","3","left","out","Female","Right-handed","0","3","no","left","d","632.81437917","775.668956334","26","green","2"
"100","91","18","722.807302668","1","1","8","481","3","left","in","Female","Right-handed","0","3","no","left","s","615.20570764","543.426598411","26","red","0"
"100","92","18","717.81699593","1","1","8","482","3","left","in","Female","Right-handed","0","3","no","left","d","828.957437078","486.909193071","26","green","2"
"100","92","18","739.761670948","1","1","8","483","1","right","in","Female","Right-handed","0","3","no","right","s","586.614266664","1463.4706257","26","red","0"
"100","93","18","727.328425163","1","1","8","484","1","left","out","Female","Right-handed","0","3","no","left","d","499.298603685","607.227364655","26","green","1"
"100","93","18","717.603235467","1","1","8","485","3","right","in","Female","Right-handed","0","3","no","right","d","704.60952398","438.841256087","26","red","1"
"100","94","18","718.297458217","1","1","8","486","2","left","out","Female","Right-handed","0","3","no","left","s","571.380785396","887.429259034","26","red","0"
"100","94","18","713.561805797","1","1","8","487","0","left","out","Female","Right-handed","0","3","no","left","s","634.922416653","631.189012676","26","green","0"
"100","94","18","743.217599087","1","1","8","488","2","left","in","Female","Right-handed","0","3","no","left","d","794.711529519","1759.33222709","26","red","1"
"100","90","18","753.363238623","1","0","8","489","3","left","out","Female","Right-handed","0","3","no","left","s","501.107096514","1391.15368308","26","red","1"
"100","90","18","746.874230006","1","1","8","490","3","right","in","Female","Right-handed","0","3","no","right","s","771.559999051","462.628116274","26","red","3"
"100","90","18","736.755761715","1","1","8","491","2","right","in","Female","Right-handed","0","3","no","right","d","529.360828155","519.175027084","26","green","2"
"100","91","18","730.088347127","1","1","8","492","0","left","in","Female","Right-handed","0","3","no","left","d","535.921946489","630.888505888","26","red","0"
"100","91","18","729.813889443","1","1","8","493","0","left","in","Female","Right-handed","0","3","no","left","d","480.510675528","966.492049879","26","green","0"
"100","92","18","730.445917437","1","1","8","494","0","right","in","Female","Right-handed","0","3","no","right","d","980.124859448","511.104319152","26","green","1"
"100","88","18","740.702422098","1","0","8","495","1","right","out","Female","Right-handed","0","3","no","right","s","771.583731711","1222.64634552","26","green","2"
"100","88","18","736.335030183","1","1","8","496","0","left","in","Female","Right-handed","0","3","no","left","d","750.287197256","495.278483522","26","red","2"
"100","89","18","738.087310028","1","1","8","497","2","left","in","Female","Right-handed","0","3","no","left","d","883.96525282","686.83247885","26","green","3"
"100","89","18","736.595885464","1","1","8","498","1","left","out","Female","Right-handed","0","3","no","left","s","575.34510174","814.326893658","26","green","1"
"100","90","18","757.778015817","1","1","8","499","0","left","out","Female","Right-handed","0","3","no","left","s","1130.12938148","1613.9902106","26","green","3"
"100","90","18","753.41858931","1","1","8","500","0","left","in","Female","Right-handed","0","3","no","left","d","598.613371237","646.658216985","26","green","2"
"100","90","18","759.725529783","1","1","8","501","1","right","in","Female","Right-handed","0","3","no","right","d","895.300484339","1015.18088456","26","red","2"
"100","90","18","764.848005336","1","1","8","502","2","right","out","Female","Right-handed","0","3","no","right","s","1482.78452092","374.749925114","26","green","0"
"100","91","18","761.126462402","1","1","8","503","1","left","in","Female","Right-handed","0","3","no","left","s","774.228640446","502.40245075","26","red","3"
"100","91","18","758.908228003","1","1","8","504","1","right","out","Female","Right-handed","0","3","no","right","d","608.026578013","758.949938841","26","green","0"
"100","91","18","759.234410048","1","1","8","505","3","right","out","Female","Right-handed","0","3","no","right","s","694.711721945","846.589841267","26","red","1"
"100","91","18","756.653916675","1","1","8","506","3","right","out","Female","Right-handed","0","3","no","right","s","832.219715682","495.292594833","26","green","0"
"100","92","18","754.144898084","1","1","8","507","2","right","in","Female","Right-handed","0","3","no","right","s","843.871810283","478.750610154","26","green","1"
"100","92","18","746.43427475","1","1","8","508","3","right","out","Female","Right-handed","0","3","no","right","s","572.409307564","334.451868562","26","green","1"
"100","92","18","751.198407122","1","1","8","509","2","left","in","Female","Right-handed","0","3","no","left","d","1330.92724785","543.071891359","26","red","2"
"100","92","18","757.454507487","1","1","8","510","2","right","out","Female","Right-handed","0","3","no","right","s","536.726932657","1478.67011154","26","red","0"
"100","92","18","756.700177366","1","1","8","511","1","right","in","Female","Right-handed","0","3","no","right","d","845.306674073","606.238610729","26","green","2"
"100","93","18","754.830405532","1","1","8","512","1","left","in","Female","Right-handed","0","3","no","left","s","921.864707161","430.735269875","26","green","0"
"100","93","18","752.604925472","1","1","8","513","1","left","in","Female","Right-handed","0","3","no","left","s","603.449702476","710.368863263","26","red","0"
"100","93","18","752.648921194","1","1","8","514","3","left","out","Female","Right-handed","0","3","no","left","d","598.001453465","911.168012479","26","red","0"
"100","93","18","748.399241152","1","1","8","515","3","left","out","Female","Right-handed","0","3","no","left","d","507.564304283","606.762974228","26","red","0"
"100","93","18","747.269683031","1","1","8","516","3","right","in","Female","Right-handed","0","3","no","right","d","776.324811598","614.29520735","26","red","2"
"100","93","18","744.543108479","1","1","8","517","2","left","in","Female","Right-handed","0","3","no","left","d","713.828379515","518.959829587","26","green","2"
"100","93","18","741.836563866","1","1","8","518","3","right","out","Female","Right-handed","0","3","no","right","d","689.429280843","534.415564007","26","red","0"
"100","94","18","743.491808704","1","1","8","519","1","left","in","Female","Right-handed","0","3","no","left","s","571.057187372","1078.14042422","26","green","1"
"100","94","18","743.936827332","1","1","8","520","3","right","out","Female","Right-handed","0","3","no","right","s","621.735716947","910.63980044","26","green","3"
"100","94","18","740.127682204","1","1","8","521","2","right","in","Female","Right-handed","0","3","no","right","s","629.448510711","462.274050646","26","green","0"
"100","94","18","737.914027961","1","1","8","522","2","left","out","Female","Right-handed","0","3","no","left","s","798.814713993","446.793300719","26","red","0"
"100","94","18","735.008537224","1","1","8","523","0","right","in","Female","Right-handed","0","3","no","right","d","683.533639121","478.501417225","26","green","1"
"100","94","18","733.112573919","1","1","8","524","1","right","in","Female","Right-handed","0","3","no","right","s","839.177875003","422.283235826","26","red","3"
"100","94","18","732.472989667","1","1","8","525","0","right","out","Female","Right-handed","0","3","no","right","s","699.75106364","694.840648018","26","red","1"
"100","94","18","728.278640805","1","1","8","526","0","right","in","Female","Right-handed","0","3","no","right","d","493.408414063","493.381794998","26","green","0"
"100","94","18","727.910566888","1","1","8","527","0","left","out","Female","Right-handed","0","3","no","left","d","783.930166968","629.930540277","26","green","0"
"100","94","18","727.634987603","1","1","8","528","1","left","out","Female","Right-handed","0","3","no","left","s","992.67398445","430.628793618","26","red","1"
"100","95","18","731.378269949","1","1","8","529","3","right","out","Female","Right-handed","0","3","no","right","d","802.130551437","1102.33330532","26","red","2"
"100","95","18","729.785438773","1","1","8","530","0","left","in","Female","Right-handed","0","3","no","left","s","653.636581137","614.794555343","26","red","2"
"100","95","18","727.374449522","1","1","8","531","0","right","in","Female","Right-handed","0","3","no","right","d","562.29598732","598.312223025","26","red","0"
"100","95","18","723.645115324","1","1","8","532","2","left","in","Female","Right-handed","0","3","no","left","s","458.810044432","526.042745727","26","green","2"
"100","95","18","728.145682893","1","1","8","533","1","right","out","Female","Right-handed","0","3","no","right","s","568.701560519","1454.66131891","26","green","0"
dis_reply=No
dis_loc=0
tar_loc=1
