"acc_1","acc_2","age","avg_rt","correct_1","correct_2","count_block_loop","count_trial_sequence","cue_position","detection","dis_shape","gender","hand","high_loc","low_loc","practice","response_keyboard_response_1","response_keyboard_response_2","response_time_keyboard_response_1","response_time_keyboard_response_2","subject_nr","tar_color","tar_position"
"100","100","21","1430.32767301","1","1","0","0","3","right","in","Female","Right-handed","0","2","yes","right","s","1660.53873343","1200.11661258","1","red","2"
"100","100","21","1407.70399905","1","1","0","1","0","left","in","Female","Right-handed","0","2","yes","left","s","1456.06454359","1314.09610659","1","red","0"
"100","100","21","1192.6827211","1","1","0","2","3","left","out","Female","Right-handed","0","2","yes","left","s","851.610815464","673.669514952","1","red","1"
"100","100","21","1150.33805941","1","1","0","3","1","left","in","Female","Right-handed","0","2","yes","left","s","765.220010026","1281.38813868","1","red","1"
"80","100","21","1120.93012963","0","1","0","4","0","left","out","Female","Right-handed","0","2","yes","right","d","721.851741026","1284.74507997","1","red","1"
"83","100","21","1163.50699285","1","1","0","5","1","right","out","Female","Right-handed","0","2","yes","right","d","1119.38741835","1633.39519958","1","red","0"
"85","100","21","1225.71026026","1","1","0","6","3","right","out","Female","Right-handed","0","2","yes","right","d","1787.97581925","1409.88391019","1","green","1"
"87","100","21","1270.53877513","1","1","0","7","2","right","in","Female","Right-handed","0","2","yes","right","d","1263.37380457","1905.30295377","1","red","0"
"88","88","21","1252.01851048","1","0","0","8","2","right","out","Female","Right-handed","0","2","yes","right","s","1461.87657091","745.836215776","1","red","3"
"90","90","21","1255.29636304","1","1","0","9","0","right","out","Female","Right-handed","0","2","yes","right","s","1208.37250086","1361.22157127","1","red","2"
"90","90","21","1281.25951672","1","1","0","10","1","left","out","Female","Right-handed","0","2","yes","left","s","1527.9711432","1553.81096383","1","red","1"
"91","91","21","1277.31706829","1","1","0","11","3","right","out","Female","Right-handed","0","2","yes","right","d","1306.46401222","1161.43625901","1","green","3"
"92","92","21","1272.40381652","1","1","0","12","2","right","in","Female","Right-handed","0","2","yes","right","d","1288.96442835","1137.92516205","1","green","2"
"92","92","21","1275.12592825","1","1","0","13","0","left","out","Female","Right-handed","0","2","yes","left","d","1691.60142488","929.425336681","1","red","2"
"93","93","21","1252.65604175","1","1","0","14","2","left","in","Female","Right-handed","0","2","yes","left","d","1035.12969942","841.02556208","1","red","1"
"93","93","21","1237.34425999","1","1","0","15","1","left","in","Female","Right-handed","0","2","yes","left","d","1077.68495169","937.650115442","1","green","2"
"94","88","21","1234.54102776","1","0","0","16","3","right","out","Female","Right-handed","0","2","yes","right","s","1042.18161735","1337.19700694","1","red","0"
"94","88","21","1225.9715158","1","1","0","17","2","right","out","Female","Right-handed","0","2","yes","right","s","958.881879093","1201.69774572","1","green","0"
"94","89","21","1227.51244917","1","1","0","18","2","right","in","Female","Right-handed","0","2","yes","right","s","1405.31818781","1105.18031172","1","green","1"
"95","90","21","1216.7259752","1","1","0","19","1","right","out","Female","Right-handed","0","2","yes","right","s","966.807749926","1056.75818958","1","green","3"
"95","90","21","1237.73015563","1","1","0","20","1","left","out","Female","Right-handed","0","2","yes","left","d","2258.32604505","1057.3014836","1","red","0"
"95","90","21","1229.0577706","1","1","0","21","0","right","out","Female","Right-handed","0","2","yes","right","d","1156.98471176","936.89065839","1","red","1"
"100","0","21","1206.8891863","1","0","1","22","1","left","out","Female","Right-handed","0","2","no","left","s","1172.39065727","1241.38771533","1","red","0"
"100","50","21","1265.12972829","1","1","1","23","3","right","in","Female","Right-handed","0","2","no","right","d","1644.88904326","1001.85149728","1","green","2"
"100","66","21","1176.54981783","1","1","1","24","3","right","in","Female","Right-handed","0","2","no","right","s","885.313646462","1113.46634736","1","red","0"
"100","75","21","1111.92057324","1","1","1","25","0","left","in","Female","Right-handed","0","2","no","left","d","746.977325653","1089.08835327","1","green","0"
"80","60","21","1313.38834907","0","0","1","26","2","left","in","Female","Right-handed","0","2","no","None","d","3000.16292406","1238.35598074","1","green","1"
"83","50","21","1340.39532712","1","0","1","27","2","right","out","Female","Right-handed","0","2","no","right","d","1212.93629894","1737.92413576","1","green","3"
"85","42","21","1283.32622946","1","0","1","28","0","right","in","Female","Right-handed","0","2","no","right","d","976.445606293","905.37768075","1","green","3"
"87","50","21","1237.98022108","1","1","1","29","2","left","out","Female","Right-handed","0","2","no","left","d","864.12999031","976.986334585","1","red","1"
"88","44","21","1250.05187592","1","0","1","30","0","left","in","Female","Right-handed","0","2","no","left","s","1251.62050111","1441.62972813","1","red","2"
"90","40","21","1234.46244841","1","0","1","31","1","right","in","Female","Right-handed","0","2","no","right","s","1003.20460087","1185.11060074","1","green","0"
"90","36","21","1198.65934896","1","0","1","32","2","left","out","Female","Right-handed","0","2","no","left","d","951.585254346","729.671454646","1","green","0"
"91","33","21","1234.86710464","1","0","1","33","1","right","out","Female","Right-handed","0","2","no","right","d","2041.24416256","1225.06067158","1","red","2"
"92","38","21","1198.27245477","1","1","1","34","2","right","in","Female","Right-handed","0","2","no","right","s","964.641308883","553.63200393","1","red","0"
"92","42","21","1178.80873599","1","1","1","35","3","left","out","Female","Right-handed","0","2","no","left","d","826.36592424","1025.19485943","1","green","0"
"93","46","21","1183.44397524","1","1","1","36","3","right","in","Female","Right-handed","0","2","no","right","s","1446.81443366","1049.86021564","1","green","3"
"93","50","21","1179.84604678","1","1","1","37","3","left","in","Female","Right-handed","0","2","no","left","d","1090.33690323","1161.41733673","1","green","1"
"94","52","21","1162.23155143","1","1","1","38","3","right","out","Female","Right-handed","0","2","no","right","d","991.883302753","768.915948824","1","red","1"
"94","50","21","1153.11148792","1","0","1","39","2","right","in","Female","Right-handed","0","2","no","right","d","1338.5687121","657.572104323","1","green","1"
"94","52","21","1142.00113321","1","1","1","40","1","left","out","Female","Right-handed","0","2","no","left","s","1011.03746388","872.992033077","1","red","3"
"95","55","21","1129.28231309","1","1","1","41","0","right","out","Female","Right-handed","0","2","no","right","d","821.710401195","953.539060241","1","red","1"
"95","57","21","1130.58985277","1","1","1","42","3","left","in","Female","Right-handed","0","2","no","left","d","1144.16566683","1169.31562593","1","red","0"
"95","59","21","1128.71331216","1","1","1","43","0","right","in","Female","Right-handed","0","2","no","right","d","873.851233011","1304.76068604","1","red","1"
"95","60","21","1128.63057709","1","1","1","44","1","left","in","Female","Right-handed","0","2","no","left","d","1196.30104647","1057.31976445","1","red","0"
"95","62","21","1119.18450493","1","1","1","45","1","left","out","Female","Right-handed","0","2","no","left","d","770.930690886","1032.91899948","1","green","1"
"96","64","21","1107.63650743","1","1","1","46","2","right","in","Female","Right-handed","0","2","no","right","d","851.592534615","809.376600577","1","red","3"
"96","65","21","1112.62960993","1","1","1","47","1","left","in","Female","Right-handed","0","2","no","left","d","1393.97059092","1080.94375368","1","green","3"
"96","62","21","1118.2014319","1","0","1","48","3","right","out","Female","Right-handed","0","2","no","right","d","980.706647848","1545.4309582","1","green","0"
"96","64","21","1137.83909544","1","1","1","49","2","left","out","Female","Right-handed","0","2","no","left","s","1735.18200831","1600.93001417","1","green","1"
"96","62","21","1136.55374443","1","0","1","50","3","right","out","Female","Right-handed","0","2","no","right","d","751.610398533","1449.51743368","1","red","1"
"96","63","21","1139.58593982","1","1","1","51","1","left","in","Female","Right-handed","0","2","no","left","d","1686.07451467","768.964697756","1","red","2"
"96","64","21","1134.86184721","1","1","1","52","0","right","in","Female","Right-handed","0","2","no","right","d","856.650877786","1129.62725989","1","red","1"
"96","62","21","1126.88880565","1","0","1","53","2","right","out","Female","Right-handed","0","2","no","right","s","1006.35949066","753.08954377","1","red","0"
"96","60","21","1163.31494917","1","0","1","54","0","left","out","Female","Right-handed","0","2","no","left","None","1657.77159008","3000.13149383","1","red","0"
"97","61","21","1154.6477485","1","1","1","55","0","left","out","Female","Right-handed","0","2","no","left","s","648.111604267","1089.148648","1","red","0"
"97","62","21","1139.94925529","1","1","1","56","1","left","out","Female","Right-handed","0","2","no","left","s","719.627570985","560.773401812","1","green","1"
"97","63","21","1140.14010258","1","1","1","57","3","left","in","Female","Right-handed","0","2","no","left","d","1564.26953413","729.369980983","1","red","2"
"97","64","21","1137.3504638","1","1","1","58","1","left","in","Female","Right-handed","0","2","no","left","d","1072.94957019","1000.89736522","1","green","3"
"97","65","21","1129.76209593","1","1","1","59","0","right","out","Female","Right-handed","0","2","no","right","d","800.478637544","897.506331748","1","red","0"
"97","66","21","1132.7951716","1","1","1","60","0","right","out","Female","Right-handed","0","2","no","right","s","927.049467658","1569.05462671","1","green","3"
"97","67","21","1133.92810639","1","1","1","61","1","left","in","Female","Right-handed","0","2","no","left","s","731.659577224","1624.56554919","1","green","0"
"97","65","21","1126.48172173","1","0","1","62","1","right","in","Female","Right-handed","0","2","no","right","d","752.137336005","905.115334523","1","green","0"
"97","66","21","1130.54402465","1","1","1","63","2","left","out","Female","Right-handed","0","2","no","left","s","1857.6406094","736.5562792","1","green","0"
"97","67","21","1127.45307317","1","1","1","64","1","right","out","Female","Right-handed","0","2","no","right","s","1018.13973433","977.126487765","1","red","1"
"97","68","21","1122.50535283","1","1","1","65","0","left","in","Female","Right-handed","0","2","no","left","s","1146.81254143","672.694215587","1","red","3"
"97","66","21","1117.36715996","1","0","1","66","3","left","out","Female","Right-handed","0","2","no","left","s","853.286560015","929.286787083","1","red","3"
"97","67","21","1119.05261107","1","1","1","67","0","left","out","Female","Right-handed","0","2","no","left","d","1276.98085033","1112.81497182","1","green","1"
"97","68","21","1122.61409749","1","1","1","68","0","left","in","Female","Right-handed","0","2","no","left","d","1731.51653759","841.36840819","1","green","2"
"97","68","21","1136.78763685","1","1","1","69","2","left","in","Female","Right-handed","0","2","no","left","s","2069.007321","1536.88065203","1","red","2"
"97","69","21","1131.61761112","1","1","1","70","0","right","in","Female","Right-handed","0","2","no","right","d","693.487880277","1073.42487228","1","red","0"
"98","68","21","1131.11743457","1","0","1","71","0","right","out","Female","Right-handed","0","2","no","right","s","772.129209046","1441.0883584","1","green","3"
"98","66","21","1126.15426319","1","0","1","72","1","left","in","Female","Right-handed","0","2","no","left","d","683.467088216","1072.5242999","1","red","3"
"98","67","21","1116.97209193","1","1","1","73","1","right","out","Female","Right-handed","0","2","no","right","s","584.247616354","713.115098473","1","green","0"
"98","67","21","1111.82690128","1","1","1","74","3","right","in","Female","Right-handed","0","2","no","right","s","887.726397899","800.82757727","1","green","1"
"98","68","21","1105.49351826","1","1","1","75","3","left","out","Female","Right-handed","0","2","no","left","s","890.315864217","649.332572593","1","red","3"
"98","69","21","1104.3098488","1","1","1","76","2","right","out","Female","Right-handed","0","2","no","right","s","1111.99489932","968.788496022","1","green","3"
"98","69","21","1098.34035027","1","1","1","77","2","right","in","Female","Right-handed","0","2","no","right","s","907.40236503","632.633497509","1","green","0"
"98","70","21","1098.72932397","1","1","1","78","2","right","in","Female","Right-handed","0","2","no","right","d","1008.00829502","1233.01540691","1","red","0"
"98","70","21","1090.11508342","1","1","1","79","3","right","in","Female","Right-handed","0","2","no","right","s","525.584369809","672.622375054","1","red","3"
"98","71","21","1089.82904024","1","1","1","80","3","right","out","Female","Right-handed","0","2","no","right","s","953.187554782","1193.28951702","1","red","0"
"98","71","21","1092.50241954","1","1","1","81","0","right","out","Female","Right-handed","0","2","no","right","d","547.730496659","1952.73309927","1","green","0"
"98","72","21","1089.45669898","1","1","1","82","2","right","out","Female","Right-handed","0","2","no","right","d","1045.33394141","768.092989873","1","green","2"
"98","72","21","1085.25364503","1","1","1","83","2","left","in","Female","Right-handed","0","2","no","left","s","784.907522955","872.827184714","1","green","3"
"98","73","21","1082.78840391","1","1","1","84","3","left","out","Female","Right-handed","0","2","no","left","d","931.511598557","928.375310334","1","red","0"
"98","71","21","1080.25234117","1","0","1","85","1","left","out","Female","Right-handed","0","2","no","left","d","663.958855901","1177.00192141","1","green","1"
"100","100","21","1708.45540611","1","1","2","86","2","right","in","Female","Right-handed","0","2","no","right","d","1263.97995906","2152.93085317","1","green","0"
"100","100","21","1247.21561813","1","1","2","87","3","right","in","Female","Right-handed","0","2","no","right","d","826.541997687","745.409662615","1","red","0"
"100","100","21","1221.83191005","1","1","2","88","2","right","out","Female","Right-handed","0","2","no","right","s","1229.06257407","1113.06641369","1","red","1"
"100","100","21","1171.63224254","1","1","2","89","1","right","in","Female","Right-handed","0","2","no","right","s","1432.51945066","609.547029409","1","red","3"
"100","100","21","1095.63289745","1","1","2","90","0","left","out","Female","Right-handed","0","2","no","left","d","766.024688128","817.246345994","1","green","1"
"100","100","21","1064.33017631","1","1","2","91","3","left","in","Female","Right-handed","0","2","no","left","s","846.843362304","968.789778888","1","red","1"
"100","100","21","1007.41146422","1","1","2","92","0","left","in","Female","Right-handed","0","2","no","left","d","650.433913604","681.364469789","1","green","1"
"100","100","21","1119.83367554","1","1","2","93","1","right","out","Female","Right-handed","0","2","no","right","s","2612.82571583","1200.75259372","1","green","0"
"88","100","21","1110.7265362","0","1","2","94","1","left","out","Female","Right-handed","0","2","no","right","s","871.416993557","1204.32184943","1","green","3"
"90","90","21","1132.93865941","1","0","2","95","3","left","out","Female","Right-handed","0","2","no","left","d","1880.78993796","784.905598655","1","red","2"
"90","90","21","1105.93202784","1","1","2","96","2","right","in","Female","Right-handed","0","2","no","right","d","862.372783728","809.358640443","1","green","1"
"91","91","21","1123.51685917","1","1","2","97","1","right","in","Female","Right-handed","0","2","no","right","s","1529.05741053","1104.84259707","1","green","2"
"92","92","21","1098.94496307","1","1","2","98","3","right","in","Female","Right-handed","0","2","no","right","d","758.587589484","849.576830404","1","green","1"
"92","92","21","1086.74486518","1","1","2","99","1","left","out","Female","Right-handed","0","2","no","left","d","1039.07708008","817.210105013","1","red","3"
"93","93","21","1088.24391699","1","1","2","100","0","right","in","Female","Right-handed","0","2","no","right","d","1073.75200328","1144.70928157","1","red","3"
"93","93","21","1071.59311912","1","1","2","101","0","left","out","Female","Right-handed","0","2","no","left","d","802.368300108","841.294001924","1","green","0"
"94","94","21","1063.22579006","1","1","2","102","2","left","in","Female","Right-handed","0","2","no","left","d","721.929354458","1136.76769562","1","green","0"
"94","88","21","1067.1562157","1","0","2","103","1","right","out","Female","Right-handed","0","2","no","right","d","866.392646351","1401.55425708","1","green","0"
"94","89","21","1052.83109003","1","1","2","104","1","right","out","Female","Right-handed","0","2","no","right","s","572.990782282","1016.9668735","1","red","1"
"95","90","21","1040.21552801","1","1","2","105","3","right","out","Female","Right-handed","0","2","no","right","s","544.499917736","1056.53978153","1","red","3"
"90","85","21","1038.68659991","0","0","2","106","2","left","in","Female","Right-handed","0","2","no","right","d","1116.09365825","900.12241755","1","green","2"
"90","86","21","1037.05241038","1","1","2","107","0","right","out","Female","Right-handed","0","2","no","right","d","900.76192657","1104.70693393","1","red","3"
"91","82","21","1027.91036739","1","0","2","108","3","right","out","Female","Right-handed","0","2","no","right","d","804.312484504","849.258358759","1","green","1"
"91","83","21","1018.05398939","1","1","2","109","3","left","out","Female","Right-handed","0","2","no","left","d","757.839998947","824.874591768","1","green","0"
"92","84","21","1004.65195026","1","1","2","110","1","left","out","Female","Right-handed","0","2","no","left","d","764.453176489","601.552845928","1","green","0"
"92","80","21","988.396828941","1","0","2","111","0","right","in","Female","Right-handed","0","2","no","right","d","627.040519663","536.997072179","1","red","0"
"92","81","21","988.679260165","1","1","2","112","2","right","in","Female","Right-handed","0","2","no","right","s","863.625182288","1128.41976166","1","red","0"
"92","82","21","973.878011707","1","1","2","113","2","left","in","Female","Right-handed","0","2","no","left","d","571.20759765","577.281009051","1","green","0"
"93","79","21","978.699044495","1","0","2","114","2","right","in","Female","Right-handed","0","2","no","right","d","1114.82714815","1112.548777","1","red","3"
"93","80","21","969.303812861","1","1","2","115","0","left","in","Female","Right-handed","0","2","no","left","d","672.328598592","721.355592354","1","green","0"
"93","80","21","964.231060546","1","1","2","116","3","left","out","Female","Right-handed","0","2","no","left","s","830.988734186","793.108247966","1","green","3"
"93","78","21","968.896582547","1","0","2","117","1","right","out","Female","Right-handed","0","2","no","right","d","1474.51184519","752.543684013","1","red","1"
"93","78","21","966.553868673","1","1","2","118","2","left","in","Female","Right-handed","0","2","no","left","d","982.085729489","801.088319915","1","red","2"
"94","79","21","968.338502248","1","1","2","119","0","left","out","Female","Right-handed","0","2","no","left","d","733.683940787","1320.77887965","1","red","0"
"94","80","21","966.422546308","1","1","2","120","0","right","out","Female","Right-handed","0","2","no","right","d","673.270864141","1129.28922453","1","green","0"
"94","80","21","967.142235131","1","1","2","121","0","right","out","Female","Right-handed","0","2","no","right","d","1135.91779647","848.744891384","1","green","2"
"94","81","21","979.389616212","1","1","2","122","3","left","in","Female","Right-handed","0","2","no","left","s","1752.33040744","1088.26026285","1","red","2"
"94","81","21","975.178150931","1","1","2","123","1","right","out","Female","Right-handed","0","2","no","right","s","773.803029297","864.904841763","1","green","1"
"94","82","21","972.57007439","1","1","2","124","1","left","in","Female","Right-handed","0","2","no","left","d","1034.42893352","712.497398186","1","red","2"
"95","82","21","968.920098094","1","1","2","125","3","left","in","Female","Right-handed","0","2","no","left","s","892.087503051","761.054542038","1","green","0"
"95","82","21","968.461498008","1","1","2","126","1","left","out","Female","Right-handed","0","2","no","left","d","1115.70078034","784.53420876","1","green","3"
"95","83","21","962.516797726","1","1","2","127","1","right","in","Female","Right-handed","0","2","no","right","s","661.256176601","776.311995733","1","red","1"
"95","81","21","960.282221264","1","0","2","128","3","right","out","Female","Right-handed","0","2","no","right","d","691.852225309","1041.00779438","1","red","0"
"95","81","21","959.253298141","1","1","2","129","0","left","out","Female","Right-handed","0","2","no","left","d","1021.59224918","808.426958543","1","red","3"
"95","82","21","954.135229752","1","1","2","130","3","left","out","Female","Right-handed","0","2","no","left","d","704.916618479","752.963822839","1","red","3"
"95","80","21","970.305527659","1","0","2","131","2","right","out","Female","Right-handed","0","2","no","right","s","2331.45874445","1064.47912247","1","green","3"
"95","80","21","965.578876274","1","1","2","132","3","left","in","Female","Right-handed","0","2","no","left","d","639.152063635","857.15376151","1","green","3"
"95","81","21","962.933666387","1","1","2","133","2","left","out","Female","Right-handed","0","2","no","left","s","828.689837163","848.527766206","1","red","1"
"95","81","21","959.990701311","1","1","2","134","2","left","out","Female","Right-handed","0","2","no","left","s","941.104554593","696.352200774","1","green","0"
"96","82","21","957.927352545","1","1","2","135","0","left","in","Female","Right-handed","0","2","no","left","s","896.900818692","816.745707287","1","green","3"
"96","82","21","953.918373723","1","1","2","136","1","right","in","Female","Right-handed","0","2","no","right","d","754.512242876","752.426622434","1","green","0"
"96","82","21","955.478032993","1","1","2","137","3","right","out","Female","Right-handed","0","2","no","right","d","1309.03808414","761.003227371","1","red","0"
"96","81","21","952.376922243","1","0","2","138","2","left","in","Female","Right-handed","0","2","no","left","s","749.65723407","832.581092405","1","red","3"
"96","79","21","949.448096516","1","0","2","139","2","right","in","Female","Right-handed","0","2","no","right","s","717.134319666","871.306346309","1","green","0"
"96","78","21","946.481672632","1","0","2","140","0","right","in","Female","Right-handed","0","2","no","right","d","699.786434776","872.803130964","1","green","1"
"96","78","21","944.11283678","1","1","2","141","3","right","out","Female","Right-handed","0","2","no","right","d","755.29671583","872.35701409","1","red","0"
"96","78","21","949.040046927","1","1","2","142","2","left","in","Female","Right-handed","0","2","no","left","s","657.084935714","1792.84269457","1","red","3"
"94","79","21","945.648598187","0","1","2","143","0","left","in","Female","Right-handed","0","2","no","right","s","629.345189587","875.326850366","1","red","2"
"94","79","21","947.629730745","1","1","2","144","2","right","in","Female","Right-handed","0","2","no","right","d","764.070882229","1360.99995606","1","red","1"
"95","80","21","944.495021462","1","1","2","145","1","left","out","Female","Right-handed","0","2","no","left","s","656.598408541","862.495938925","1","red","0"
"95","80","21","945.302073217","1","1","2","146","0","left","in","Female","Right-handed","0","2","no","left","d","1075.25873015","912.191626921","1","red","0"
"95","79","21","955.638378392","1","0","2","147","0","left","out","Female","Right-handed","0","2","no","left","d","2067.71194641","1104.59404166","1","red","1"
"95","77","21","953.830830952","1","0","2","148","1","right","out","Female","Right-handed","0","2","no","right","d","771.189509229","912.336270136","1","green","0"
"95","78","21","957.282693115","1","1","2","149","3","right","in","Female","Right-handed","0","2","no","right","s","932.747319852","1416.75269891","1","green","1"
"100","100","21","1152.67588342","1","1","3","150","1","right","out","Female","Right-handed","0","2","no","right","d","1280.71944444","1024.6323224","1","green","2"
"100","100","21","993.195755507","1","1","3","151","3","left","in","Female","Right-handed","0","2","no","left","d","1018.16956097","649.261694211","1","green","3"
"100","66","21","902.056980446","1","0","3","152","0","right","in","Female","Right-handed","0","2","no","right","d","894.823216168","544.735644482","1","green","3"
"100","75","21","866.520812747","1","1","3","153","2","left","out","Female","Right-handed","0","2","no","left","s","863.369250392","656.45536891","1","red","2"
"100","80","21","853.030114974","1","1","3","154","0","left","out","Female","Right-handed","0","2","no","left","d","669.093850353","929.040797404","1","red","0"
"100","66","21","849.701215014","1","0","3","155","0","right","in","Female","Right-handed","0","2","no","right","d","913.608873845","752.504556582","1","green","0"
"100","71","21","854.768064812","1","1","3","156","3","left","out","Female","Right-handed","0","2","no","left","s","1033.09379006","737.244537151","1","red","1"
"100","62","21","846.761278883","1","0","3","157","2","right","out","Female","Right-handed","0","2","no","right","d","828.725115993","752.702438764","1","red","0"
"100","66","21","831.048815107","1","1","3","158","3","right","in","Female","Right-handed","0","2","no","right","d","673.37573849","737.322471301","1","red","3"
"100","70","21","818.338851263","1","1","3","159","0","left","out","Female","Right-handed","0","2","no","left","d","614.939880055","792.958473288","1","green","0"
"100","63","21","821.669641022","1","0","3","160","2","right","out","Female","Right-handed","0","2","no","right","s","725.505024508","984.45005271","1","red","0"
"100","66","21","854.953859028","1","1","3","161","1","left","out","Female","Right-handed","0","2","no","left","s","953.115072814","1489.04544138","1","green","3"
"100","69","21","845.312408989","1","1","3","162","2","left","out","Female","Right-handed","0","2","no","left","d","594.68373649","864.546280536","1","red","3"
"100","71","21","862.383229927","1","1","3","163","3","left","in","Female","Right-handed","0","2","no","left","s","1119.30435273","1049.30345152","1","red","1"
"100","73","21","855.512066376","1","1","3","164","3","left","out","Female","Right-handed","0","2","no","left","d","917.860935333","600.770617992","1","green","2"
"100","68","21","867.720353192","1","0","3","165","0","left","in","Female","Right-handed","0","2","no","left","d","1293.42303137","808.266279499","1","red","3"
"100","70","21","871.527433282","1","1","3","166","2","right","out","Female","Right-handed","0","2","no","right","d","1127.92585801","736.955571443","1","red","0"
"100","72","21","856.223825734","1","1","3","167","3","left","in","Female","Right-handed","0","2","no","left","d","447.59602016","744.528974665","1","green","0"
"100","73","21","865.719107605","1","1","3","168","2","right","out","Female","Right-handed","0","2","no","right","s","1160.14761947","913.120743087","1","green","1"
"100","70","21","862.323096699","1","0","3","169","2","right","out","Female","Right-handed","0","2","no","right","d","802.716919119","792.880859852","1","red","3"
"100","71","21","853.655582714","1","1","3","170","3","right","out","Female","Right-handed","0","2","no","right","s","800.2621538","560.348452236","1","red","0"
"100","72","21","842.278973813","1","1","3","171","1","right","out","Female","Right-handed","0","2","no","right","s","589.810767546","616.929606222","1","red","0"
"100","73","21","838.465824802","1","1","3","172","2","left","out","Female","Right-handed","0","2","no","left","d","884.566055924","624.587037211","1","green","0"
"100","70","21","838.582048569","1","0","3","173","2","right","out","Female","Right-handed","0","2","no","right","d","737.241971419","945.268418996","1","green","3"
"100","68","21","826.828160334","1","0","3","174","1","right","in","Female","Right-handed","0","2","no","right","d","472.801463238","616.668222141","1","green","0"
"100","65","21","821.787231337","1","0","3","175","0","left","in","Female","Right-handed","0","2","no","left","s","879.285456107","512.242556728","1","red","3"
"100","62","21","825.049109144","1","0","3","176","0","left","in","Female","Right-handed","0","2","no","left","s","714.840233392","1104.87563089","1","red","3"
"100","64","21","823.759001772","1","1","3","177","1","left","in","Female","Right-handed","0","2","no","left","s","1025.43924552","552.412959907","1","red","2"
"100","65","21","822.216486555","1","1","3","178","0","right","out","Female","Right-handed","0","2","no","right","s","821.004183108","737.04793784","1","red","1"
"100","63","21","820.49776081","1","0","3","179","1","right","in","Female","Right-handed","0","2","no","right","s","644.616113383","896.693315015","1","green","0"
"100","61","21","814.113642555","1","0","3","180","0","right","in","Female","Right-handed","0","2","no","right","d","509.151168833","736.029021009","1","green","0"
"100","62","21","817.257335552","1","1","3","181","2","left","out","Female","Right-handed","0","2","no","left","d","1196.74652191","632.677114973","1","red","2"
"100","60","21","824.458928397","1","0","3","182","0","right","in","Female","Right-handed","0","2","no","right","d","821.392570982","1288.42722795","1","red","2"
"100","61","21","825.958486737","1","1","3","183","3","left","in","Female","Right-handed","0","2","no","left","d","1094.00878828","656.879035618","1","red","2"
"100","60","21","830.272298983","1","0","3","184","3","left","in","Female","Right-handed","0","2","no","left","d","785.463645643","1168.42018501","1","green","3"
"100","61","21","827.212433593","1","1","3","185","1","left","in","Female","Right-handed","0","2","no","left","d","568.079968776","872.154321161","1","green","0"
"100","62","21","821.793592495","1","1","3","186","3","left","in","Female","Right-handed","0","2","no","left","d","684.622951063","568.807674877","1","red","0"
"97","63","21","838.995847614","0","1","3","187","1","right","in","Female","Right-handed","0","2","no","left","d","2220.10207129","730.856502709","1","green","3"
"97","64","21","839.387641535","1","1","3","188","0","right","out","Female","Right-handed","0","2","no","right","d","659.765806282","1048.78581483","1","green","1"
"97","62","21","838.760721157","1","0","3","189","3","right","out","Female","Right-handed","0","2","no","right","d","508.255086486","1120.36656631","1","green","0"
"97","63","21","841.787463619","1","1","3","190","3","right","in","Female","Right-handed","0","2","no","right","s","660.881579541","1264.83274466","1","red","0"
"97","64","21","841.17321774","1","1","3","191","0","left","out","Female","Right-handed","0","2","no","left","d","999.468572492","632.509700878","1","green","1"
"97","65","21","843.820122973","1","1","3","192","1","right","out","Female","Right-handed","0","2","no","right","d","966.033219189","943.947066356","1","green","3"
"97","63","21","841.372635819","1","0","3","193","0","right","in","Female","Right-handed","0","2","no","right","d","847.622383073","624.638993307","1","green","1"
"97","64","21","840.834432768","1","1","3","194","3","left","out","Female","Right-handed","0","2","no","left","d","802.169776496","832.13722055","1","green","1"
"97","65","21","850.711951246","1","1","3","195","1","left","in","Female","Right-handed","0","2","no","left","s","749.870189931","1840.53037556","1","green","1"
"97","65","21","849.883739187","1","1","3","196","3","left","in","Female","Right-handed","0","2","no","left","s","775.222200518","848.349768461","1","red","3"
"97","64","21","848.353921071","1","0","3","197","2","right","out","Female","Right-handed","0","2","no","right","d","624.895245921","928.00969334","1","red","1"
"97","65","21","852.335062408","1","1","3","198","2","left","out","Female","Right-handed","0","2","no","left","d","1238.35982934","848.499863856","1","red","0"
"98","66","21","852.877736074","1","1","3","199","2","left","in","Female","Right-handed","0","2","no","left","s","647.053239285","1111.88425207","1","green","3"
"98","66","21","850.128173784","1","1","3","200","0","right","in","Female","Right-handed","0","2","no","right","s","560.674621083","864.625497554","1","red","0"
"98","65","21","849.69819082","1","0","3","201","1","left","in","Female","Right-handed","0","2","no","left","s","599.255552486","1056.28256677","1","green","0"
"98","64","21","852.000806923","1","0","3","202","1","left","out","Female","Right-handed","0","2","no","left","s","1127.75202958","815.72165899","1","red","1"
"98","62","21","853.739034801","1","0","3","203","1","right","in","Female","Right-handed","0","2","no","right","d","907.320582279","984.409642409","1","red","3"
"98","63","21","850.379403436","1","1","3","204","3","left","out","Female","Right-handed","0","2","no","left","s","633.949718682","703.968900747","1","green","0"
"98","64","21","847.813435705","1","1","3","205","1","left","out","Female","Right-handed","0","2","no","left","d","668.771530112","744.598890899","1","red","0"
"98","64","21","850.354728662","1","1","3","206","2","right","out","Female","Right-handed","0","2","no","right","d","801.181969182","1184.15229936","1","green","1"
"98","63","21","869.941884924","1","0","3","207","3","right","in","Female","Right-handed","0","2","no","right","None","972.724651598","3000.09493213","1","green","1"
"98","64","21","875.004054484","1","1","3","208","0","right","in","Female","Right-handed","0","2","no","right","d","1329.17716613","1008.0426117","1","red","2"
"98","63","21","871.798285577","1","0","3","209","1","left","out","Female","Right-handed","0","2","no","left","d","685.63160496","679.684235205","1","green","1"
"98","63","21","871.247757684","1","1","3","210","2","right","out","Female","Right-handed","0","2","no","right","s","1060.14912684","616.283041436","1","green","0"
"98","64","21","882.046888631","1","1","3","211","2","left","in","Female","Right-handed","0","2","no","left","d","1449.79870219","1631.78905054","1","green","1"
"98","63","21","881.281051895","1","0","3","212","0","right","in","Female","Right-handed","0","2","no","right","d","627.298055144","1040.30029342","1","red","0"
"98","62","21","879.048536698","1","0","3","213","1","right","in","Female","Right-handed","0","2","no","right","s","684.842000541","791.958158021","1","red","1"
"100","100","21","998.96552841","1","1","4","214","3","right","out","Female","Right-handed","0","2","no","right","s","901.507272087","1096.42378473","1","green","0"
"100","100","21","1069.51196866","1","1","4","215","0","right","out","Female","Right-handed","0","2","no","right","s","1351.2004585","928.916359342","1","green","2"
"100","100","21","935.220847096","1","1","4","216","0","right","in","Female","Right-handed","0","2","no","right","s","476.674437632","856.602770287","1","red","0"
"100","100","21","904.99927518","1","1","4","217","2","right","out","Female","Right-handed","0","2","no","right","s","996.292515403","632.376603462","1","red","1"
"100","100","21","895.572249926","1","1","4","218","1","left","in","Female","Right-handed","0","2","no","left","s","906.827961487","808.900336335","1","green","3"
"100","100","21","883.72885181","1","1","4","219","1","left","in","Female","Right-handed","0","2","no","left","d","712.583029534","936.440692916","1","red","0"
"100","100","21","906.630285485","1","1","4","220","0","right","in","Female","Right-handed","0","2","no","right","d","782.999579543","1305.07819553","1","red","1"
"100","100","21","904.133420376","1","1","4","221","3","left","in","Female","Right-handed","0","2","no","left","s","948.624398137","824.686331089","1","green","1"
"100","100","21","881.970620715","1","1","4","222","3","left","in","Female","Right-handed","0","2","no","left","d","569.211136437","840.125310413","1","red","3"
"100","90","21","877.146163732","1","0","4","223","3","right","in","Female","Right-handed","0","2","no","right","s","962.687182269","704.764919497","1","red","1"
"100","90","21","875.926969551","1","1","4","224","2","left","out","Female","Right-handed","0","2","no","left","s","1119.24694445","608.223111034","1","green","3"
"100","91","21","855.971960705","1","1","4","225","3","left","out","Female","Right-handed","0","2","no","left","d","568.085100244","704.848626548","1","red","3"
"100","92","21","838.977465485","1","1","4","226","2","right","in","Female","Right-handed","0","2","no","right","s","565.613016221","704.474029488","1","green","0"
"100","85","21","834.347817402","1","0","4","227","3","right","out","Female","Right-handed","0","2","no","right","s","596.271925395","952.052859236","1","red","0"
"100","86","21","826.473866777","1","1","4","228","0","right","out","Female","Right-handed","0","2","no","right","d","455.694115844","976.78300022","1","red","0"
"100","87","21","823.869576","1","1","4","229","0","left","in","Female","Right-handed","0","2","no","left","s","777.263562064","792.346866612","1","red","1"
"100","88","21","809.816821925","1","1","4","230","3","right","in","Female","Right-handed","0","2","no","right","s","746.010364921","423.935148527","1","green","1"
"100","83","21","816.669920159","1","0","4","231","3","left","out","Female","Right-handed","0","2","no","left","s","697.714925864","1168.63025442","1","red","3"
"100","84","21","863.271566849","1","1","4","232","0","left","out","Female","Right-handed","0","2","no","left","d","1076.10702571","2328.09538883","1","red","3"
"100","80","21","871.159923118","1","0","4","233","3","right","in","Female","Right-handed","0","2","no","right","d","1401.44938273","640.628001707","1","green","1"
"100","76","21","861.278674112","1","0","4","234","0","right","out","Female","Right-handed","0","2","no","right","d","503.278205346","824.029182652","1","green","0"
"100","72","21","852.709481408","1","0","4","235","1","right","out","Female","Right-handed","0","2","no","right","s","528.736373151","816.776496089","1","red","0"
"95","73","21","867.624498129","0","1","4","236","1","left","in","Female","Right-handed","0","2","no","right","d","772.344089208","1619.16564278","1","red","3"
"95","75","21","865.219063912","1","1","4","237","2","left","out","Female","Right-handed","0","2","no","left","s","595.884178951","1023.90397487","1","green","0"
"96","76","21","857.688222996","1","1","4","238","3","right","out","Female","Right-handed","0","2","no","right","s","473.490041906","880.40604012","1","green","0"
"92","76","21","864.295967351","0","1","4","239","2","left","out","Female","Right-handed","0","2","no","right","s","752.022198725","1306.95695373","1","green","1"
"92","74","21","857.989566945","1","0","4","240","2","left","out","Female","Right-handed","0","2","no","left","s","683.605317096","704.440995672","1","green","3"
"92","71","21","858.709260222","1","0","4","241","1","left","out","Female","Right-handed","0","2","no","left","s","916.217903879","840.064053533","1","green","3"
"93","68","21","864.140839382","1","0","4","242","1","right","out","Female","Right-handed","0","2","no","right","s","1319.69614021","712.753971515","1","green","2"
"93","66","21","883.758769329","1","0","4","243","3","right","in","Female","Right-handed","0","2","no","right","s","1945.13981162","960.217663985","1","red","3"
"93","67","21","884.115785253","1","1","4","244","2","right","out","Female","Right-handed","0","2","no","right","s","765.743419615","1023.90910633","1","green","0"
"93","68","21","877.809758574","1","1","4","245","2","left","in","Female","Right-handed","0","2","no","left","d","524.31401112","840.331851941","1","green","0"
"93","69","21","881.116276885","1","1","4","246","3","left","in","Female","Right-handed","0","2","no","left","d","725.894374533","1247.95535111","1","green","0"
"94","67","21","875.570340342","1","0","4","247","1","right","out","Female","Right-handed","0","2","no","right","s","648.531743092","736.577125783","1","red","1"
"94","68","21","881.784338297","1","1","4","248","2","left","out","Female","Right-handed","0","2","no","left","d","1146.0033733","1040.11716421","1","red","1"
"94","69","21","877.808065903","1","1","4","249","2","left","in","Female","Right-handed","0","2","no","left","s","709.729292688","767.547771549","1","red","3"
"94","70","21","874.685534064","1","1","4","250","1","left","out","Female","Right-handed","0","2","no","left","s","524.352176402","1000.19659931","1","green","1"
"94","71","21","878.281819739","1","1","4","251","1","left","in","Female","Right-handed","0","2","no","left","d","1286.80728809","735.881491342","1","green","2"
"94","69","21","896.757614593","1","0","4","252","3","right","in","Female","Right-handed","0","2","no","right","s","1253.37578339","1944.29985468","1","green","2"
"95","67","21","896.872495403","1","0","4","253","2","left","in","Female","Right-handed","0","2","no","left","s","690.874680928","1111.83101311","1","red","2"
"95","65","21","889.45784546","1","0","4","254","3","right","in","Female","Right-handed","0","2","no","right","d","577.414106468","608.329588966","1","red","0"
"95","64","21","890.579176414","1","0","4","255","2","left","out","Female","Right-handed","0","2","no","left","d","585.049728721","1288.05776235","1","red","0"
"95","65","21","885.917641707","1","1","4","256","3","left","out","Female","Right-handed","0","2","no","left","d","699.652054496","680.614313522","1","red","0"
"95","65","21","884.071576437","1","1","4","257","1","right","out","Female","Right-handed","0","2","no","right","s","833.201358426","776.180181187","1","red","1"
"95","66","21","876.844064673","1","1","4","258","2","left","in","Female","Right-handed","0","2","no","left","s","541.810387822","575.856706364","1","green","3"
"95","65","21","871.999774076","1","0","4","259","0","left","in","Female","Right-handed","0","2","no","left","s","603.577209487","704.436184922","1","green","0"
"95","63","21","875.085429195","1","0","4","260","1","left","in","Female","Right-handed","0","2","no","left","d","626.144437316","1407.90669198","1","red","0"
"95","64","21","870.325177161","1","1","4","261","0","right","out","Female","Right-handed","0","2","no","right","s","765.707178634","527.479484557","1","green","3"
"95","65","21","868.107017626","1","1","4","262","0","right","in","Female","Right-handed","0","2","no","right","s","867.257619186","656.013100637","1","green","3"
"96","64","21","889.503771147","1","0","4","263","1","right","in","Female","Right-handed","0","2","no","right","None","875.794775973","3000.09461142","1","green","0"
"96","64","21","880.458669096","1","1","4","264","2","right","out","Female","Right-handed","0","2","no","right","s","552.265750957","304.141382167","1","green","0"
"96","65","21","875.371556419","1","1","4","265","1","left","in","Female","Right-handed","0","2","no","left","s","599.902117276","631.955502486","1","green","0"
"96","66","21","876.562813711","1","1","4","266","2","right","out","Female","Right-handed","0","2","no","right","d","1125.49386357","751.522522169","1","red","2"
"96","66","21","872.379868121","1","1","4","267","0","right","in","Female","Right-handed","0","2","no","right","d","557.181054497","744.186449272","1","red","0"
"96","65","21","872.602980443","1","0","4","268","1","right","in","Female","Right-handed","0","2","no","right","d","1025.71442042","743.587671266","1","green","1"
"96","66","21","872.195238306","1","1","4","269","2","right","in","Female","Right-handed","0","2","no","right","s","635.302501556","1064.23633996","1","red","1"
"96","66","21","874.511599869","1","1","4","270","0","right","in","Female","Right-handed","0","2","no","right","d","1384.70252086","623.753173895","1","green","2"
"96","67","21","883.750213567","1","1","4","271","3","left","out","Female","Right-handed","0","2","no","left","d","1141.44406525","1679.25832348","1","green","2"
"96","67","21","885.90472455","1","1","4","272","0","left","out","Female","Right-handed","0","2","no","left","s","733.90074525","1287.83197782","1","red","1"
"96","68","21","887.128469794","1","1","4","273","1","right","out","Female","Right-handed","0","2","no","right","d","1327.40552729","591.253351089","1","red","3"
"96","68","21","884.201324847","1","1","4","274","1","right","in","Female","Right-handed","0","2","no","right","d","513.168145007","903.977111095","1","red","0"
"96","67","21","884.04638372","1","0","4","275","0","left","out","Female","Right-handed","0","2","no","left","d","885.61319582","863.576754073","1","green","1"
"96","68","21","886.968798968","1","1","4","276","0","left","in","Female","Right-handed","0","2","no","left","d","1352.19628373","784.120804983","1","red","3"
"96","68","21","885.395546974","1","1","4","277","0","left","out","Female","Right-handed","0","2","no","left","s","516.86023521","1055.70110747","1","red","0"
"100","0","21","1227.12897332","1","0","5","278","1","right","in","Female","Right-handed","0","2","no","right","d","773.557360335","1680.7005863","1","red","0"
"100","50","21","992.418418501","1","1","5","279","1","left","out","Female","Right-handed","0","2","no","left","s","779.238214545","736.177512823","1","green","3"
"100","33","21","903.755976956","1","0","5","280","1","right","out","Female","Right-handed","0","2","no","right","s","548.952106419","903.91008131","1","green","0"
"100","25","21","1149.38893855","1","0","5","281","0","left","out","Female","Right-handed","0","2","no","left","None","772.439662775","3000.13598386","1","red","3"
"100","20","21","1039.27752799","1","0","5","282","3","right","in","Female","Right-handed","0","2","no","right","d","629.806380148","567.857391412","1","green","0"
"100","16","21","974.324974281","1","0","5","283","0","right","out","Female","Right-handed","0","2","no","right","d","770.537171542","528.587239903","1","red","3"
"100","28","21","1067.78154192","1","1","5","284","3","right","in","Female","Right-handed","0","2","no","right","s","1657.08140783","1599.96048771","1","green","2"
"100","37","21","1023.56445619","1","1","5","285","0","right","in","Female","Right-handed","0","2","no","right","s","459.603651936","968.48606021","1","green","0"
"100","44","21","991.633357569","1","1","5","286","3","right","in","Female","Right-handed","0","2","no","right","d","784.178213271","688.190923909","1","green","2"
"100","50","21","956.344224551","1","1","5","287","3","right","out","Female","Right-handed","0","2","no","right","s","452.775594233","824.708460539","1","green","0"
"100","54","21","956.074544115","1","1","5","288","0","left","in","Female","Right-handed","0","2","no","left","d","1186.38897735","720.36650217","1","green","1"
"100","58","21","958.024282741","1","1","5","289","2","left","out","Female","Right-handed","0","2","no","left","d","1046.98883938","911.953975876","1","green","1"
"100","61","21","944.403273471","1","1","5","290","0","left","in","Female","Right-handed","0","2","no","left","d","1137.47231013","424.430014333","1","green","1"
"100","64","21","924.554704389","1","1","5","291","2","left","in","Female","Right-handed","0","2","no","left","d","901.070455999","431.97615664","1","red","2"
"100","66","21","943.268739929","1","1","5","292","3","right","out","Female","Right-handed","0","2","no","right","s","626.677147688","1783.85332729","1","green","3"
"100","62","21","958.049920029","1","0","5","293","3","right","out","Female","Right-handed","0","2","no","right","d","1247.28954332","1112.24569975","1","green","1"
"100","64","21","950.591334549","1","1","5","294","1","left","in","Female","Right-handed","0","2","no","left","d","934.768476247","727.739457481","1","green","2"
"100","66","21","944.527857503","1","1","5","295","2","left","in","Female","Right-handed","0","2","no","left","s","1122.44865888","560.44883655","1","green","3"
"100","68","21","940.289124044","1","1","5","296","2","right","in","Female","Right-handed","0","2","no","right","s","1103.93913824","624.044705335","1","red","3"
"100","70","21","936.554346881","1","1","5","297","3","right","out","Female","Right-handed","0","2","no","right","d","1002.59716352","728.589998067","1","green","3"
"95","71","21","947.966318092","0","1","5","298","1","left","in","Female","Right-handed","0","2","no","right","s","788.186850812","1564.2246338","1","green","3"
"95","68","21","943.317535997","1","0","5","299","0","left","out","Female","Right-handed","0","2","no","left","d","611.734637754","1079.65158625","1","green","0"
"95","69","21","925.275060901","1","1","5","300","3","right","in","Female","Right-handed","0","2","no","right","s","480.28763153","576.393586048","1","red","0"
"95","70","21","907.906217584","1","1","5","301","0","right","out","Female","Right-handed","0","2","no","right","s","440.924151473","575.921491127","1","red","0"
"96","72","21","901.070930659","1","1","5","302","2","right","in","Female","Right-handed","0","2","no","right","s","770.567639625","703.480449272","1","red","1"
"96","73","21","896.437284437","1","1","5","303","2","left","out","Female","Right-handed","0","2","no","left","d","881.095580942","680.096676832","1","red","0"
"96","74","21","890.20898836","1","1","5","304","0","right","in","Female","Right-handed","0","2","no","right","s","688.729407186","767.817173546","1","red","2"
"96","75","21","886.643475187","1","1","5","305","0","right","in","Female","Right-handed","0","2","no","right","d","556.376055676","1024.37318334","1","green","0"
"96","75","21","896.859590014","1","1","5","306","1","left","in","Female","Right-handed","0","2","no","left","s","1501.91002807","863.911582266","1","red","2"
"96","76","21","897.629294517","1","1","5","307","3","left","in","Female","Right-handed","0","2","no","left","s","952.40500613","887.496444051","1","green","1"
"96","77","21","912.204646984","1","1","5","308","2","left","out","Female","Right-handed","0","2","no","left","d","1995.04813476","703.882307251","1","red","0"
"96","78","21","914.357281207","1","1","5","309","3","left","out","Female","Right-handed","0","2","no","left","d","1034.60308266","927.57480155","1","red","3"
"96","78","21","914.862258852","1","1","5","310","3","right","out","Female","Right-handed","0","2","no","right","d","1086.02198128","776.021105722","1","red","0"
"97","79","21","912.062826168","1","1","5","311","2","right","out","Female","Right-handed","0","2","no","right","s","799.732971311","839.63012389","1","green","1"
"97","80","21","916.925276546","1","1","5","312","3","right","in","Female","Right-handed","0","2","no","right","d","1044.21464027","1120.28253855","1","green","1"
"97","80","21","913.117602737","1","1","5","313","0","left","out","Female","Right-handed","0","2","no","left","d","567.855787831","991.84225102","1","green","0"
"97","81","21","914.504713491","1","1","5","314","0","left","in","Female","Right-handed","0","2","no","left","s","889.401501015","1039.47990021","1","green","1"
"97","78","21","909.150562006","1","0","5","315","1","right","in","Female","Right-handed","0","2","no","right","s","677.96872179","744.125192388","1","red","0"
"97","79","21","903.086304122","1","1","5","316","0","right","out","Female","Right-handed","0","2","no","right","s","561.668842729","783.620166276","1","red","0"
"97","80","21","897.626596488","1","1","5","317","2","left","out","Female","Right-handed","0","2","no","left","s","553.115650105","816.280347412","1","green","0"
"97","80","21","894.85109896","1","1","5","318","2","left","out","Female","Right-handed","0","2","no","left","d","719.843413299","847.818982387","1","red","2"
"97","78","21","917.672025583","1","0","5","319","3","left","in","Female","Right-handed","0","2","no","left","s","2251.37803931","1455.28199493","1","red","0"
"97","76","21","918.86037049","1","0","5","320","0","left","out","Female","Right-handed","0","2","no","left","d","761.813678371","1175.72803484","1","red","1"
"97","77","21","917.076710206","1","1","5","321","1","left","out","Female","Right-handed","0","2","no","left","d","769.359179249","911.399456771","1","red","1"
"97","77","21","911.585786023","1","1","5","322","3","right","out","Female","Right-handed","0","2","no","right","d","571.911891439","768.058352474","1","green","0"
"97","76","21","907.674053873","1","0","5","323","2","left","in","Female","Right-handed","0","2","no","left","d","879.673843985","583.618370267","1","red","0"
"97","74","21","904.99220662","1","0","5","324","2","left","out","Female","Right-handed","0","2","no","left","d","579.174520219","984.079945683","1","green","1"
"97","72","21","904.175210425","1","0","5","325","3","right","out","Female","Right-handed","0","2","no","right","d","723.664752309","1007.88802627","1","green","1"
"97","73","21","902.116254122","1","1","5","326","2","right","in","Female","Right-handed","0","2","no","right","s","543.300758142","1063.27194496","1","red","0"
"98","74","21","911.521675475","1","1","5","327","1","right","in","Female","Right-handed","0","2","no","right","d","664.980979898","2079.79366373","1","red","3"
"98","74","21","912.381173613","1","1","5","328","0","left","in","Female","Right-handed","0","2","no","left","d","1319.34720048","591.364960485","1","green","2"
"98","75","21","906.807793346","1","1","5","329","1","right","in","Female","Right-handed","0","2","no","right","s","709.029168218","536.101631263","1","green","0"
"98","75","21","911.417196032","1","1","5","330","1","right","out","Female","Right-handed","0","2","no","right","d","1302.59681073","999.615460725","1","red","3"
"98","75","21","910.486076508","1","1","5","331","2","right","in","Female","Right-handed","0","2","no","right","d","891.176667737","831.096815698","1","green","3"
"98","76","21","913.872607902","1","1","5","332","2","left","in","Female","Right-handed","0","2","no","left","d","1409.73702196","783.753584409","1","red","0"
"98","76","21","914.129961103","1","1","5","333","2","right","out","Female","Right-handed","0","2","no","right","d","1057.2302845","799.338489815","1","red","3"
"98","77","21","916.249654829","1","1","5","334","1","left","out","Female","Right-handed","0","2","no","left","d","685.995297652","1383.90970928","1","green","0"
"98","75","21","914.562458481","1","0","5","335","1","left","out","Female","Right-handed","0","2","no","left","d","621.414187288","1015.37034596","1","green","1"
"98","76","21","914.772637735","1","1","5","336","1","left","in","Female","Right-handed","0","2","no","left","d","695.015133013","1158.91093602","1","red","1"
"98","76","21","914.853396138","1","1","5","337","3","left","in","Female","Right-handed","0","2","no","left","d","1239.6083793","599.627904529","1","red","3"
"98","77","21","911.261193715","1","1","5","338","1","right","out","Female","Right-handed","0","2","no","right","d","648.231231582","743.226865023","1","red","0"
"98","75","21","913.987885932","1","0","5","339","0","left","in","Female","Right-handed","0","2","no","left","s","1064.8145921","1095.81763024","1","red","3"
"98","76","21","914.167386638","1","1","5","340","0","left","out","Female","Right-handed","0","2","no","left","s","947.371037426","903.221823358","1","red","3"
"98","76","21","920.537436133","1","1","5","341","1","right","out","Female","Right-handed","0","2","no","right","s","1859.83270778","783.868400973","1","red","1"
"100","0","21","603.67422628","1","0","6","342","1","right","in","Female","Right-handed","0","2","no","right","d","519.185110283","688.163342278","1","red","0"
"100","50","21","702.226286773","1","1","6","343","0","right","in","Female","Right-handed","0","2","no","right","d","545.772842165","1055.78385237","1","green","0"
"100","66","21","704.929072977","1","1","6","344","2","right","in","Female","Right-handed","0","2","no","right","d","709.334490479","711.334800293","1","green","1"
"100","50","21","775.319698386","1","0","6","345","0","left","in","Female","Right-handed","0","2","no","left","s","996.968265408","976.014883818","1","red","3"
"100","60","21","804.365980045","1","1","6","346","1","right","out","Female","Right-handed","0","2","no","right","d","1129.53393134","711.568282022","1","red","2"
"100","66","21","763.331710508","1","1","6","347","3","left","out","Female","Right-handed","0","2","no","left","s","644.092703791","472.228021848","1","red","1"
"100","71","21","729.249047896","1","1","6","348","2","right","out","Female","Right-handed","0","2","no","right","s","577.761442608","471.744701841","1","green","3"
"100","75","21","723.885726089","1","1","6","349","0","left","in","Female","Right-handed","0","2","no","left","s","765.303396358","607.381550519","1","green","3"
"100","77","21","722.182702803","1","1","6","350","2","right","out","Female","Right-handed","0","2","no","right","d","584.977567476","832.139465565","1","red","2"
"100","80","21","693.537254608","1","1","6","351","2","left","in","Female","Right-handed","0","2","no","left","s","511.658210973","359.798230733","1","red","1"
"100","81","21","686.875387904","1","1","6","352","1","left","out","Female","Right-handed","0","2","no","left","d","576.260167923","664.253273797","1","green","0"
"100","75","21","685.253439927","1","0","6","353","2","left","in","Female","Right-handed","0","2","no","left","d","478.920416404","855.903607964","1","red","0"
"100","76","21","678.885527368","1","1","6","354","0","right","in","Female","Right-handed","0","2","no","right","s","653.461478883","551.479674421","1","green","1"
"100","78","21","669.615770903","1","1","6","355","3","right","out","Female","Right-handed","0","2","no","right","d","522.097858993","576.120014739","1","red","0"
"100","80","21","669.68954948","1","1","6","356","3","left","out","Female","Right-handed","0","2","no","left","s","685.686126791","655.758772322","1","red","3"
"100","81","21","662.383585866","1","1","6","357","0","right","out","Female","Right-handed","0","2","no","right","s","506.331748671","599.256514637","1","green","1"
"100","82","21","667.831471847","1","1","6","358","2","right","out","Female","Right-handed","0","2","no","right","d","782.090989244","727.904305844","1","green","3"
"100","83","21","679.11912354","1","1","6","359","1","left","in","Female","Right-handed","0","2","no","left","d","1030.52741534","711.490989306","1","red","3"
"100","84","21","686.433059015","1","1","6","360","0","left","in","Female","Right-handed","0","2","no","left","d","908.054381998","728.113413108","1","green","2"
"100","85","21","688.87215817","1","1","6","361","0","right","in","Female","Right-handed","0","2","no","right","s","822.741825974","647.688258276","1","red","2"
"100","85","21","690.941703073","1","1","6","362","1","left","in","Female","Right-handed","0","2","no","left","s","777.298199464","687.367002811","1","red","3"
"100","86","21","712.825520486","1","1","6","363","3","left","out","Female","Right-handed","0","2","no","left","d","1592.92075701","751.85061531","1","red","3"
"100","86","21","715.979181919","1","1","6","364","0","left","in","Female","Right-handed","0","2","no","left","d","731.494728862","839.224738029","1","green","1"
"100","87","21","733.542290929","1","1","6","365","2","left","out","Female","Right-handed","0","2","no","left","d","539.000909874","1735.98668641","1","red","1"
"100","88","21","735.861953287","1","1","6","366","3","right","in","Female","Right-handed","0","2","no","right","d","807.574814378","775.492885383","1","green","1"
"100","88","21","732.643782645","1","1","6","367","0","right","out","Female","Right-handed","0","2","no","right","d","369.149366408","935.229666804","1","green","0"
"100","88","21","731.393524938","1","1","6","368","1","right","in","Female","Right-handed","0","2","no","right","s","661.804922809","735.968726276","1","green","0"
"100","85","21","732.804449797","1","0","6","369","3","left","in","Female","Right-handed","0","2","no","left","d","758.377520073","783.42132195","1","green","3"
"100","86","21","728.016744684","1","1","6","370","2","left","out","Female","Right-handed","0","2","no","left","d","547.986428555","639.935574436","1","green","0"
"100","83","21","730.571866671","1","0","6","371","1","left","out","Female","Right-handed","0","2","no","left","d","905.663439295","703.677369304","1","red","3"
"100","83","21","726.44889364","1","1","6","372","2","right","in","Female","Right-handed","0","2","no","right","d","590.291842538","615.227562903","1","red","0"
"100","84","21","722.399650363","1","1","6","373","2","right","out","Female","Right-handed","0","2","no","right","s","537.88353303","655.862684518","1","green","3"
"100","81","21","731.472424476","1","0","6","374","2","left","in","Female","Right-handed","0","2","no","left","d","1228.32877435","815.273617816","1","green","0"
"100","82","21","728.573028382","1","1","6","375","3","right","out","Female","Right-handed","0","2","no","right","d","609.829901507","655.956013067","1","red","0"
"100","82","21","729.687362192","1","1","6","376","1","right","out","Female","Right-handed","0","2","no","right","s","959.650636927","575.49878657","1","green","3"
"100","83","21","726.825000741","1","1","6","377","3","right","out","Female","Right-handed","0","2","no","right","d","622.141893389","631.142806469","1","green","2"
"100","83","21","729.985778643","1","1","6","378","3","left","in","Female","Right-handed","0","2","no","left","s","1015.7696382","671.777928088","1","green","1"
"100","84","21","730.50851669","1","1","6","379","3","left","out","Female","Right-handed","0","2","no","left","s","932.431413941","567.268234907","1","red","1"
"100","84","21","758.941463313","1","1","6","380","1","right","in","Female","Right-handed","0","2","no","right","s","711.99098658","2966.79588341","1","red","1"
"100","85","21","766.179169325","1","1","6","381","3","left","out","Female","Right-handed","0","2","no","left","d","1193.4046543","903.494753238","1","green","2"
"100","85","21","763.221964786","1","1","6","382","1","left","out","Female","Right-handed","0","2","no","left","s","499.001448679","790.866117793","1","green","0"
"100","83","21","761.685265713","1","0","6","383","0","right","out","Female","Right-handed","0","2","no","right","s","789.669203216","607.692004247","1","green","3"
"100","83","21","756.870655217","1","1","6","384","1","right","in","Female","Right-handed","0","2","no","right","s","606.152564276","503.161464483","1","red","1"
"100","84","21","749.926661576","1","1","6","385","1","left","out","Female","Right-handed","0","2","no","left","s","470.819754992","431.85011499","1","red","0"
"100","84","21","753.903462076","1","1","6","386","1","left","out","Female","Right-handed","0","2","no","left","s","1010.36876964","847.396598543","1","green","1"
"100","84","21","752.601702356","1","1","6","387","2","left","out","Female","Right-handed","0","2","no","left","d","500.947236654","887.097793246","1","green","1"
"100","85","21","746.738712458","1","1","6","388","2","left","in","Female","Right-handed","0","2","no","left","s","546.593876814","407.488477453","1","green","3"
"100","85","21","742.331504286","1","1","6","389","2","right","in","Female","Right-handed","0","2","no","right","s","591.190811337","479.194629148","1","red","0"
"100","83","21","746.055890324","1","0","6","390","1","right","out","Female","Right-handed","0","2","no","right","d","1441.83113819","407.821702061","1","red","2"
"100","84","21","760.394244162","1","1","6","391","2","right","out","Female","Right-handed","0","2","no","right","d","1254.48321802","1671.46394648","1","red","2"
"100","84","21","756.552186352","1","1","6","392","3","right","in","Female","Right-handed","0","2","no","right","s","457.909626537","670.988965103","1","green","0"
"100","84","21","761.677534151","1","1","6","393","0","left","out","Female","Right-handed","0","2","no","left","s","590.673174651","1455.46736916","1","green","0"
"100","84","21","756.035005582","1","1","6","394","3","right","in","Female","Right-handed","0","2","no","right","s","582.138262875","343.10877715","1","red","0"
"100","85","21","754.215297855","1","1","6","395","0","left","out","Female","Right-handed","0","2","no","left","d","603.751037918","711.790538666","1","green","0"
"100","83","21","750.400713601","1","0","6","396","1","left","in","Female","Right-handed","0","2","no","left","s","593.262961684","495.563366076","1","red","1"
"100","83","21","746.9739839","1","1","6","397","1","right","out","Female","Right-handed","0","2","no","right","d","510.087340768","606.920359958","1","red","0"
"100","82","21","749.21345505","1","0","6","398","3","right","out","Female","Right-handed","0","2","no","right","s","461.588246631","1287.65943226","1","red","0"
"100","82","21","752.773397323","1","1","6","399","0","left","in","Female","Right-handed","0","2","no","left","s","560.170775207","1351.20943856","1","green","0"
"100","83","21","750.977890919","1","1","6","400","0","left","in","Female","Right-handed","0","2","no","left","d","494.831811371","798.845227589","1","red","0"
"100","83","21","749.384020891","1","1","6","401","2","left","in","Female","Right-handed","0","2","no","left","d","575.377876387","735.313502137","1","red","0"
"100","83","21","751.401874869","1","1","6","402","0","right","in","Female","Right-handed","0","2","no","right","d","1081.95016256","662.996064486","1","green","3"
"100","83","21","749.242984533","1","1","6","403","3","right","in","Female","Right-handed","0","2","no","right","d","619.452042756","615.649305313","1","red","0"
"100","84","21","746.193425409","1","1","6","404","3","right","in","Female","Right-handed","0","2","no","right","d","507.108203707","607.133315822","1","green","3"
"100","84","21","745.953159592","1","1","6","405","0","left","out","Female","Right-handed","0","2","no","left","s","654.87455649","806.758269758","1","red","1"
"100","100","21","1397.11650065","1","1","7","406","0","left","in","Female","Right-handed","0","2","no","left","d","578.149830482","2216.08317081","1","green","0"
"100","100","21","1003.6997874","1","1","7","407","0","left","in","Female","Right-handed","0","2","no","left","s","428.779573685","791.786574609","1","red","0"
"100","100","21","884.576853387","1","1","7","408","2","right","out","Female","Right-handed","0","2","no","right","s","485.367783436","807.294187299","1","green","0"
"100","100","21","864.517456126","1","1","7","409","2","left","out","Female","Right-handed","0","2","no","left","d","832.918807049","775.75972164","1","red","2"
"100","100","21","794.714589433","1","1","7","410","1","right","out","Female","Right-handed","0","2","no","right","d","383.458781656","647.547463661","1","green","3"
"100","100","21","779.039984922","1","1","7","411","1","left","out","Female","Right-handed","0","2","no","left","s","954.149384048","447.184540688","1","red","3"
"100","85","21","738.923649229","1","0","7","412","0","left","in","Female","Right-handed","0","2","no","left","s","596.753962534","399.697307614","1","red","0"
"100","87","21","715.413634692","1","1","7","413","2","right","out","Female","Right-handed","0","2","no","right","s","542.337004579","559.350061274","1","green","0"
"100","88","21","710.088922971","1","1","7","414","3","right","out","Female","Right-handed","0","2","no","right","s","590.962461079","744.019997328","1","green","1"
"100","80","21","701.546303308","1","0","7","415","0","right","in","Female","Right-handed","0","2","no","right","s","401.713973977","847.611478704","1","red","0"
"100","81","21","686.745147783","1","1","7","416","1","right","in","Female","Right-handed","0","2","no","right","d","422.171527607","655.295657463","1","green","0"
"100","83","21","680.798819143","1","1","7","417","0","right","in","Female","Right-handed","0","2","no","right","d","646.843811308","583.934596892","1","red","3"
"100","84","21","667.70063251","1","1","7","418","3","right","out","Female","Right-handed","0","2","no","right","s","629.511641535","391.533144302","1","green","1"
"100","85","21","659.72795026","1","1","7","419","3","right","out","Female","Right-handed","0","2","no","right","s","656.069546767","456.096615253","1","red","0"
"100","80","21","664.323692484","1","0","7","420","2","left","out","Female","Right-handed","0","2","no","left","s","529.671903652","927.656263582","1","green","0"
"100","75","21","700.039079325","1","0","7","421","0","right","out","Female","Right-handed","0","2","no","right","s","1184.31682701","1287.22293688","1","green","3"
"100","76","21","703.962816563","1","1","7","422","1","left","in","Female","Right-handed","0","2","no","left","s","637.780358477","895.704866267","1","green","0"
"100","77","21","711.289454519","1","1","7","423","3","left","out","Female","Right-handed","0","2","no","left","d","600.380305816","1071.30429372","1","red","0"
"100","78","21","723.408845734","1","1","7","424","0","left","in","Female","Right-handed","0","2","no","left","d","868.145683617","1014.97009157","1","green","3"
"100","75","21","732.714943504","1","0","7","425","0","right","out","Female","Right-handed","0","2","no","right","d","1227.51255044","591.549051849","1","red","2"
"100","76","21","727.211886212","1","1","7","426","2","left","in","Female","Right-handed","0","2","no","left","s","723.136852689","511.164628031","1","green","0"
"100","77","21","740.717607027","1","1","7","427","2","right","in","Female","Right-handed","0","2","no","right","s","1448.76407024","599.911418056","1","red","2"
"100","73","21","728.437901676","1","0","7","428","2","right","out","Female","Right-handed","0","2","no","right","s","565.287168094","351.281599815","1","red","3"
"100","75","21","733.666708948","1","1","7","429","2","right","in","Female","Right-handed","0","2","no","right","d","996.976283324","710.882269086","1","red","1"
"100","76","21","726.093885954","1","1","7","430","1","left","out","Female","Right-handed","0","2","no","left","s","497.202548929","591.489719267","1","red","0"
"100","76","21","715.213128186","1","1","7","431","0","right","in","Female","Right-handed","0","2","no","right","s","479.151011685","407.237356307","1","red","0"
"100","77","21","724.306862699","1","1","7","432","0","left","out","Female","Right-handed","0","2","no","left","d","769.73441774","1151.7535023","1","red","1"
"100","78","21","721.806033175","1","1","7","433","1","right","in","Female","Right-handed","0","2","no","right","d","565.308335394","743.258936687","1","green","1"
"100","79","21","722.345777394","1","1","7","434","3","left","in","Female","Right-handed","0","2","no","left","d","803.93917031","670.978060734","1","green","3"
"100","80","21","713.854526771","1","1","7","435","1","right","out","Female","Right-handed","0","2","no","right","s","535.710677654","399.505839767","1","green","1"
"100","77","21","723.414293288","1","0","7","436","3","right","in","Female","Right-handed","0","2","no","right","s","1173.21008833","847.204489266","1","green","3"
"100","78","21","728.017087864","1","1","7","437","1","right","out","Female","Right-handed","0","2","no","right","d","1150.68359153","590.72384788","1","green","2"
"100","78","21","735.829749057","1","1","7","438","3","left","in","Female","Right-handed","0","2","no","left","d","1188.41815167","783.251662837","1","red","2"
"100","79","21","739.72764345","1","1","7","439","2","left","in","Female","Right-handed","0","2","no","left","s","649.857265049","1086.85905176","1","green","0"
"100","77","21","779.043214233","1","0","7","440","0","left","out","Female","Right-handed","0","2","no","left","None","1231.44710244","3000.0981393","1","red","2"
"100","77","21","775.705293354","1","1","7","441","2","right","in","Female","Right-handed","0","2","no","right","s","662.929355418","654.826769707","1","red","3"
"100","75","21","797.196579264","1","0","7","442","2","left","out","Female","Right-handed","0","2","no","left","s","1390.52545255","1751.24029151","1","red","1"
"100","73","21","817.047155629","1","0","7","443","0","right","in","Female","Right-handed","0","2","no","right","d","575.985955176","2527.0510071","1","red","1"
"100","74","21","811.162359166","1","1","7","444","2","left","in","Female","Right-handed","0","2","no","left","s","671.542842774","503.537344408","1","red","1"
"100","75","21","809.798856132","1","1","7","445","1","left","in","Female","Right-handed","0","2","no","left","s","698.170022806","815.07445277","1","green","0"
"100","75","21","811.831021713","1","1","7","446","1","left","in","Female","Right-handed","0","2","no","left","s","931.574779741","854.660510188","1","green","3"
"100","76","21","806.590901479","1","1","7","447","3","left","out","Female","Right-handed","0","2","no","left","d","856.252226975","327.239716782","1","green","0"
"100","74","21","804.491369817","1","0","7","448","1","right","out","Female","Right-handed","0","2","no","right","s","929.871774271","502.750305724","1","red","3"
"100","72","21","804.501762003","1","0","7","449","3","left","in","Female","Right-handed","0","2","no","left","s","602.456625475","1007.44062653","1","red","0"
"100","73","21","796.658492312","1","1","7","450","1","right","in","Female","Right-handed","0","2","no","right","s","440.01588189","463.093369919","1","green","0"
"100","71","21","799.893873463","1","0","7","451","3","right","out","Female","Right-handed","0","2","no","right","d","1100.36026103","790.611789482","1","red","2"
"100","72","21","812.227942283","1","1","7","452","2","left","out","Female","Right-handed","0","2","no","left","d","1648.11866003","1111.07155606","1","green","3"
"100","70","21","816.278643606","1","0","7","453","0","right","in","Female","Right-handed","0","2","no","right","d","750.662039365","1262.66117215","1","green","3"
"100","71","21","812.920987661","1","1","7","454","1","left","out","Female","Right-handed","0","2","no","left","s","448.281712383","855.225292227","1","green","1"
"100","72","21","811.890906945","1","1","7","455","3","right","out","Female","Right-handed","0","2","no","right","s","595.896366187","926.937537544","1","red","1"
"100","70","21","806.491383189","1","0","7","456","3","left","out","Female","Right-handed","0","2","no","left","s","569.589902814","503.440487977","1","red","3"
"100","71","21","814.6107304","1","1","7","457","0","left","in","Female","Right-handed","0","2","no","left","s","594.1757213","1863.21915499","1","red","0"
"100","69","21","814.980274019","1","0","7","458","2","left","out","Female","Right-handed","0","2","no","left","d","709.706201087","958.686883361","1","green","0"
"98","68","21","822.530928044","0","0","7","459","1","right","out","Female","Right-handed","0","2","no","left","s","1323.10215114","1122.32903156","1","red","2"
"98","67","21","836.660821168","1","0","7","460","3","left","out","Female","Right-handed","0","2","no","left","s","816.686053986","2382.66404577","1","green","3"
"98","67","21","842.811415534","1","1","7","461","0","right","out","Female","Right-handed","0","2","no","right","s","795.12170716","1567.06650413","1","red","1"
"98","68","21","840.976230794","1","1","7","462","1","right","in","Female","Right-handed","0","2","no","right","s","589.722891185","886.688879502","1","green","1"
"98","67","21","842.449068508","1","0","7","463","3","left","in","Female","Right-handed","0","2","no","left","s","757.39612709","1095.40550934","1","red","0"
"98","67","21","855.336306398","1","1","7","464","2","left","in","Female","Right-handed","0","2","no","left","d","1326.86351614","1878.72869198","1","red","3"
"98","68","21","854.47923846","1","1","7","465","0","left","out","Female","Right-handed","0","2","no","left","s","672.413909226","935.410550999","1","green","1"
"98","68","21","850.266797092","1","1","7","466","2","right","in","Female","Right-handed","0","2","no","right","s","628.043721379","566.996908612","1","green","1"
"98","67","21","844.820804066","1","0","7","467","1","right","in","Female","Right-handed","0","2","no","right","s","658.656447351","366.574011623","1","green","0"
"98","68","21","843.120692027","1","1","7","468","3","right","in","Female","Right-handed","0","2","no","right","s","652.249811341","823.177679915","1","red","1"
"98","67","21","854.739288725","1","0","7","469","3","left","out","Female","Right-handed","0","2","no","left","s","934.728386663","2238.69337467","1","green","0"
"100","100","21","1109.93140833","1","1","8","470","3","right","out","Female","Right-handed","0","2","no","right","s","684.879203673","1534.98361298","1","red","3"
"100","100","21","948.987369215","1","1","8","471","0","right","out","Female","Right-handed","0","2","no","right","s","856.526119005","719.560541201","1","green","3"
"100","100","21","1186.69515486","1","1","8","472","0","right","in","Female","Right-handed","0","2","no","right","d","1005.19496847","2319.02648382","1","green","3"
"100","75","21","1202.6429378","1","0","8","473","0","left","out","Female","Right-handed","0","2","no","left","d","1117.48107852","1383.49149475","1","red","0"
"100","80","21","1330.53822349","1","1","8","474","1","right","out","Female","Right-handed","0","2","no","right","d","1325.10598884","2359.13274367","1","green","2"
"83","83","21","1289.52570924","0","1","8","475","2","left","out","Female","Right-handed","0","2","no","right","s","1062.47913337","1106.44714253","1","green","1"
"85","71","21","1191.10280211","1","0","8","476","0","right","in","Female","Right-handed","0","2","no","right","s","770.102600465","431.028118194","1","red","3"
"87","75","21","1164.05154302","1","1","8","477","3","right","in","Female","Right-handed","0","2","no","right","d","566.749956782","1382.63550199","1","red","3"
"88","77","21","1100.91396052","1","1","8","478","1","right","in","Female","Right-handed","0","2","no","right","d","544.311977774","647.314623366","1","red","0"
"90","80","21","1072.16843269","1","1","8","479","2","right","in","Female","Right-handed","0","2","no","right","d","876.000034637","750.917329828","1","green","2"
"90","72","21","1041.60645576","1","0","8","480","3","left","out","Female","Right-handed","0","2","no","left","d","552.499874121","919.473498703","1","green","1"
"91","75","21","1011.51668138","1","1","8","481","3","right","out","Female","Right-handed","0","2","no","right","d","730.005962123","631.05236437","1","red","0"
"92","76","21","965.996077734","1","1","8","482","3","right","in","Female","Right-handed","0","2","no","right","s","399.658500901","439.839167011","1","green","0"
"92","78","21","961.697152847","1","1","8","483","2","right","out","Female","Right-handed","0","2","no","right","d","1028.34782492","783.274433718","1","green","3"
"93","80","21","933.937894929","1","1","8","484","1","left","in","Female","Right-handed","0","2","no","left","d","435.867411881","654.749156274","1","red","0"
"93","81","21","921.289436523","1","1","8","485","0","left","in","Female","Right-handed","0","2","no","left","s","775.573385265","687.551735609","1","green","1"
"94","76","21","943.840795948","1","0","8","486","0","right","in","Female","Right-handed","0","2","no","right","s","1026.18234602","1583.14274746","1","green","3"
"94","77","21","960.435582045","1","1","8","487","3","left","out","Female","Right-handed","0","2","no","left","s","1054.58212704","1430.51176437","1","red","0"
"94","78","21","946.764790098","1","1","8","488","2","left","out","Female","Right-handed","0","2","no","left","d","690.14344694","711.237623142","1","green","3"
"95","80","21","931.045340677","1","1","8","489","2","left","in","Female","Right-handed","0","2","no","left","s","809.844846899","454.906756444","1","green","1"
"95","80","21","907.801924535","1","1","8","490","1","right","out","Female","Right-handed","0","2","no","right","s","590.432957874","295.434245549","1","red","3"
"95","81","21","896.241002477","1","1","8","491","2","left","out","Female","Right-handed","0","2","no","left","s","844.059541691","462.863736793","1","green","0"
"95","82","21","885.042362","1","1","8","492","0","right","out","Female","Right-handed","0","2","no","right","d","462.607804897","814.736738128","1","green","0"
"95","83","21","906.088482413","1","1","8","493","2","right","in","Female","Right-handed","0","2","no","right","s","1333.16976783","1447.12873599","1","red","1"
"96","80","21","924.072472985","1","0","8","494","3","left","in","Female","Right-handed","0","2","no","left","d","1144.60857654","1566.76791692","1","red","1"
"96","76","21","925.346702728","1","0","8","495","3","left","in","Female","Right-handed","0","2","no","left","s","1395.2117644","519.193128199","1","green","0"
"96","77","21","934.899827537","1","1","8","496","3","left","out","Female","Right-handed","0","2","no","left","d","1111.81658086","1254.74556425","1","red","1"
"96","78","21","932.705197154","1","1","8","497","0","left","out","Female","Right-handed","0","2","no","left","s","563.406485595","1183.49386806","1","red","0"
"96","79","21","921.351853239","1","1","8","498","3","left","in","Female","Right-handed","0","2","no","left","s","743.907425775","463.009021441","1","green","2"
"96","80","21","909.910909188","1","1","8","499","3","left","in","Female","Right-handed","0","2","no","left","d","533.670919689","622.576143745","1","green","1"
"96","80","21","904.675378511","1","1","8","500","3","left","in","Female","Right-handed","0","2","no","left","s","968.153797752","527.065118633","1","green","0"
"96","81","21","906.84682865","1","1","8","501","0","right","out","Female","Right-handed","0","2","no","right","d","869.65818339","1078.66538252","1","green","1"
"96","81","21","904.771108358","1","1","8","502","3","left","in","Female","Right-handed","0","2","no","left","s","1269.40616424","407.28995384","1","red","2"
"97","82","21","902.644608831","1","1","8","503","0","right","in","Female","Right-handed","0","2","no","right","d","610.007578536","1054.93267035","1","green","1"
"97","82","21","905.899990741","1","1","8","504","0","left","in","Female","Right-handed","0","2","no","left","s","1226.59337649","806.572574813","1","red","0"
"97","83","21","901.824189149","1","1","8","505","1","right","out","Female","Right-handed","0","2","no","right","s","575.223290958","943.118975938","1","red","1"
"97","83","21","900.090757614","1","1","8","506","2","left","out","Female","Right-handed","0","2","no","left","d","516.746060075","1158.62838464","1","green","3"
"97","84","21","900.439986123","1","1","8","507","0","right","out","Female","Right-handed","0","2","no","right","d","795.501756405","1031.22112548","1","red","1"
"97","82","21","903.603163691","1","0","8","508","3","left","in","Female","Right-handed","0","2","no","left","d","952.830917857","1094.77690468","1","green","3"
"97","82","21","898.260068018","1","1","8","509","2","right","in","Female","Right-handed","0","2","no","right","d","717.29884731","662.459826228","1","green","0"
"97","82","21","893.987530239","1","1","8","510","1","left","in","Female","Right-handed","0","2","no","left","d","615.109859889","831.062178302","1","red","1"
"97","83","21","892.585629478","1","1","8","511","2","left","out","Female","Right-handed","0","2","no","left","d","1119.62988014","550.585516372","1","green","1"
"97","83","21","891.71640777","1","1","8","512","0","right","out","Female","Right-handed","0","2","no","right","d","1415.21550396","295.202688118","1","green","2"
"97","84","21","889.162038653","1","1","8","513","3","left","out","Female","Right-handed","0","2","no","left","d","839.856549853","718.791783369","1","green","0"
"97","84","21","882.012296063","1","1","8","514","0","right","out","Female","Right-handed","0","2","no","right","d","440.390799664","694.456444595","1","red","0"
"97","84","21","880.370628819","1","1","8","515","1","left","in","Female","Right-handed","0","2","no","left","d","933.990738344","679.000467284","1","green","3"
"97","85","21","875.906613969","1","1","8","516","3","right","in","Female","Right-handed","0","2","no","right","d","758.615171119","582.508690619","1","red","3"
"97","83","21","884.756224202","1","0","8","517","1","right","out","Female","Right-handed","0","2","no","right","d","1138.17916965","1463.19664069","1","red","3"
"97","81","21","900.009240567","1","0","8","518","2","left","in","Female","Right-handed","0","2","no","left","d","737.664996694","2526.64305551","1","red","0"
"98","82","21","897.974183592","1","1","8","519","0","right","in","Female","Right-handed","0","2","no","right","s","1158.34102252","438.171761092","1","green","2"
"98","82","21","894.636411288","1","1","8","520","1","left","out","Female","Right-handed","0","2","no","left","s","872.749892002","582.74570023","1","green","3"
"98","80","21","885.891648812","1","0","8","521","1","right","in","Female","Right-handed","0","2","no","right","s","425.458231948","454.359293104","1","red","1"
"98","79","21","878.751959072","1","0","8","522","1","right","in","Female","Right-handed","0","2","no","right","d","367.987730664","646.988454522","1","green","0"
"98","79","21","887.063025183","1","1","8","523","2","right","out","Female","Right-handed","0","2","no","right","s","768.470152664","1886.62890549","1","red","3"
"98","78","21","893.626514428","1","0","8","524","0","left","in","Female","Right-handed","0","2","no","left","d","713.10868414","1783.00118312","1","red","0"
"98","78","21","891.877608314","1","1","8","525","2","left","out","Female","Right-handed","0","2","no","left","s","1096.71595761","494.659586526","1","red","2"
"98","78","21","896.444301034","1","1","8","526","1","right","in","Female","Right-handed","0","2","no","right","s","1538.17474375","766.183442872","1","red","1"
"98","79","21","892.062368265","1","1","8","527","2","right","in","Female","Right-handed","0","2","no","right","d","725.813553934","558.770846983","1","red","0"
"98","79","21","887.381725335","1","1","8","528","2","left","out","Female","Right-handed","0","2","no","left","d","609.464925947","622.343944884","1","red","0"
"98","80","21","881.192942502","1","1","8","529","1","left","out","Female","Right-handed","0","2","no","left","s","601.015324802","431.094185824","1","red","0"
"98","80","21","881.257003946","1","1","8","530","2","left","in","Female","Right-handed","0","2","no","left","s","875.659433543","894.541947655","1","red","0"
"98","80","21","882.329235682","1","1","8","531","1","right","out","Female","Right-handed","0","2","no","right","d","1177.25817403","718.212569078","1","green","2"
"98","80","21","878.94069588","1","1","8","532","1","left","out","Female","Right-handed","0","2","no","left","d","626.877595601","710.824860802","1","red","0"
"98","81","21","871.76031072","1","1","8","533","1","right","out","Female","Right-handed","0","2","no","right","s","392.48535207","446.306739188","1","green","0"
dis_reply=No
dis_loc=0
tar_loc=3
